TrialType,CondType,Lag,T1_PA,T2_PA,T1Loc,T2Loc,PreDistractor,PostDistractor,TotalImg,cueWord,T1cue,StimLength,isi,PicFolder,Img1,Img2,Img3,Img4,Img5,Img6,Img7,Img8,Img9,Img10,Img11,Img12,Img13,Img14,Img15,Img16,Img17,T1_Identity,ImageType,T1PA,T2PA,Picture,Image,FullPathName,FilePath,Practice_Trials.thisRepN,Practice_Trials.thisTrialN,Practice_Trials.thisN,Practice_Trials.thisIndex,trials.thisRepN,trials.thisTrialN,trials.thisN,trials.thisIndex,trials_2.thisRepN,trials_2.thisTrialN,trials_2.thisN,trials_2.thisIndex,Practice_Ins.started,Practice_Ins.stopped,End_Prac_Ins.keys,End_Prac_Ins.rt,End_Prac_Ins.started,End_Prac_Ins.stopped,text_2.started,text_2.stopped,Fixation_Cross_2.started,Fixation_Cross_2.stopped,Rapid_Image_Present_2.started,Rapid_Image_Present_2.stopped,key_resp.keys,key_resp.rt,key_resp.started,key_resp.stopped,T1Response_2.started,T1Response_2.stopped,T2Response_2.started,T2Response_2.stopped,key_resp_4.keys,key_resp_4.rt,key_resp_4.started,key_resp_4.stopped,text.started,text.stopped,End_Instructions.keys,End_Instructions.rt,End_Instructions.started,End_Instructions.stopped,text_5.started,text_5.stopped,FC.started,FC.stopped,Rapid_Image_Present.started,Rapid_Image_Present.stopped,T1Response.started,T1Response.stopped,key_resp_2.keys,key_resp_2.rt,key_resp_2.started,key_resp_2.stopped,T2Response.started,T2Response.stopped,key_resp_3.keys,key_resp_3.rt,key_resp_3.started,key_resp_3.stopped,text_6.started,text_6.stopped,Fin_ins.keys,Fin_ins.rt,Fin_ins.started,Fin_ins.stopped,MemTest.started,MemTest.stopped,MemResponse.keys,MemResponse.rt,MemResponse.started,MemResponse.stopped,Display.started,Display.stopped,text_7.started,text_7.stopped,endOfExperiment.started,endOfExperiment.stopped,key_resp_5.keys,key_resp_5.rt,key_resp_5.started,key_resp_5.stopped,participant,session,date,expName,psychopyVersion,frameRate,
,,,,,,,,,,,,,,,,,,,,,,,,,,,,,,,,,,,,,,,,,,,,,,,,,,,,11.721469499985687,None,space,134.79566579998937,11.721469499985687,None,,,,,,,,,,,,,,,,,,,,,,,,,,,,,,,,,,,,,,,,,,,,,,,,,,,,,,,,,,,,,,,,,PPT08,001,2022-06-29_09h00.40.945,ABstudy,2022.1.4,59.903985899518084,
AB_Prac,Lag1_T1P_T2A,1,P,A,8,9,7,5,14,flower,Did you see the flower?,0.5,0.016,JPG\,razor01,axe01,binder03b,bowl01,kettle01,lettuce,lime,plasticflower01b,mitten04,pencilcase01,plunger02,strawbasket01,toothpick02,wallet02a,blankImage,blankImage,blankImage,plasticflower01b,,,,,,,,0,0,0,5,,,,,,,,,,,,,,,146.5908436999889,147.60463529999834,147.58794499991927,148.19705959991552,148.19705959991552,None,left,2.749010600033216,155.2888308999827,None,155.2888308999827,None,158.06463169993367,None,left,1.98065789998509,158.06463169993367,None,,,,,,,,,,,,,,,,,,,,,,,,,,,,,,,,,,,,,,,,,,,,,,,PPT08,001,2022-06-29_09h00.40.945,ABstudy,2022.1.4,59.903985899518084,
AB_Prac,Lag5_T1P_T2A,5,P,A,6,11,5,5,16,Wheat,Did you see the Wheat?,0.5,0.016,JPG\,bottleopener01,dentalfloss03b,cooler01,icecreamcone01a,paperclip01b,wheat,pencilsharpener02a,plasticbasket01a,toycar04,apricot,hairclip02,rock01a,honeydewmelon,antenna,blackberry,cardboardbox,blankImage,wheat,,,,,,,,0,1,1,7,,,,,,,,,,,,,,,160.06943779997528,161.08433069998864,161.06768169999123,161.6423149999464,161.6423149999464,None,left,4.764050800004043,169.71291150001343,None,169.71291150001343,None,174.49818160000723,None,right,3.0600078999996185,174.49818160000723,None,,,,,,,,,,,,,,,,,,,,,,,,,,,,,,,,,,,,,,,,,,,,,,,PPT08,001,2022-06-29_09h00.40.945,ABstudy,2022.1.4,59.903985899518084,
AB_Prac,Lag1_T1A_T2A,1,A,A,8,9,7,3,12,Moose,Did you see the Moose?,0.5,0.016,JPG\,clothespin03b,corkscrew03a,drillbit03a,fusilli03a,needlenosepliers01,perfume01a,pistachio,scrubbingbrush05b,spatula03,toothpastetube,hinge,toydinosaur,blankImage,blankImage,blankImage,blankImage,blankImage,None,,,,,,,,0,2,2,10,,,,,,,,,,,,,,,177.58433039998636,178.585964399972,178.56915719993412,179.12567959993612,179.12567959993612,None,right,3.8131666999543086,185.16054549999535,None,185.16054549999535,None,188.99593799992,None,right,1.9860612000338733,188.99593799992,None,,,,,,,,,,,,,,,,,,,,,,,,,,,,,,,,,,,,,,,,,,,,,,,PPT08,001,2022-06-29_09h00.40.945,ABstudy,2022.1.4,59.903985899518084,
AB_Prac,Lag5_T1P_T2A,5,P,A,6,11,5,5,16,bread,Did you see the bread?,0.5,0.016,JPG\,cleaver01,clipboard,dustpan,hikingshoe01,notebook03a,baguette01,playingcard,pliers02b,styrofoamcup,rollingpin01a,swimgoggles,wineglass01,fryingpan02a,safetypin,syringe01,thimble,blankImage,baguette01,,,,,,,,0,3,3,8,,,,,,,,,,,,,,,191.01637149997987,192.03173809999134,192.01502489997074,192.58998649998102,192.58998649998102,None,left,2.9547773000085726,200.63419999997132,None,200.63419999997132,None,203.61028379993513,None,left,2.44333630008623,203.61028379993513,None,,,,,,,,,,,,,,,,,,,,,,,,,,,,,,,,,,,,,,,,,,,,,,,PPT08,001,2022-06-29_09h00.40.945,ABstudy,2022.1.4,59.903985899518084,
AB_Prac,Lag5_T1A_T2P,5,A,P,6,11,5,3,14,dog,Did you see the dog?,0.5,0.016,JPG\,bucket01a,doorlock,cookiecutter,fireextinguisher01,gluestick,highlighter02b,sportbag,spraybottle01,suitcase,thread02,stapler05,walnut01c,icecubetray01a,vikingmask01b,blankImage,blankImage,blankImage,None,,,,,,,,0,4,4,9,,,,,,,,,,,,,,,206.08517979993485,207.09752319997642,207.08079699997324,207.69192849996034,207.69192849996034,None,right,1.5290465001016855,214.6681037999224,None,214.6681037999224,None,216.22289279999677,None,right,2.557984699960798,216.22289279999677,None,,,,,,,,,,,,,,,,,,,,,,,,,,,,,,,,,,,,,,,,,,,,,,,PPT08,001,2022-06-29_09h00.40.945,ABstudy,2022.1.4,59.903985899518084,
AB_Prac,Lag5_T1P_T2P,5,P,P,5,10,4,5,15,Vulture,Did you see the Vulture?,0.5,0.016,JPG\,shorts01,toast,ramekin01,bib,vulture,cracker02,date,glasses01a,hat03b,stapler01,measuringtape01,nail,pill,drum01,starfish01,blankImage,blankImage,vulture,,,,,,,,0,5,5,3,,,,,,,,,,,,,,,218.8166333999252,219.82642479997594,219.8097201999044,220.39682239992544,220.39682239992544,None,left,9.685305699938908,227.88798070000485,None,227.88798070000485,None,237.59384599991608,None,left,5.332006599986926,237.59384599991608,None,,,,,,,,,,,,,,,,,,,,,,,,,,,,,,,,,,,,,,,,,,,,,,,PPT08,001,2022-06-29_09h00.40.945,ABstudy,2022.1.4,59.903985899518084,
AB_Prac,Lag5_T1A_T2A,5,A,A,6,11,5,5,16,castle,Did you see the castle?,0.5,0.016,JPG\,tape02a,englishmuffin,flask,ladle02a,monitor,peach01,keychain,squeegee01b,telephone01b,whisk,walkman,syringe02,baguette01,coaster,box01a,coffeepot03a,blankImage,None,,,,,,,,0,6,6,11,,,,,,,,,,,,,,,242.9522496999707,243.96693299990147,243.95018970000092,244.541015899973,244.541015899973,None,right,4.227016599965282,252.5535800999496,None,252.5535800999496,None,256.81290139991324,None,left,1.3761704999487847,256.81290139991324,None,,,,,,,,,,,,,,,,,,,,,,,,,,,,,,,,,,,,,,,,,,,,,,,PPT08,001,2022-06-29_09h00.40.945,ABstudy,2022.1.4,59.903985899518084,
AB_Prac,Lag1_T1P_T2P,1,P,P,6,7,5,5,12,triangle,Did you see the triangle?,0.5,0.016,JPG\,ginger,mousetrap,plum01,slipper01b,dropper01,triangle,stapler04b,pants,raspberry01,rope03,scale01a,vase01,blankImage,blankImage,blankImage,blankImage,blankImage,triangle,,,,,,,,0,7,7,1,,,,,,,,,,,,,,,258.2167461999925,259.23191259999294,259.1985330999596,259.77978799992707,259.77978799992707,None,left,28.805824300041422,265.8304857999319,None,265.8304857999319,None,294.66807749995496,None,left,1.4168502999236807,294.66807749995496,None,,,,,,,,,,,,,,,,,,,,,,,,,,,,,,,,,,,,,,,,,,,,,,,PPT08,001,2022-06-29_09h00.40.945,ABstudy,2022.1.4,59.903985899518084,
AB_Prac,Lag5_T1P_T2P,5,P,P,5,10,4,5,15,washing machine,Did you see the washing machine?,0.5,0.016,JPG\,waterbottle03,wheel01,flashlight02b,zucchini01,washingmachine,headphones02b,nutcracker01,paintroller01,paperclip03,stapler06,ribbon04,electricrazor,bottleofredwine01,pitabread,pot02a,blankImage,blankImage,washingmachine,,,,,,,,0,8,8,4,,,,,,,,,,,,,,,296.1042707999004,297.1195901999017,297.10290880000684,297.7431770999683,297.66604829998687,None,right,2.1165342000313103,305.33645149995573,None,305.33645149995573,None,307.4803714998998,None,left,1.0039265000959858,307.4803714998998,None,,,,,,,,,,,,,,,,,,,,,,,,,,,,,,,,,,,,,,,,,,,,,,,PPT08,001,2022-06-29_09h00.40.945,ABstudy,2022.1.4,59.903985899518084,
AB_Prac,Lag5_T1P_T2P,5,P,P,7,12,6,3,15,vacuum,Did you see the vacuum?,0.5,0.016,JPG\,fork07b,lightbulb01,manshoe,saw02b,shoelace,soap03a,vacuumcleaner01,floortile01,necklace,doll,cabbage,stapler03a,hanger02a,laptop01a,nailpolish03b,blankImage,blankImage,vacuumcleaner01,,,,,,,,0,9,9,2,,,,,,,,,,,,,,,308.5285107999807,309.5324781999225,309.4992759999586,310.1171962999506,310.1171962999506,None,left,1.7355823999969289,317.6534529000055,None,317.6534529000055,None,319.4086365000112,None,left,0.6605011000065133,319.4086365000112,None,,,,,,,,,,,,,,,,,,,,,,,,,,,,,,,,,,,,,,,,,,,,,,,PPT08,001,2022-06-29_09h00.40.945,ABstudy,2022.1.4,59.903985899518084,
AB_Prac,Lag1_T1P_T2P,1,P,P,8,9,7,5,14,Tennis racket,Did you see the Tennis racket?,0.5,0.016,JPG\,coconut,computermouse06,croissant01,deodorant02a,pillow01a,peanut01,boot02b,tennisracket,stapler03b,crayon,eggplant,marker01a,plant01,radish01,blankImage,blankImage,blankImage,tennisracket,,,,,,,,0,10,10,0,,,,,,,,,,,,,,,320.09991939994507,321.110474599991,321.0938071999699,321.69259130000137,321.69259130000137,None,left,2.087560400017537,328.7244615999516,None,328.7244615999516,None,330.83667809993494,None,left,1.1691946000792086,330.83667809993494,None,,,,,,,,,,,,,,,,,,,,,,,,,,,,,,,,,,,,,,,,,,,,,,,PPT08,001,2022-06-29_09h00.40.945,ABstudy,2022.1.4,59.903985899518084,
AB_Prac,Lag1_T1P_T2A,1,P,A,5,6,4,5,11,Webcam,Did you see the Webcam?,0.5,0.016,JPG\,pictureframe04,binder03b,straw,adjustablewrench01b,webcam,cane,hairdryer02a,icepack,kitchenscale01a,lifejacket,piggybank,blankImage,blankImage,blankImage,blankImage,blankImage,blankImage,webcam,,,,,,,,0,11,11,6,,,,,,,,,,,,,,,332.04017719998956,333.0556049000006,333.0222072999459,333.61115249991417,333.61115249991417,None,right,10.34506970003713,339.2685102999676,None,339.2685102999676,None,349.63884839997627,None,right,1.7180124999722466,349.63884839997627,None,,,,,,,,,,,,,,,,,,,,,,,,,,,,,,,,,,,,,,,,,,,,,,,PPT08,001,2022-06-29_09h00.40.945,ABstudy,2022.1.4,59.903985899518084,
,,,,,,,,,,,,,,,,,,,,,,,,,,,,,,,,,,,,,,,,,,,,,,,,,,,,,,,,,,,,,,,,,,,,,,,,,,,,351.37413309991825,None,space,107.41362770006526,351.37413309991825,None,,,,,,,,,,,,,,,,,,,,,,,,,,,,,,,,,,,,,,,,,PPT08,001,2022-06-29_09h00.40.945,ABstudy,2022.1.4,59.903985899518084,
AB,Lag1_T1P_T2A,1,P,A,8,9,7,5,14,Parrot,Did you see the Parrot?,0.12,0.016,JPG\,candy,brownsugar,dice05a,cd,sock01a,blueberry01,button01,parrot01,feather03a,grape01,dandelion,scissors01,watch02a,candle08b,blankImage,blankImage,blankImage,parrot01,,,,,,,,,,,,0,0,0,192,,,,,,,,,,,,,,,,,,,,,,,,,,,,,,,,,,,459.64790390001144,460.6492524999194,460.6325720999157,461.2600543999579,461.2600543999579,None,462.9511894999305,None,left,2.4287550000008196,462.9511894999305,None,465.4046756000025,None,left,2.47084399999585,465.4046756000025,None,,,,,,,,,,,,,,,,,,,,,,,PPT08,001,2022-06-29_09h00.40.945,ABstudy,2022.1.4,59.903985899518084,
AB,Lag5_T1P_T2P,5,P,P,8,13,7,5,18,skis,Did you see the skis?,0.12,0.016,JPG\,tennisball01b,paintbrush01,medal02b,apple07,speaker04,iron01b,avocado01,downhillski,belt02a,toiletpaper01a,watermelon01,candle01,stapler01,cymbal,ashtray01,screwdriver04b,blankImage,downhillski,,,,,,,,,,,,0,1,1,106,,,,,,,,,,,,,,,,,,,,,,,,,,,,,,,,,,,467.9454311999725,468.9579348999541,468.94131429994013,469.5623454999877,469.5623454999877,None,471.3890686999075,None,left,1.3272597000468522,471.3890686999075,None,472.74466959992424,None,left,0.6034724999917671,472.74466959992424,None,,,,,,,,,,,,,,,,,,,,,,,PPT08,001,2022-06-29_09h00.40.945,ABstudy,2022.1.4,59.903985899518084,
AB,Lag1_T1P_T2P,1,P,P,6,7,5,3,10,drum sticks,Did you see the drum sticks?,0.12,0.016,JPG\,pineapple01a,tennisball01b,computerkeyboard02,feather03a,belt02a,drumstick,stapler03b,blueberry01,medal02b,alligator,blankImage,blankImage,blankImage,blankImage,blankImage,blankImage,blankImage,drumstick,,,,,,,,,,,,0,2,2,61,,,,,,,,,,,,,,,,,,,,,,,,,,,,,,,,,,,473.38540769997053,474.39626969990786,474.3795747999102,474.9883223999059,474.9883223999059,None,476.15853519993834,None,left,1.8769333000527695,476.15853519993834,None,478.0667916999664,None,right,0.6415829999605194,478.0667916999664,None,,,,,,,,,,,,,,,,,,,,,,,PPT08,001,2022-06-29_09h00.40.945,ABstudy,2022.1.4,59.903985899518084,
AB,Lag1_T1P_T2A,1,P,A,5,6,4,5,11,Sailboat,Did you see the Sailboat?,0.12,0.016,JPG\,chain01,speaker04,avocado01,watermelon01,sailboat,comb02a,lamp04a,fork03c,toaster01,slipper03b,scissors01,blankImage,blankImage,blankImage,blankImage,blankImage,blankImage,sailboat,,,,,,,,,,,,0,3,3,193,,,,,,,,,,,,,,,,,,,,,,,,,,,,,,,,,,,478.7445130000124,479.7516643999843,479.73504679999314,480.3016186999157,480.3016186999157,None,481.70270859997254,None,right,2.7488137999316677,481.70270859997254,None,484.473071699962,None,right,0.4185509999515489,484.473071699962,None,,,,,,,,,,,,,,,,,,,,,,,PPT08,001,2022-06-29_09h00.40.945,ABstudy,2022.1.4,59.903985899518084,
AB,Lag1_T1A_T2P,1,A,P,5,6,4,3,9,Spider,Did you see the Spider?,0.12,0.016,JPG\,pen04b,speaker04,lighter01,cherry01,8ball,stapler04b,sock01a,toothbrush03b,broom01,blankImage,blankImage,blankImage,blankImage,blankImage,blankImage,blankImage,blankImage,bridge,,,,,,,,,,,,0,4,4,250,,,,,,,,,,,,,,,,,,,,,,,,,,,,,,,,,,,484.93130359996576,485.94124099996407,485.92438809992746,486.48854349995963,486.48854349995963,None,487.6253440999426,None,right,1.971184500027448,487.6253440999426,None,489.6280037999386,None,left,0.46458640007767826,489.6280037999386,None,,,,,,,,,,,,,,,,,,,,,,,PPT08,001,2022-06-29_09h00.40.945,ABstudy,2022.1.4,59.903985899518084,
AB,Lag5_T1P_T2P,5,P,P,7,12,6,3,15,lips,Did you see the lips?,0.12,0.016,JPG\,cigarette,fork03c,greenolive,broccoli01a,avocado01,tennisball01b,lip,leaf02a,pig,fan,clock01a,stapler03a,envelope03a,birthdaycandle,teabag,blankImage,blankImage,lip,,,,,,,,,,,,0,5,5,95,,,,,,,,,,,,,,,,,,,,,,,,,,,,,,,,,,,490.1148156999843,491.12972399999853,491.0963151999749,491.66222249995917,491.66222249995917,None,493.5088015999645,None,left,0.9353331999154761,493.5088015999645,None,494.4662004999118,None,right,1.089141699951142,494.4662004999118,None,,,,,,,,,,,,,,,,,,,,,,,PPT08,001,2022-06-29_09h00.40.945,ABstudy,2022.1.4,59.903985899518084,
AB,Lag1_T1A_T2P,1,A,P,6,7,5,5,12,Ostrich,Did you see the Ostrich?,0.12,0.016,JPG\,thermometer02b,candle08b,comb02a,toothbrush03b,brick,computerkeyboard02,stapler05,pineapple01a,candy,birthdaycandle,clock04,hairclip03,blankImage,blankImage,blankImage,blankImage,blankImage,discoball,,,,,,,,,,,,0,6,6,232,,,,,,,,,,,,,,,,,,,,,,,,,,,,,,,,,,,495.5838752000127,496.58526620001066,496.56888519995846,497.1361398999579,497.1361398999579,None,498.653579399921,None,right,3.903031700057909,498.653579399921,None,502.57393299997784,None,right,0.5105777001008391,502.57393299997784,None,,,,,,,,,,,,,,,,,,,,,,,PPT08,001,2022-06-29_09h00.40.945,ABstudy,2022.1.4,59.903985899518084,
AB,Lag1_T1A_T2P,1,A,P,8,9,7,5,14,calendar,Did you see the calendar?,0.12,0.016,JPG\,foosballtable,candy,envelope03a,microscope,pencil01,leaf02a,scissors01,watermelon01,stapler04b,dandelion,pineapple01a,hammer01,celery,thermometer02b,blankImage,blankImage,blankImage,trampoline,,,,,,,,,,,,0,7,7,245,,,,,,,,,,,,,,,,,,,,,,,,,,,,,,,,,,,503.1091434999835,504.1088065999793,504.0921617000131,504.59262489993125,504.59262489993125,None,506.41737199993804,None,right,2.3389018999878317,506.41737199993804,None,508.78033959993627,None,left,0.959595000022091,508.78033959993627,None,,,,,,,,,,,,,,,,,,,,,,,PPT08,001,2022-06-29_09h00.40.945,ABstudy,2022.1.4,59.903985899518084,
AB,Lag1_T1A_T2P,1,A,P,8,9,7,4,13,Toolbox,Did you see the Toolbox?,0.12,0.016,JPG\,pizza,printer02,medal02b,spoon01,grape01,lighter01,belt02a,watermelon01,stapler03b,battery02b,screw02,comb02a,cauliflower01,blankImage,blankImage,blankImage,blankImage,ladybug03,,,,,,,,,,,,0,8,8,237,,,,,,,,,,,,,,,,,,,,,,,,,,,,,,,,,,,509.7705193000147,510.78261489991564,510.76590789994225,511.4315432999283,511.4315432999283,None,512.9365646999795,None,left,1.8827786999754608,512.9365646999795,None,514.8365347000072,None,left,0.5189490999327973,514.8365347000072,None,,,,,,,,,,,,,,,,,,,,,,,PPT08,001,2022-06-29_09h00.40.945,ABstudy,2022.1.4,59.903985899518084,
AB,Lag1_T1P_T2P,1,P,P,7,8,6,3,11,Moose,Did you see the Moose?,0.12,0.016,JPG\,sock01a,spoon01,alligator,comb02a,printer02,medal02b,moose,stapler03a,greenolive,computerkeyboard02,cauliflower01,blankImage,blankImage,blankImage,blankImage,blankImage,blankImage,moose,,,,,,,,,,,,0,9,9,67,,,,,,,,,,,,,,,,,,,,,,,,,,,,,,,,,,,515.3901952999877,516.3881214999128,516.3881214999128,517.0438490000088,516.9632669999264,None,518.2876568000065,None,left,2.4358041000086814,518.2876568000065,None,520.742528899922,None,left,0.9008224999997765,520.742528899922,None,,,,,,,,,,,,,,,,,,,,,,,PPT08,001,2022-06-29_09h00.40.945,ABstudy,2022.1.4,59.903985899518084,
AB,Lag1_T1P_T2A,1,P,A,7,8,6,3,11,fish,Did you see the fish?,0.12,0.016,JPG\,rice,watermelon01,tableknife02,scarf,computerkeyboard02,cauliflower01,salmon,binoculars01b,book01b,sandal,sponge01,blankImage,blankImage,blankImage,blankImage,blankImage,blankImage,salmon,,,,,,,,,,,,0,10,10,179,,,,,,,,,,,,,,,,,,,,,,,,,,,,,,,,,,,521.6601767999819,522.6610244999174,522.6443446999183,523.2110690999543,523.2110690999543,None,524.6111878999509,None,right,2.0333380999509245,524.6111878999509,None,526.66500119993,None,right,0.5623186000157148,526.66500119993,None,,,,,,,,,,,,,,,,,,,,,,,PPT08,001,2022-06-29_09h00.40.945,ABstudy,2022.1.4,59.903985899518084,
AB,Lag5_T1P_T2A,5,P,A,8,13,7,4,17,Tarantula,Did you see the Tarantula?,0.12,0.016,JPG\,binoculars01b,speaker04,sandal,envelope03a,plate01b,comb02a,battery02b,tarantula,measuringcup01,key01,medal02b,lamp04a,tennisball01b,pizza,cigarette,sunglasses04,blankImage,tarantula,,,,,,,,,,,,0,11,11,201,,,,,,,,,,,,,,,,,,,,,,,,,,,,,,,,,,,527.2543770999182,528.2669389999937,528.2502486999147,528.8744869999355,528.8744869999355,None,530.7435831999173,None,left,1.6678606000496075,530.7435831999173,None,532.4372978999745,None,left,0.5741737999487668,532.4372978999745,None,,,,,,,,,,,,,,,,,,,,,,,PPT08,001,2022-06-29_09h00.40.945,ABstudy,2022.1.4,59.903985899518084,
AB,Lag1_T1P_T2P,1,P,P,7,8,6,5,13,dream catcher,Did you see the dream catcher?,0.12,0.016,JPG\,clock01a,cellphone,toaster01,toothbrush03b,cauliflower01,microscope,dreamcatcher,stapler05,scarf,clock04,sponge01,iron01b,watch02a,blankImage,blankImage,blankImage,blankImage,dreamcatcher,,,,,,,,,,,,0,12,12,81,,,,,,,,,,,,,,,,,,,,,,,,,,,,,,,,,,,533.0431894999929,534.0557038999395,534.039142799913,534.6112934999401,534.6112934999401,None,536.1811261000112,None,left,0.9020754999946803,536.1811261000112,None,537.1087003999855,None,left,0.5518714999780059,537.1087003999855,None,,,,,,,,,,,,,,,,,,,,,,,PPT08,001,2022-06-29_09h00.40.945,ABstudy,2022.1.4,59.903985899518084,
AB,Lag1_T1A_T2P,1,A,P,8,9,7,4,13,Christmas tree,Did you see the Christmas tree?,0.12,0.016,JPG\,broom01,globe,cellphone,tableknife02,cauliflower01,scissors01,ring01,alligator,stapler03a,toaster01,cigarette,grape01,microscope,blankImage,blankImage,blankImage,blankImage,windmill,,,,,,,,,,,,0,13,13,247,,,,,,,,,,,,,,,,,,,,,,,,,,,,,,,,,,,537.7031072999816,538.7106121999677,538.6940197999356,539.2760267999256,539.2760267999256,None,540.8771084999898,None,right,5.406775199924596,540.8771084999898,None,546.3008251999272,None,left,0.35208929993677884,546.3008251999272,None,,,,,,,,,,,,,,,,,,,,,,,PPT08,001,2022-06-29_09h00.40.945,ABstudy,2022.1.4,59.903985899518084,
AB,Lag5_T1P_T2P,5,P,P,8,13,7,5,18,popcorn,Did you see the popcorn?,0.12,0.016,JPG\,toaster01,garlic01a,hairclip03,fan,comb02a,apple07,orange,popcorn,onion,blueberry01,toiletpaper01a,fork03c,stapler06,pineapple01a,scarf,eraser,blankImage,popcorn,,,,,,,,,,,,0,14,14,155,,,,,,,,,,,,,,,,,,,,,,,,,,,,,,,,,,,546.7314443999203,547.7357566999272,547.7190122999018,548.305555399973,548.305555399973,None,550.1955010999227,None,right,7.776013900060207,550.1955010999227,None,557.9972997999284,None,left,0.6060782999265939,557.9972997999284,None,,,,,,,,,,,,,,,,,,,,,,,PPT08,001,2022-06-29_09h00.40.945,ABstudy,2022.1.4,59.903985899518084,
AB,Lag5_T1P_T2P,5,P,P,5,10,4,5,15,scorpion,Did you see the scorpion?,0.12,0.016,JPG\,fan,tomato01,candy,screwdriver04b,scorpion,cd,thermometer02b,apple07,button01,stapler01,brownsugar,lighter01,clock01a,envelope03a,clock04,blankImage,blankImage,scorpion,,,,,,,,,,,,0,15,15,97,,,,,,,,,,,,,,,,,,,,,,,,,,,,,,,,,,,558.6327617999632,559.6475836999016,559.6148151999805,560.2085909999441,560.2085909999441,None,562.1360286999261,None,left,0.9877737000351772,562.1360286999261,None,563.1510064000031,None,left,0.3009378999704495,563.1510064000031,None,,,,,,,,,,,,,,,,,,,,,,,PPT08,001,2022-06-29_09h00.40.945,ABstudy,2022.1.4,59.903985899518084,
AB,Lag1_T1P_T2P,1,P,P,8,9,7,3,12,Sheep,Did you see the Sheep?,0.12,0.016,JPG\,celery,orange,scissors01,balloon01b,avocado01,printer02,mushroom01,sheep,stapler03b,dice05a,ashtray01,fan,blankImage,blankImage,blankImage,blankImage,blankImage,sheep,,,,,,,,,,,,0,16,16,71,,,,,,,,,,,,,,,,,,,,,,,,,,,,,,,,,,,563.4870198999997,564.5023365999805,564.4690072999801,565.0466905999929,565.0466905999929,None,566.589283999987,None,left,0.6386681000003591,566.589283999987,None,567.2553148999577,None,left,0.28492859995458275,567.2553148999577,None,,,,,,,,,,,,,,,,,,,,,,,PPT08,001,2022-06-29_09h00.40.945,ABstudy,2022.1.4,59.903985899518084,
AB,Lag1_T1P_T2P,1,P,P,8,9,7,3,12,bridge,Did you see the bridge?,0.12,0.016,JPG\,speaker04,sewingmachine01a,eraser,violin,globe,belt02a,sunglasses04,bridge,stapler01,greenolive,alligator,pear01,blankImage,blankImage,blankImage,blankImage,blankImage,bridge,,,,,,,,,,,,0,17,17,78,,,,,,,,,,,,,,,,,,,,,,,,,,,,,,,,,,,567.5759271999123,568.5900312999729,568.5735785999568,569.1485409999732,569.1485409999732,None,570.6027461999329,None,left,1.688310300000012,570.6027461999329,None,572.3105057999492,None,left,0.16650399996433407,572.3105057999492,None,,,,,,,,,,,,,,,,,,,,,,,PPT08,001,2022-06-29_09h00.40.945,ABstudy,2022.1.4,59.903985899518084,
AB,Lag5_T1P_T2P,5,P,P,5,10,4,4,14,Christmas lights,Did you see the Christmas lights?,0.12,0.016,JPG\,binoculars01b,cymbal,pizza,candy,christmaslights,sponge01,grape01,thermometer02b,speaker04,stapler03a,lipstick02a,strawberry,candle01,tambourine02,blankImage,blankImage,blankImage,christmaslights,,,,,,,,,,,,0,18,18,168,,,,,,,,,,,,,,,,,,,,,,,,,,,,,,,,,,,572.5027844000142,573.511647199979,573.4949741999153,574.087503699935,574.087503699935,None,575.7804827999789,None,left,0.6309652000200003,575.7804827999789,None,576.4311169999419,None,left,0.18834540003445,576.4311169999419,None,,,,,,,,,,,,,,,,,,,,,,,PPT08,001,2022-06-29_09h00.40.945,ABstudy,2022.1.4,59.903985899518084,
AB,Lag1_T1P_T2P,1,P,P,6,7,5,5,12,owl,Did you see the owl?,0.12,0.016,JPG\,paintbrush01,eraser,medal02b,hammer01,speaker04,greathornowl,stapler01,comb02a,plate01b,clock01a,button01,globe,blankImage,blankImage,blankImage,blankImage,blankImage,greathornowl,,,,,,,,,,,,0,19,19,1,,,,,,,,,,,,,,,,,,,,,,,,,,,,,,,,,,,576.6477664000122,577.6488062000135,577.6320892999647,578.2162999999709,578.2162999999709,None,579.7061647999799,None,left,0.6010941999265924,579.7061647999799,None,580.3363826000132,None,left,0.5867698000511155,580.3363826000132,None,,,,,,,,,,,,,,,,,,,,,,,PPT08,001,2022-06-29_09h00.40.945,ABstudy,2022.1.4,59.903985899518084,
AB,Lag1_T1A_T2A,1,A,A,8,9,7,5,14,Ping pong Table,Did you see the Ping pong Table?,0.12,0.016,JPG\,pineapple01a,tennisball01b,computerkeyboard02,feather03a,belt02a,acorn,violin,blueberry01,medal02b,alligator,greenolive,screwdriver04b,potato02b,fork03c,blankImage,blankImage,blankImage,statue,,,,,,,,,,,,0,20,20,287,,,,,,,,,,,,,,,,,,,,,,,,,,,,,,,,,,,580.9659825999988,581.9695341999177,581.9362200999167,582.5168614999857,582.5168614999857,None,584.2349364999682,None,right,1.2722662000451237,584.2349364999682,None,585.539972599945,None,left,3.4076101999962702,585.539972599945,None,,,,,,,,,,,,,,,,,,,,,,,PPT08,001,2022-06-29_09h00.40.945,ABstudy,2022.1.4,59.903985899518084,
AB,Lag1_T1A_T2P,1,A,P,8,9,7,5,14,clock,Did you see the clock?,0.12,0.016,JPG\,speaker04,sewingmachine01a,eraser,violin,globe,belt02a,sunglasses04,cymbal,stapler01,greenolive,alligator,pear01,watch02a,screwdriver04b,blankImage,blankImage,blankImage,peacock,,,,,,,,,,,,0,21,21,240,,,,,,,,,,,,,,,,,,,,,,,,,,,,,,,,,,,589.0281573999673,590.0279977999162,590.0279977999162,590.6814252999611,590.5955437999219,None,592.2271646999288,None,left,1.472960300045088,592.2271646999288,None,593.7316545000067,None,left,0.7596959999063984,593.7316545000067,None,,,,,,,,,,,,,,,,,,,,,,,PPT08,001,2022-06-29_09h00.40.945,ABstudy,2022.1.4,59.903985899518084,
AB,Lag1_T1A_T2A,1,A,A,5,6,4,3,9,Pigeon,Did you see the Pigeon?,0.12,0.016,JPG\,candle01,paintbrush01,scissors01,fan,microscope,toothbrush03b,candle08b,watermelon01,teabag,blankImage,blankImage,blankImage,blankImage,blankImage,blankImage,blankImage,blankImage,floorlamp,,,,,,,,,,,,0,22,22,286,,,,,,,,,,,,,,,,,,,,,,,,,,,,,,,,,,,594.5222407999681,595.5334820999997,595.5169016999425,596.0871798999142,596.0871798999142,None,597.2887190999463,None,right,1.8188954000361264,597.2887190999463,None,599.1370962999063,None,right,3.2738121999427676,599.1370962999063,None,,,,,,,,,,,,,,,,,,,,,,,PPT08,001,2022-06-29_09h00.40.945,ABstudy,2022.1.4,59.903985899518084,
AB,Lag5_T1A_T2P,5,A,P,5,10,4,3,13,flower,Did you see the flower?,0.12,0.016,JPG\,cucumber,ring01,lipstick02a,microscope,violin,garlic01a,celery,lighter01,cherry01,stapler03a,belt02a,key01,binoculars01b,blankImage,blankImage,blankImage,blankImage,christmastree,,,,,,,,,,,,0,23,23,284,,,,,,,,,,,,,,,,,,,,,,,,,,,,,,,,,,,602.4442384999711,603.4579419000074,603.4413202999858,604.0183158,604.0183158,None,605.6436237999005,None,right,1.1523190001025796,605.6436237999005,None,606.827971199993,None,left,0.5197459999471903,606.827971199993,None,,,,,,,,,,,,,,,,,,,,,,,PPT08,001,2022-06-29_09h00.40.945,ABstudy,2022.1.4,59.903985899518084,
AB,Lag1_T1P_T2P,1,P,P,8,9,7,5,14,finger print,Did you see the finger print?,0.12,0.016,JPG\,chain01,pen04b,birthdaycandle,watermelon01,broom01,scissors01,measuringcup01,fingerprint,stapler01,calculator01,ashtray01,feather03a,sewingmachine01a,thermometer02b,blankImage,blankImage,blankImage,fingerprint,,,,,,,,,,,,0,24,24,62,,,,,,,,,,,,,,,,,,,,,,,,,,,,,,,,,,,607.384842999978,608.3960211999947,608.3793376999674,608.9677406999981,608.9677406999981,None,610.7158697999548,None,right,4.111776300007477,610.7158697999548,None,614.8527239999967,None,left,0.6462035999866202,614.8527239999967,None,,,,,,,,,,,,,,,,,,,,,,,PPT08,001,2022-06-29_09h00.40.945,ABstudy,2022.1.4,59.903985899518084,
AB,Lag5_T1A_T2P,5,A,P,7,12,6,4,16,hand,Did you see the hand?,0.12,0.016,JPG\,celery,tennisball01b,calculator01,pear01,screw02,orange,button01,cellphone,onion,apple07,iron01b,stapler05,banana01,paintbrush01,dandelion,toothbrush03b,blankImage,bull,,,,,,,,,,,,0,25,25,281,,,,,,,,,,,,,,,,,,,,,,,,,,,,,,,,,,,615.5234566999134,616.537611000007,616.5044722999446,617.077896200004,617.077896200004,None,619.0719350000145,None,right,1.3794107999419793,619.0719350000145,None,620.4748936999822,None,left,0.5686062999302521,620.4748936999822,None,,,,,,,,,,,,,,,,,,,,,,,PPT08,001,2022-06-29_09h00.40.945,ABstudy,2022.1.4,59.903985899518084,
AB,Lag5_T1P_T2P,5,P,P,6,11,5,3,14,Poker chips,Did you see the Poker chips?,0.12,0.016,JPG\,iron01b,brick,broccoli01a,balloon01b,tomato01,pokerchips,sandal,teabag,scissors01,pineapple01a,stapler04b,measuringcup01,sock01a,book01b,blankImage,blankImage,blankImage,pokerchips,,,,,,,,,,,,0,26,26,154,,,,,,,,,,,,,,,,,,,,,,,,,,,,,,,,,,,621.0814765999094,622.0931738999207,622.0765004999703,622.6729270999786,622.6729270999786,None,624.4011731999926,None,left,2.354381199926138,624.4011731999926,None,626.7811359999469,None,left,0.41436709999106824,626.7811359999469,None,,,,,,,,,,,,,,,,,,,,,,,PPT08,001,2022-06-29_09h00.40.945,ABstudy,2022.1.4,59.903985899518084,
AB,Lag1_T1P_T2A,1,P,A,6,7,5,3,10,Dragon fly,Did you see the Dragon fly?,0.12,0.016,JPG\,leaf02a,pear01,measuringcup01,cigarette,fan,dragonfly01,teabag,tableknife02,ring01,pencil01,blankImage,blankImage,blankImage,blankImage,blankImage,blankImage,blankImage,dragonfly01,,,,,,,,,,,,0,27,27,185,,,,,,,,,,,,,,,,,,,,,,,,,,,,,,,,,,,627.2203862000024,628.2327740999172,628.215987799922,628.7811634999234,628.7811634999234,None,630.0284628999652,None,left,1.0867319999961182,630.0284628999652,None,631.1355862999335,None,left,0.24438529997132719,631.1355862999335,None,,,,,,,,,,,,,,,,,,,,,,,PPT08,001,2022-06-29_09h00.40.945,ABstudy,2022.1.4,59.903985899518084,
AB,Lag1_T1A_T2P,1,A,P,6,7,5,5,12,Piano,Did you see the Piano?,0.12,0.016,JPG\,toiletpaper01a,mushroom01,medal02b,sandal,rice,cd,stapler01,pizza,candle08b,garlic01a,toaster01,belt02a,blankImage,blankImage,blankImage,blankImage,blankImage,moose,,,,,,,,,,,,0,28,28,239,,,,,,,,,,,,,,,,,,,,,,,,,,,,,,,,,,,631.4080605999334,632.4201449999819,632.4035593000008,633.0028632999165,633.0028632999165,None,634.51324999996,None,right,0.9619469000026584,634.51324999996,None,635.5070111999521,None,left,0.4960909999208525,635.5070111999521,None,,,,,,,,,,,,,,,,,,,,,,,PPT08,001,2022-06-29_09h00.40.945,ABstudy,2022.1.4,59.903985899518084,
AB,Lag5_T1A_T2A,5,A,A,5,10,4,4,14,music sheet,Did you see the music sheet?,0.12,0.016,JPG\,celery,pencil01,fan,foosballtable,iron01b,shirt02,potato02b,fork03c,button01,pineapple01a,baseball01a,printer02,cauliflower01,dandelion,blankImage,blankImage,blankImage,licenseplate,,,,,,,,,,,,0,29,29,304,,,,,,,,,,,,,,,,,,,,,,,,,,,,,,,,,,,636.0257827999303,637.0412227999186,637.0078276999993,637.5900748999557,637.5900748999557,None,639.2104693999281,None,left,2.3539204000262544,639.2104693999281,None,641.5958981999429,None,left,0.39959950000047684,641.5958981999429,None,,,,,,,,,,,,,,,,,,,,,,,PPT08,001,2022-06-29_09h00.40.945,ABstudy,2022.1.4,59.903985899518084,
AB,Lag5_T1P_T2P,5,P,P,7,12,6,5,17,elbow,Did you see the elbow?,0.12,0.016,JPG\,candle01,fork03c,plate01b,violin,computerkeyboard02,candy,elbow,paintbrush01,cherry01,sock01a,teabag,stapler01,cd,lighter01,book01b,tennisball01b,blankImage,elbow,,,,,,,,,,,,0,30,30,87,,,,,,,,,,,,,,,,,,,,,,,,,,,,,,,,,,,642.0171456999378,643.0306584999198,643.0140548999188,643.6071890000021,643.6071890000021,None,645.6488642999902,None,left,0.4505622999276966,645.6488642999902,None,646.1183550999267,None,left,0.38176049990579486,646.1183550999267,None,,,,,,,,,,,,,,,,,,,,,,,PPT08,001,2022-06-29_09h00.40.945,ABstudy,2022.1.4,59.903985899518084,
AB,Lag1_T1P_T2P,1,P,P,8,9,7,3,12,Eiffel tower,Did you see the Eiffel tower?,0.12,0.016,JPG\,celery,tennisball01b,calculator01,pear01,screw02,orange,button01,eiffeltower,stapler03b,apple07,iron01b,brownsugar,blankImage,blankImage,blankImage,blankImage,blankImage,eiffeltower,,,,,,,,,,,,0,31,31,40,,,,,,,,,,,,,,,,,,,,,,,,,,,,,,,,,,,646.524978499976,647.5355213999283,647.5188924999675,648.1145393999759,648.1145393999759,None,649.4707338999724,None,left,2.052012200001627,649.4707338999724,None,651.5404817999806,None,left,0.34312399988994,651.5404817999806,None,,,,,,,,,,,,,,,,,,,,,,,PPT08,001,2022-06-29_09h00.40.945,ABstudy,2022.1.4,59.903985899518084,
AB,Lag5_T1P_T2P,5,P,P,7,12,6,5,17,Badminton Racket,Did you see the Badminton Racket?,0.12,0.016,JPG\,paintbrush01,dice05a,watermelon01,broccoli01a,hammer01,leaf02a,badmintonracket,tennisball01b,lemon02,fan,lipstick02a,stapler04b,envelope03a,sponge01,foosballtable,orange,blankImage,badmintonracket,,,,,,,,,,,,0,32,32,163,,,,,,,,,,,,,,,,,,,,,,,,,,,,,,,,,,,651.9519292999757,652.957265199977,652.940661599976,653.5184025999624,653.5184025999624,None,655.471926499973,None,left,0.7632777999388054,655.471926499973,None,656.2605647000019,None,left,0.6955456999130547,656.2605647000019,None,,,,,,,,,,,,,,,,,,,,,,,PPT08,001,2022-06-29_09h00.40.945,ABstudy,2022.1.4,59.903985899518084,
AB,Lag1_T1A_T2P,1,A,P,5,6,4,3,9,chimney,Did you see the chimney?,0.12,0.016,JPG\,cucumber,sponge01,alligator,pear01,ashtray01,stapler06,clock04,battery02b,fork03c,blankImage,blankImage,blankImage,blankImage,blankImage,blankImage,blankImage,blankImage,trophy01,,,,,,,,,,,,0,33,33,246,,,,,,,,,,,,,,,,,,,,,,,,,,,,,,,,,,,656.9826188000152,657.9957333999919,657.9790333999554,658.553170899977,658.553170899977,None,659.7225560999941,None,right,1.1208710999926552,659.7225560999941,None,660.8649091999978,None,left,0.36352170002646744,660.8649091999978,None,,,,,,,,,,,,,,,,,,,,,,,PPT08,001,2022-06-29_09h00.40.945,ABstudy,2022.1.4,59.903985899518084,
AB,Lag1_T1P_T2P,1,P,P,8,9,7,4,13,Doughnut,Did you see the Doughnut?,0.12,0.016,JPG\,brick,eraser,cucumber,ashtray01,thermometer02b,binoculars01b,lipstick02a,donut,stapler01,brownsugar,battery02b,iron01b,dice05a,blankImage,blankImage,blankImage,blankImage,donut,,,,,,,,,,,,0,34,34,39,,,,,,,,,,,,,,,,,,,,,,,,,,,,,,,,,,,661.2509777999949,662.2663023999194,662.2329396000132,662.8178060000064,662.8178060000064,None,664.4223298999714,None,right,5.220775799942203,664.4223298999714,None,669.6739116999088,None,left,0.9453056000638753,669.6739116999088,None,,,,,,,,,,,,,,,,,,,,,,,PPT08,001,2022-06-29_09h00.40.945,ABstudy,2022.1.4,59.903985899518084,
AB,Lag5_T1P_T2P,5,P,P,8,13,7,4,17,surf board,Did you see the surf board?,0.12,0.016,JPG\,candy,brownsugar,dice05a,cd,sock01a,blueberry01,button01,surfboard,feather03a,grape01,dandelion,scissors01,stapler03b,candle08b,book01b,globe,blankImage,surfboard,,,,,,,,,,,,0,35,35,142,,,,,,,,,,,,,,,,,,,,,,,,,,,,,,,,,,,670.6483751999913,671.6592123999726,671.6425294999499,672.2480071999598,672.2480071999598,None,674.1968630999327,None,left,2.51882040000055,674.1968630999327,None,676.747504399973,None,left,0.4161761000286788,676.747504399973,None,,,,,,,,,,,,,,,,,,,,,,,PPT08,001,2022-06-29_09h00.40.945,ABstudy,2022.1.4,59.903985899518084,
AB,Lag1_T1P_T2A,1,P,A,6,7,5,4,11,Road,Did you see the Road?,0.12,0.016,JPG\,pizza,printer02,medal02b,spoon01,grape01,road02,belt02a,watermelon01,celery,battery02b,screw02,blankImage,blankImage,blankImage,blankImage,blankImage,blankImage,road02,,,,,,,,,,,,0,36,36,174,,,,,,,,,,,,,,,,,,,,,,,,,,,,,,,,,,,677.1864620000124,678.1989599999506,678.1822721000062,678.7774848999688,678.7774848999688,None,680.1312218999956,None,right,3.808111499994993,680.1312218999956,None,683.971209499985,None,left,0.5601537999464199,683.971209499985,None,,,,,,,,,,,,,,,,,,,,,,,PPT08,001,2022-06-29_09h00.40.945,ABstudy,2022.1.4,59.903985899518084,
AB,Lag1_T1P_T2P,1,P,P,6,7,5,4,11,no parking sign,Did you see the no parking sign?,0.12,0.016,JPG\,fork03c,belt02a,grape01,computerkeyboard02,lemon02,parkingsign,stapler05,toiletpaper01a,toaster01,lipstick02a,book01b,blankImage,blankImage,blankImage,blankImage,blankImage,blankImage,parkingsign,,,,,,,,,,,,0,37,37,47,,,,,,,,,,,,,,,,,,,,,,,,,,,,,,,,,,,684.5597521999152,685.5727740000002,685.5561258000089,686.1733391999733,686.1733391999733,None,687.4900625000009,None,left,1.0333505999296904,687.4900625000009,None,688.5426202999661,None,left,0.6044964999891818,688.5426202999661,None,,,,,,,,,,,,,,,,,,,,,,,PPT08,001,2022-06-29_09h00.40.945,ABstudy,2022.1.4,59.903985899518084,
AB,Lag5_T1P_T2A,5,P,A,7,12,6,5,17,shoulder,Did you see the shoulder?,0.12,0.016,JPG\,battery02b,sunglasses04,pear01,tennisball01b,clock01a,speaker04,shoulder,spoon01,alligator,pineapple01a,avocado01,grape01,blueberry01,violin,strawberry,sock01a,blankImage,shoulder,,,,,,,,,,,,0,38,38,224,,,,,,,,,,,,,,,,,,,,,,,,,,,,,,,,,,,689.1802961999783,690.1947476000059,690.1775903999805,690.7671934999526,690.7671934999526,None,692.7239446999738,None,left,1.1265847999602556,692.7239446999738,None,693.8817954999395,None,right,0.2415402999613434,693.8817954999395,None,,,,,,,,,,,,,,,,,,,,,,,PPT08,001,2022-06-29_09h00.40.945,ABstudy,2022.1.4,59.903985899518084,
AB,Lag5_T1P_T2A,5,P,A,8,13,7,5,18,telescope,Did you see the telescope?,0.12,0.016,JPG\,globe,broccoli01a,binoculars01b,iron01b,avocado01,dandelion,pineapple01a,handheldtelescope,fan,pizza,celery,blueberry01,sewingmachine01a,dice05a,watermelon01,candy,blankImage,handheldtelescope,,,,,,,,,,,,0,39,39,228,,,,,,,,,,,,,,,,,,,,,,,,,,,,,,,,,,,694.156872499967,695.165661499952,695.1489262999967,695.7501861999044,695.7501861999044,None,697.7213430999545,None,left,2.009151800069958,697.7213430999545,None,699.7536854000064,None,right,0.3777014999650419,699.7536854000064,None,,,,,,,,,,,,,,,,,,,,,,,PPT08,001,2022-06-29_09h00.40.945,ABstudy,2022.1.4,59.903985899518084,
AB,Lag1_T1P_T2A,1,P,A,5,6,4,5,11,Moon,Did you see the Moon?,0.12,0.016,JPG\,lamp04a,broccoli01a,alligator,garlic01a,moon,brownsugar,avocado01,ring01,leaf02a,cellphone,medal02b,blankImage,blankImage,blankImage,blankImage,blankImage,blankImage,moon,,,,,,,,,,,,0,40,40,190,,,,,,,,,,,,,,,,,,,,,,,,,,,,,,,,,,,700.1574175999267,701.1718816999346,701.13845879992,701.720089099952,701.720089099952,None,703.0534809000092,None,right,2.8532538999570534,703.0534809000092,None,705.9266951999161,None,right,0.3245372000383213,705.9266951999161,None,,,,,,,,,,,,,,,,,,,,,,,PPT08,001,2022-06-29_09h00.40.945,ABstudy,2022.1.4,59.903985899518084,
AB,Lag1_T1P_T2P,1,P,P,5,6,4,3,9,mail box,Did you see the mail box?,0.12,0.016,JPG\,watermelon01,banana01,ring01,pencil01,mailbox02,stapler04b,cucumber,thermometer02b,key01,blankImage,blankImage,blankImage,blankImage,blankImage,blankImage,blankImage,blankImage,mailbox02,,,,,,,,,,,,0,41,41,21,,,,,,,,,,,,,,,,,,,,,,,,,,,,,,,,,,,706.3244174999418,707.3279320999281,707.3112384999404,707.9125041000079,707.9125041000079,None,708.9268856999697,None,left,0.8761963000288233,708.9268856999697,None,709.8313937999774,None,left,0.25156450003851205,709.8313937999774,None,,,,,,,,,,,,,,,,,,,,,,,PPT08,001,2022-06-29_09h00.40.945,ABstudy,2022.1.4,59.903985899518084,
AB,Lag1_T1A_T2P,1,A,P,8,9,7,3,12,seal,Did you see the seal?,0.12,0.016,JPG\,dice05a,watch02a,pig,lighter01,button01,strawberry,paintbrush01,microscope,stapler03a,pen04b,feather03a,8ball,blankImage,blankImage,blankImage,blankImage,blankImage,hockeystick,,,,,,,,,,,,0,42,42,235,,,,,,,,,,,,,,,,,,,,,,,,,,,,,,,,,,,710.1220380999148,711.1320997999283,711.1155086999061,711.7126898999559,711.7126898999559,None,713.1551077999175,None,left,5.8561009000986814,713.1551077999175,None,719.0394661999308,None,left,0.2116947000613436,719.0394661999308,None,,,,,,,,,,,,,,,,,,,,,,,PPT08,001,2022-06-29_09h00.40.945,ABstudy,2022.1.4,59.903985899518084,
AB,Lag1_T1P_T2P,1,P,P,8,9,7,4,13,Hula hoop,Did you see the Hula hoop?,0.12,0.016,JPG\,brownsugar,candle01,match,printer02,broom01,balloon01b,belt02a,hulahoop,stapler04b,feather03a,rice,mushroom01,pencil01,blankImage,blankImage,blankImage,blankImage,hulahoop,,,,,,,,,,,,0,43,43,64,,,,,,,,,,,,,,,,,,,,,,,,,,,,,,,,,,,719.3239105999237,720.3244094999973,720.3076698000077,720.8112246999517,720.8112246999517,None,722.409330299939,None,left,0.9773125000065193,722.409330299939,None,723.4104297999293,None,left,0.41603520000353456,723.4104297999293,None,,,,,,,,,,,,,,,,,,,,,,,PPT08,001,2022-06-29_09h00.40.945,ABstudy,2022.1.4,59.903985899518084,
AB,Lag5_T1P_T2A,5,P,A,8,13,7,5,18,Nunchuks,Did you see the Nunchuks?,0.12,0.016,JPG\,celery,tennisball01b,calculator01,pear01,screw02,orange,button01,nunchuk,onion,apple07,iron01b,brownsugar,banana01,paintbrush01,dandelion,toothbrush03b,blankImage,nunchuk,,,,,,,,,,,,0,44,44,218,,,,,,,,,,,,,,,,,,,,,,,,,,,,,,,,,,,723.8489095999394,724.8618507999927,724.8451668999624,725.4205779999029,725.4205779999029,None,727.3416963999625,None,left,6.500898899976164,727.3416963999625,None,733.8706332999282,None,left,1.620055399951525,733.8706332999282,None,,,,,,,,,,,,,,,,,,,,,,,PPT08,001,2022-06-29_09h00.40.945,ABstudy,2022.1.4,59.903985899518084,
AB,Lag1_T1P_T2A,1,P,A,7,8,6,5,13,Well,Did you see the Well?,0.12,0.016,JPG\,leaf02a,apple07,cd,pineapple01a,envelope03a,paintbrush01,well,acorn,rice,feather03a,lemon02,balloon01b,avocado01,blankImage,blankImage,blankImage,blankImage,well,,,,,,,,,,,,0,45,45,178,,,,,,,,,,,,,,,,,,,,,,,,,,,,,,,,,,,735.522724499926,736.5232637999579,736.506608299911,737.0753468999173,737.0753468999173,None,738.7318242999027,None,right,3.5030978000722826,738.7318242999027,None,742.2625156999566,None,right,0.3963268999941647,742.2625156999566,None,,,,,,,,,,,,,,,,,,,,,,,PPT08,001,2022-06-29_09h00.40.945,ABstudy,2022.1.4,59.903985899518084,
AB,Lag5_T1A_T2P,5,A,P,6,11,5,3,14,saxophone,Did you see the saxophone?,0.12,0.016,JPG\,globe,belt02a,sponge01,violin,fork03c,tomato01,clock01a,microscope,balloon01b,scarf,stapler03b,pen04b,brick,brownsugar,blankImage,blankImage,blankImage,microphone01,,,,,,,,,,,,0,46,46,267,,,,,,,,,,,,,,,,,,,,,,,,,,,,,,,,,,,742.7273746000137,743.7311859999318,743.7145538999466,744.3685073999222,744.3685073999222,None,745.866620899993,None,left,2.5210730000399053,745.866620899993,None,748.4186828999082,None,left,0.2963332999497652,748.4186828999082,None,,,,,,,,,,,,,,,,,,,,,,,PPT08,001,2022-06-29_09h00.40.945,ABstudy,2022.1.4,59.903985899518084,
AB,Lag1_T1P_T2A,1,P,A,5,6,4,5,11,Toaster oven,Did you see the Toaster oven?,0.12,0.016,JPG\,fork03c,toothbrush03b,cellphone,fan,toasteroven,clock01a,ring01,eraser,sunglasses04,thermometer02b,violin,blankImage,blankImage,blankImage,blankImage,blankImage,blankImage,toasteroven,,,,,,,,,,,,0,47,47,200,,,,,,,,,,,,,,,,,,,,,,,,,,,,,,,,,,,748.7402671999298,749.7532329999376,749.7366592999315,750.307103900006,750.307103900006,None,751.6861881999066,None,left,3.500936900032684,751.6861881999066,None,755.2093439999735,None,left,1.089718599920161,755.2093439999735,None,,,,,,,,,,,,,,,,,,,,,,,PPT08,001,2022-06-29_09h00.40.945,ABstudy,2022.1.4,59.903985899518084,
AB,Lag1_T1P_T2P,1,P,P,7,8,6,4,12,rooster,Did you see the rooster?,0.12,0.016,JPG\,pizza,strawberry,potato02b,speaker04,battery02b,iron01b,rooster,stapler03b,globe,banana01,medal02b,baseball01a,blankImage,blankImage,blankImage,blankImage,blankImage,rooster,,,,,,,,,,,,0,48,48,69,,,,,,,,,,,,,,,,,,,,,,,,,,,,,,,,,,,756.3269278999651,757.3277583000017,757.3105330999242,757.8862140999408,757.8862140999408,None,759.4169926999602,None,left,1.8428320999955758,759.4169926999602,None,761.2815684999805,None,left,0.2892722999677062,761.2815684999805,None,,,,,,,,,,,,,,,,,,,,,,,PPT08,001,2022-06-29_09h00.40.945,ABstudy,2022.1.4,59.903985899518084,
AB,Lag5_T1P_T2P,5,P,P,5,10,4,5,15,Ipad,Did you see the Ipad?,0.12,0.016,JPG\,fork03c,toothbrush03b,cellphone,fan,ipad02,clock01a,ring01,eraser,sunglasses04,stapler06,violin,brownsugar,blueberry01,pear01,pencil01,blankImage,blankImage,ipad02,,,,,,,,,,,,0,49,49,150,,,,,,,,,,,,,,,,,,,,,,,,,,,,,,,,,,,761.6074891999597,762.6162724999012,762.5995619999012,763.1757659999421,763.1757659999421,None,765.0798152999487,None,left,0.5711994000012055,765.0798152999487,None,765.6691653999733,None,left,0.2452097999630496,765.6691653999733,None,,,,,,,,,,,,,,,,,,,,,,,PPT08,001,2022-06-29_09h00.40.945,ABstudy,2022.1.4,59.903985899518084,
AB,Lag5_T1P_T2P,5,P,P,7,12,6,5,17,flower,Did you see the flower?,0.12,0.016,JPG\,leaf02a,pear01,measuringcup01,cigarette,fan,lemon02,lily,tableknife02,ring01,pencil01,cellphone,stapler01,carrot01,binoculars01b,sock01a,book01b,blankImage,lily,,,,,,,,,,,,0,50,50,134,,,,,,,,,,,,,,,,,,,,,,,,,,,,,,,,,,,765.9407891998999,766.9542311999248,766.9376235000091,767.5226965999464,767.5226965999464,None,769.4447684999323,None,left,1.0217751000309363,769.4447684999323,None,770.4905933999689,None,left,0.6080217000562698,770.4905933999689,None,,,,,,,,,,,,,,,,,,,,,,,PPT08,001,2022-06-29_09h00.40.945,ABstudy,2022.1.4,59.903985899518084,
AB,Lag5_T1P_T2P,5,P,P,5,10,4,5,15,sword fish,Did you see the sword fish?,0.12,0.016,JPG\,scissors01,balloon01b,eraser,feather03a,swordfish,candle01,measuringcup01,calculator01,thermometer02b,stapler04b,pear01,carrot01,globe,baseball01a,leaf02a,blankImage,blankImage,swordfish,,,,,,,,,,,,0,51,51,160,,,,,,,,,,,,,,,,,,,,,,,,,,,,,,,,,,,771.1267971999478,772.1422599999933,772.1088100000052,772.6882085999241,772.6882085999241,None,774.5425291999709,None,left,0.7397274000104517,774.5425291999709,None,775.3122631999431,None,left,0.2900843999814242,775.3122631999431,None,,,,,,,,,,,,,,,,,,,,,,,PPT08,001,2022-06-29_09h00.40.945,ABstudy,2022.1.4,59.903985899518084,
AB,Lag1_T1A_T2A,1,A,A,5,6,4,4,10,rose,Did you see the rose?,0.12,0.016,JPG\,sock01a,spoon01,alligator,comb02a,printer02,medal02b,lamp04a,cymbal,greenolive,computerkeyboard02,blankImage,blankImage,blankImage,blankImage,blankImage,blankImage,blankImage,cruiseship,,,,,,,,,,,,0,52,52,293,,,,,,,,,,,,,,,,,,,,,,,,,,,,,,,,,,,775.6326453000074,776.6468177000061,776.6135369999101,777.20928369998,777.20928369998,None,778.3941848999821,None,right,1.7366144999396056,778.3941848999821,None,780.1503548999317,None,right,0.32456249999813735,780.1503548999317,None,,,,,,,,,,,,,,,,,,,,,,,PPT08,001,2022-06-29_09h00.40.945,ABstudy,2022.1.4,59.903985899518084,
AB,Lag5_T1P_T2P,5,P,P,6,11,5,3,14,fish,Did you see the fish?,0.12,0.016,JPG\,broom01,globe,cellphone,tableknife02,cauliflower01,holdfast,ring01,alligator,rice,toaster01,stapler03b,grape01,microscope,cucumber,blankImage,blankImage,blankImage,holdfast,,,,,,,,,,,,0,53,53,133,,,,,,,,,,,,,,,,,,,,,,,,,,,,,,,,,,,780.5040457999567,781.5183858999517,781.4850680999225,782.0804560999386,782.0804560999386,None,783.8059004999232,None,left,1.5403889000881463,783.8059004999232,None,785.3721121000126,None,left,0.6957742000231519,785.3721121000126,None,,,,,,,,,,,,,,,,,,,,,,,PPT08,001,2022-06-29_09h00.40.945,ABstudy,2022.1.4,59.903985899518084,
AB,Lag1_T1P_T2A,1,P,A,5,6,4,4,10,flower,Did you see the flower?,0.12,0.016,JPG\,broom01,globe,cellphone,tableknife02,daffodil,scissors01,ring01,alligator,rice,toaster01,blankImage,blankImage,blankImage,blankImage,blankImage,blankImage,blankImage,daffodil,,,,,,,,,,,,0,54,54,184,,,,,,,,,,,,,,,,,,,,,,,,,,,,,,,,,,,786.0910496999277,787.0904288999736,787.07379699999,787.6521678999998,787.6521678999998,None,788.8624297999777,None,left,1.2759532999480143,788.8624297999777,None,790.1603090999415,None,right,0.3222693999996409,790.1603090999415,None,,,,,,,,,,,,,,,,,,,,,,,PPT08,001,2022-06-29_09h00.40.945,ABstudy,2022.1.4,59.903985899518084,
AB,Lag1_T1P_T2P,1,P,P,8,9,7,5,14,helicopter,Did you see the helicopter?,0.12,0.016,JPG\,broom01,globe,cellphone,tableknife02,cauliflower01,scissors01,ring01,helicopter,stapler01,toaster01,cigarette,grape01,microscope,cucumber,blankImage,blankImage,blankImage,helicopter,,,,,,,,,,,,0,55,55,85,,,,,,,,,,,,,,,,,,,,,,,,,,,,,,,,,,,790.5171402000124,791.528419499984,791.5118388999254,792.1366448999615,792.1366448999615,None,793.8572818000102,None,left,0.7211949999909848,793.8572818000102,None,794.5979080999969,None,left,1.7966574999736622,794.5979080999969,None,,,,,,,,,,,,,,,,,,,,,,,PPT08,001,2022-06-29_09h00.40.945,ABstudy,2022.1.4,59.903985899518084,
AB,Lag5_T1P_T2P,5,P,P,7,12,6,5,17,tie,Did you see the tie?,0.12,0.016,JPG\,iron01b,orange,birthdaycandle,potato02b,cauliflower01,pencil01,tie02,candle08b,celery,tableknife02,pen04b,stapler06,ring01,rice,lemon02,tomato01,blankImage,tie02,,,,,,,,,,,,0,56,56,161,,,,,,,,,,,,,,,,,,,,,,,,,,,,,,,,,,,796.4188985999208,797.434105399996,797.4007242999505,797.9788081999868,797.9788081999868,None,799.9677574000088,None,left,1.2826048999559134,799.9677574000088,None,801.2711627999088,None,left,1.428009400027804,801.2711627999088,None,,,,,,,,,,,,,,,,,,,,,,,PPT08,001,2022-06-29_09h00.40.945,ABstudy,2022.1.4,59.903985899518084,
AB,Lag5_T1P_T2P,5,P,P,7,12,6,3,15,Rollerblade,Did you see the Rollerblade?,0.12,0.016,JPG\,hammer01,sponge01,toaster01,cherry01,feather03a,mushroom01,rollerblade,pencil01,tennisball01b,brick,clock04,stapler06,teabag,garlic01a,envelope03a,blankImage,blankImage,rollerblade,,,,,,,,,,,,0,57,57,116,,,,,,,,,,,,,,,,,,,,,,,,,,,,,,,,,,,802.7259495999897,803.7404274999863,803.7237115999451,804.353707299917,804.2814213999081,None,806.1409524999326,None,left,0.6535949000390247,806.1409524999326,None,806.8267885999521,None,left,0.2957070000702515,806.8267885999521,None,,,,,,,,,,,,,,,,,,,,,,,PPT08,001,2022-06-29_09h00.40.945,ABstudy,2022.1.4,59.903985899518084,
AB,Lag1_T1A_T2P,1,A,P,5,6,4,5,11,rake,Did you see the rake?,0.12,0.016,JPG\,candy,brownsugar,dice05a,cd,sock01a,stapler01,button01,potato02b,feather03a,grape01,dandelion,blankImage,blankImage,blankImage,blankImage,blankImage,blankImage,greatwhiteshark,,,,,,,,,,,,0,58,58,256,,,,,,,,,,,,,,,,,,,,,,,,,,,,,,,,,,,807.1466962000122,808.1616331000114,808.1283400999382,808.7274392999243,808.7274392999243,None,809.9851776999421,None,left,0.689645400037989,809.9851776999421,None,810.6974666999886,None,left,0.416520299972035,810.6974666999886,None,,,,,,,,,,,,,,,,,,,,,,,PPT08,001,2022-06-29_09h00.40.945,ABstudy,2022.1.4,59.903985899518084,
AB,Lag1_T1P_T2P,1,P,P,7,8,6,5,13,school bus,Did you see the school bus?,0.12,0.016,JPG\,aceofdiamond,banana01,scissors01,pig,shirt02,leaf02a,schoolbus,stapler05,fork03c,tableknife02,balloon01b,match,toothbrush03b,blankImage,blankImage,blankImage,blankImage,schoolbus,,,,,,,,,,,,0,59,59,24,,,,,,,,,,,,,,,,,,,,,,,,,,,,,,,,,,,811.1317452999065,812.1322141999844,812.1155094999122,812.7288229999831,812.7288229999831,None,814.2857040999224,None,left,0.8047604000894353,814.2857040999224,None,815.1182608999079,None,left,1.3401504999492317,815.1182608999079,None,,,,,,,,,,,,,,,,,,,,,,,PPT08,001,2022-06-29_09h00.40.945,ABstudy,2022.1.4,59.903985899518084,
AB,Lag1_T1P_T2P,1,P,P,8,9,7,3,12,snow globe,Did you see the Snow globe?,0.12,0.016,JPG\,eraser,measuringcup01,chain01,birthdaycandle,ring01,rice,8ball,stapler04b,stapler01,celery,microscope,sunglasses04,blankImage,blankImage,blankImage,blankImage,blankImage,snowglobe,,,,,,,,,,,,0,60,60,56,,,,,,,,,,,,,,,,,,,,,,,,,,,,,,,,,,,816.4885737999575,817.5043304999126,817.4706223999383,818.0477055999218,818.0477055999218,None,819.5485312999226,None,left,1.5099653000943363,819.5485312999226,None,821.0911200999981,None,left,0.30319899995811284,821.0911200999981,None,,,,,,,,,,,,,,,,,,,,,,,PPT08,001,2022-06-29_09h00.40.945,ABstudy,2022.1.4,59.903985899518084,
AB,Lag1_T1P_T2A,1,P,A,6,7,5,5,12,Barn,Did you see the Barn?,0.12,0.016,JPG\,celery,pencil01,fan,foosballtable,iron01b,barn,potato02b,fork03c,button01,pineapple01a,baseball01a,printer02,blankImage,blankImage,blankImage,blankImage,blankImage,barn,,,,,,,,,,,,0,61,61,181,,,,,,,,,,,,,,,,,,,,,,,,,,,,,,,,,,,821.4824013999896,822.4925724999048,822.4757867999142,823.0675912000006,823.0675912000006,None,824.4605570000131,None,left,0.7508287999080494,824.4605570000131,None,825.2285172999837,None,left,0.39776909991633147,825.2285172999837,None,,,,,,,,,,,,,,,,,,,,,,,PPT08,001,2022-06-29_09h00.40.945,ABstudy,2022.1.4,59.903985899518084,
AB,Lag1_T1A_T2A,1,A,A,8,9,7,3,12,punching bag,Did you see the punching bag?,0.12,0.016,JPG\,key01,apple07,ring01,leaf02a,hammer01,tableknife02,violin,sponge01,baseball01a,thermometer02b,celery,calculator01,blankImage,blankImage,blankImage,blankImage,blankImage,bathtub,,,,,,,,,,,,0,62,62,291,,,,,,,,,,,,,,,,,,,,,,,,,,,,,,,,,,,825.6525439999532,826.6633635999169,826.6466081999242,827.2361394999316,827.2361394999316,None,828.7409052000148,None,left,1.3651644000783563,828.7409052000148,None,830.1332369999727,None,right,0.17297549999784678,830.1332369999727,None,,,,,,,,,,,,,,,,,,,,,,,PPT08,001,2022-06-29_09h00.40.945,ABstudy,2022.1.4,59.903985899518084,
AB,Lag1_T1P_T2A,1,P,A,5,6,4,4,10,paper airplane,Did you see the paper airplane?,0.12,0.016,JPG\,thermometer02b,avocado01,scissors01,tennisball01b,paperairplane,banana01,strawberry,cigarette,potato02b,pineapple01a,blankImage,blankImage,blankImage,blankImage,blankImage,blankImage,blankImage,paperairplane,,,,,,,,,,,,0,63,63,191,,,,,,,,,,,,,,,,,,,,,,,,,,,,,,,,,,,830.3376302999677,831.351203499944,831.3344583999133,831.9135505999438,831.9135505999438,None,833.1464729999425,None,left,1.5512977000325918,833.1464729999425,None,834.7212740000105,None,left,1.3846239999402314,834.7212740000105,None,,,,,,,,,,,,,,,,,,,,,,,PPT08,001,2022-06-29_09h00.40.945,ABstudy,2022.1.4,59.903985899518084,
AB,Lag5_T1P_T2P,5,P,P,6,11,5,4,15,Witch hat,Did you see the Witch hat?,0.12,0.016,JPG\,pizza,watch02a,greenolive,cucumber,match,witchhat,scissors01,broom01,globe,cherry01,stapler03a,cigarette,microscope,cellphone,speaker04,blankImage,blankImage,witchhat,,,,,,,,,,,,0,64,64,101,,,,,,,,,,,,,,,,,,,,,,,,,,,,,,,,,,,836.1278490999248,837.1404895999003,837.1237569999648,837.7101972999517,837.7101972999517,None,839.5608584999572,None,left,0.48976050002966076,839.5608584999572,None,840.0766639999347,None,left,0.29480799997691065,840.0766639999347,None,,,,,,,,,,,,,,,,,,,,,,,PPT08,001,2022-06-29_09h00.40.945,ABstudy,2022.1.4,59.903985899518084,
AB,Lag1_T1P_T2P,1,P,P,5,6,4,5,11,candy cane,Did you see the candy cane?,0.12,0.016,JPG\,shirt02,match,screw02,foosballtable,candycane01a,stapler04b,sewingmachine01a,watch02a,button01,comb02a,dice05a,blankImage,blankImage,blankImage,blankImage,blankImage,blankImage,candycane01a,,,,,,,,,,,,0,65,65,9,,,,,,,,,,,,,,,,,,,,,,,,,,,,,,,,,,,840.3990128999576,841.4112908999668,841.3947112999158,841.9907218998997,841.9907218998997,None,843.2809380999533,None,left,0.5217221999773756,843.2809380999533,None,843.8302752999589,None,left,0.2852773000486195,843.8302752999589,None,,,,,,,,,,,,,,,,,,,,,,,PPT08,001,2022-06-29_09h00.40.945,ABstudy,2022.1.4,59.903985899518084,
AB,Lag1_T1P_T2P,1,P,P,7,8,6,3,11,harmonica,Did you see the harmonica?,0.12,0.016,JPG\,cucumber,ring01,lipstick02a,microscope,violin,garlic01a,harmonica,stapler03b,cherry01,sewingmachine01a,belt02a,blankImage,blankImage,blankImage,blankImage,blankImage,blankImage,harmonica,,,,,,,,,,,,0,66,66,43,,,,,,,,,,,,,,,,,,,,,,,,,,,,,,,,,,,844.1494485998992,845.1648593000136,845.131547799916,845.7084864999633,845.7084864999633,None,847.0909472999629,None,left,0.7756974999792874,847.0909472999629,None,847.8842553999275,None,left,0.2617747999029234,847.8842553999275,None,,,,,,,,,,,,,,,,,,,,,,,PPT08,001,2022-06-29_09h00.40.945,ABstudy,2022.1.4,59.903985899518084,
AB,Lag1_T1P_T2P,1,P,P,6,7,5,3,10,cupcake,Did you see the cupcake?,0.12,0.016,JPG\,printer02,leaf02a,cauliflower01,sock01a,brownsugar,cupcake,stapler01,orange,belt02a,shirt02,blankImage,blankImage,blankImage,blankImage,blankImage,blankImage,blankImage,cupcake,,,,,,,,,,,,0,67,67,38,,,,,,,,,,,,,,,,,,,,,,,,,,,,,,,,,,,848.171743099927,849.1856030999916,849.168852499919,849.7546240999363,849.7546240999363,None,850.9435865000123,None,left,0.7227462999289855,850.9435865000123,None,851.6881213999586,None,left,0.3063243000069633,851.6881213999586,None,,,,,,,,,,,,,,,,,,,,,,,PPT08,001,2022-06-29_09h00.40.945,ABstudy,2022.1.4,59.903985899518084,
AB,Lag1_T1A_T2P,1,A,P,7,8,6,5,13,Ant,Did you see the Ant?,0.12,0.016,JPG\,rice,watermelon01,tableknife02,scarf,computerkeyboard02,cauliflower01,battery02b,stapler03b,book01b,sandal,sponge01,microscope,tomato01,blankImage,blankImage,blankImage,blankImage,sandcastle,,,,,,,,,,,,0,68,68,242,,,,,,,,,,,,,,,,,,,,,,,,,,,,,,,,,,,852.0307867999654,853.0393677999964,853.0226695999736,853.6003531999886,853.6003531999886,None,855.2142529999837,None,right,1.1159972000168636,855.2142529999837,None,856.3596716999309,None,left,0.5143637999426574,856.3596716999309,None,,,,,,,,,,,,,,,,,,,,,,,PPT08,001,2022-06-29_09h00.40.945,ABstudy,2022.1.4,59.903985899518084,
AB,Lag1_T1A_T2P,1,A,P,7,8,6,3,11,Fox,Did you see the Fox?,0.12,0.016,JPG\,toaster01,chain01,sponge01,baseball01a,carrot01,belt02a,book01b,stapler03b,grape01,brick,celery,blankImage,blankImage,blankImage,blankImage,blankImage,blankImage,fingerprint,,,,,,,,,,,,0,69,69,234,,,,,,,,,,,,,,,,,,,,,,,,,,,,,,,,,,,856.8959678999381,857.9111875999952,857.8778384999605,858.4604908999754,858.4604908999754,None,859.7789953999454,None,right,1.0471185999922454,859.7789953999454,None,860.8473190999357,None,left,0.7001786000328138,860.8473190999357,None,,,,,,,,,,,,,,,,,,,,,,,PPT08,001,2022-06-29_09h00.40.945,ABstudy,2022.1.4,59.903985899518084,
AB,Lag5_T1P_T2P,5,P,P,6,11,5,5,16,Car,Did you see the Car?,0.12,0.016,JPG\,leaf02a,apple07,cd,pineapple01a,envelope03a,car,pig,canoftennisballs,rice,feather03a,stapler03a,balloon01b,avocado01,calculator01,watermelon01,teabag,blankImage,car,,,,,,,,,,,,0,70,70,127,,,,,,,,,,,,,,,,,,,,,,,,,,,,,,,,,,,861.5696590999141,862.5825292000081,862.5658041000133,863.16025909991,863.16025909991,None,865.0920091998996,None,left,0.678292499971576,865.0920091998996,None,865.8021666000132,None,left,0.8561428999528289,865.8021666000132,None,,,,,,,,,,,,,,,,,,,,,,,PPT08,001,2022-06-29_09h00.40.945,ABstudy,2022.1.4,59.903985899518084,
AB,Lag1_T1P_T2A,1,P,A,8,9,7,4,13,boat,Did you see the boat?,0.12,0.016,JPG\,fork03c,dandelion,dice05a,belt02a,onion,watch02a,key01,boat,eraser,medal02b,greenolive,shirt02,candle08b,blankImage,blankImage,blankImage,blankImage,boat,,,,,,,,,,,,0,71,71,199,,,,,,,,,,,,,,,,,,,,,,,,,,,,,,,,,,,866.6895097999368,867.7041203000117,867.670713200001,868.2770663999254,868.2770663999254,None,869.8575576998992,None,right,1.7450795999029651,869.8575576998992,None,871.6247484999476,None,left,0.4256819000001997,871.6247484999476,None,,,,,,,,,,,,,,,,,,,,,,,PPT08,001,2022-06-29_09h00.40.945,ABstudy,2022.1.4,59.903985899518084,
AB,Lag1_T1P_T2P,1,P,P,8,9,7,4,13,kite,Did you see the kite?,0.12,0.016,JPG\,scissors01,balloon01b,eraser,feather03a,banana01,candle01,measuringcup01,kite,stapler04b,strawberry,pear01,carrot01,globe,blankImage,blankImage,blankImage,blankImage,kite,,,,,,,,,,,,0,72,72,17,,,,,,,,,,,,,,,,,,,,,,,,,,,,,,,,,,,872.0778846999165,873.0926741999574,873.0594836999662,873.6332166999346,873.6332166999346,None,875.2421544999816,None,left,0.7214736000169069,875.2421544999816,None,875.9956924999133,None,left,0.27873840008396655,875.9956924999133,None,,,,,,,,,,,,,,,,,,,,,,,PPT08,001,2022-06-29_09h00.40.945,ABstudy,2022.1.4,59.903985899518084,
AB,Lag5_T1A_T2P,5,A,P,6,11,5,4,15,fish,Did you see the fish?,0.12,0.016,JPG\,pingpongpaddle01c,banana01,scissors01,pig,shirt02,leaf02a,pear01,sponge01,fork03c,tableknife02,stapler03a,match,toothbrush03b,birthdaycandle,candle01,blankImage,blankImage,lighthouse,,,,,,,,,,,,0,73,73,265,,,,,,,,,,,,,,,,,,,,,,,,,,,,,,,,,,,876.3001641998999,877.3137774999486,877.2969966999954,877.952787999995,877.8777858999092,None,879.6809414000018,None,right,1.6730081998975947,879.6809414000018,None,881.3843602999114,None,left,0.6975263000931591,881.3843602999114,None,,,,,,,,,,,,,,,,,,,,,,,PPT08,001,2022-06-29_09h00.40.945,ABstudy,2022.1.4,59.903985899518084,
AB,Lag1_T1P_T2A,1,P,A,7,8,6,4,12,gate,Did you see the gate?,0.12,0.016,JPG\,pen04b,speaker04,lighter01,cherry01,pintofbeer,onion,entrancegate,toothbrush03b,broom01,sewingmachine01a,book01b,iron01b,blankImage,blankImage,blankImage,blankImage,blankImage,entrancegate,,,,,,,,,,,,0,74,74,187,,,,,,,,,,,,,,,,,,,,,,,,,,,,,,,,,,,882.105175799923,883.1194662000053,883.085993799963,883.6637061999645,883.6637061999645,None,885.1181953999912,None,left,0.9393729999428615,885.1181953999912,None,886.0886915998999,None,left,0.2888800000073388,886.0886915998999,None,,,,,,,,,,,,,,,,,,,,,,,PPT08,001,2022-06-29_09h00.40.945,ABstudy,2022.1.4,59.903985899518084,
AB,Lag1_T1A_T2P,1,A,P,8,9,7,4,13,nose,Did you see the nose?,0.12,0.016,JPG\,pizza,strawberry,potato02b,speaker04,battery02b,iron01b,dice05a,cellphone,stapler06,banana01,medal02b,baseball01a,toaster01,blankImage,blankImage,blankImage,blankImage,cow,,,,,,,,,,,,0,75,75,231,,,,,,,,,,,,,,,,,,,,,,,,,,,,,,,,,,,886.4065297999186,887.4066894999705,887.3899793999735,887.9823056999594,887.9823056999594,None,889.6126273999689,None,right,1.2308612000197172,889.6126273999689,None,890.8603420999134,None,left,0.535077599924989,890.8603420999134,None,,,,,,,,,,,,,,,,,,,,,,,PPT08,001,2022-06-29_09h00.40.945,ABstudy,2022.1.4,59.903985899518084,
AB,Lag5_T1A_T2P,5,A,P,7,12,6,4,16,scooter,Did you see the scooter?,0.12,0.016,JPG\,cigarette,pig,banana01,strawberry,clock01a,plate01b,spoon01,blueberry01,battery02b,pineapple01a,chain01,stapler05,candy,pen04b,teabag,birthdaycandle,blankImage,1nose,,,,,,,,,,,,0,76,76,268,,,,,,,,,,,,,,,,,,,,,,,,,,,,,,,,,,,891.4303251999663,892.445418599993,892.4121036999859,892.9943089999724,892.9943089999724,None,894.864735399955,None,left,2.8419702999526635,894.864735399955,None,897.7337642000057,None,left,0.5799892999930307,897.7337642000057,None,,,,,,,,,,,,,,,,,,,,,,,PPT08,001,2022-06-29_09h00.40.945,ABstudy,2022.1.4,59.903985899518084,
AB,Lag5_T1P_T2A,5,P,A,6,11,5,3,14,Balcony,Did you see the Balcony?,0.12,0.016,JPG\,tomato01,pen04b,shirt02,carrot01,lamp04a,balcony02,pizza,avocado01,sewingmachine01a,apple07,iron01b,book01b,chain01,sock01a,blankImage,blankImage,blankImage,balcony02,,,,,,,,,,,,0,77,77,207,,,,,,,,,,,,,,,,,,,,,,,,,,,,,,,,,,,898.3367063999176,899.3520889999345,899.318998600007,899.9416580999969,899.9416580999969,None,901.6127103999024,None,right,1.078069799928926,901.6127103999024,None,902.7223378999624,None,left,0.415818199981004,902.7223378999624,None,,,,,,,,,,,,,,,,,,,,,,,PPT08,001,2022-06-29_09h00.40.945,ABstudy,2022.1.4,59.903985899518084,
AB,Lag1_T1A_T2P,1,A,P,7,8,6,5,13,Horseshoe,Did you see the Horseshoe?,0.12,0.016,JPG\,leaf02a,apple07,cd,pineapple01a,envelope03a,paintbrush01,pig,stapler06,rice,feather03a,lemon02,balloon01b,avocado01,blankImage,blankImage,blankImage,blankImage,rooster,,,,,,,,,,,,0,78,78,241,,,,,,,,,,,,,,,,,,,,,,,,,,,,,,,,,,,903.1626999999862,904.1738348999061,904.1571040999843,904.7376590999775,904.7376590999775,None,906.2999186000088,None,right,1.374420200008899,906.2999186000088,None,907.6937291999348,None,left,0.8856518000829965,907.6937291999348,None,,,,,,,,,,,,,,,,,,,,,,,PPT08,001,2022-06-29_09h00.40.945,ABstudy,2022.1.4,59.903985899518084,
AB,Lag1_T1P_T2P,1,P,P,7,8,6,4,12,trophy,Did you see the trophy?,0.12,0.016,JPG\,cherry01,cymbal,envelope03a,foosballtable,shirt02,cellphone,trophy01,stapler04b,battery02b,apple07,pencil01,screwdriver04b,blankImage,blankImage,blankImage,blankImage,blankImage,trophy01,,,,,,,,,,,,0,79,79,74,,,,,,,,,,,,,,,,,,,,,,,,,,,,,,,,,,,908.6142629999667,909.6290408999193,909.5955883999122,910.185616599978,910.185616599978,None,911.6557285999879,None,right,2.634393399930559,911.6557285999879,None,914.3169851999264,None,left,0.3329171999357641,914.3169851999264,None,,,,,,,,,,,,,,,,,,,,,,,PPT08,001,2022-06-29_09h00.40.945,ABstudy,2022.1.4,59.903985899518084,
AB,Lag1_T1P_T2P,1,P,P,5,6,4,3,9,Escalator,Did you see the Escalator?,0.12,0.016,JPG\,celery,pencil01,fan,foosballtable,escalator,stapler05,potato02b,fork03c,button01,blankImage,blankImage,blankImage,blankImage,blankImage,blankImage,blankImage,blankImage,escalator,,,,,,,,,,,,0,80,80,82,,,,,,,,,,,,,,,,,,,,,,,,,,,,,,,,,,,914.710410599946,915.7186219999567,915.6852404999081,916.2799084999133,916.2799084999133,None,917.3944419999607,None,left,0.511961100040935,917.3944419999607,None,917.937165100011,None,left,0.2572538999374956,917.937165100011,None,,,,,,,,,,,,,,,,,,,,,,,PPT08,001,2022-06-29_09h00.40.945,ABstudy,2022.1.4,59.903985899518084,
AB,Lag1_T1P_T2P,1,P,P,5,6,4,3,9,Pumpkin,Did you see the Pumpkin?,0.12,0.016,JPG\,binoculars01b,speaker04,sandal,envelope03a,pumpkin,stapler03b,battery02b,chain01,measuringcup01,blankImage,blankImage,blankImage,blankImage,blankImage,blankImage,blankImage,blankImage,pumpkin,,,,,,,,,,,,0,81,81,23,,,,,,,,,,,,,,,,,,,,,,,,,,,,,,,,,,,918.2236896000104,919.2385411999421,919.2051780999172,919.8051959999138,919.8051959999138,None,920.9061379999621,None,left,0.432022999972105,920.9061379999621,None,921.3573374999687,None,left,0.26877550000790507,921.3573374999687,None,,,,,,,,,,,,,,,,,,,,,,,PPT08,001,2022-06-29_09h00.40.945,ABstudy,2022.1.4,59.903985899518084,
AB,Lag1_T1A_T2P,1,A,P,8,9,7,3,12,porcupine,Did you see the porcupine?,0.12,0.016,JPG\,celery,orange,scissors01,balloon01b,avocado01,printer02,mushroom01,sewingmachine01a,stapler01,dice05a,ashtray01,fan,blankImage,blankImage,blankImage,blankImage,blankImage,drumstick,,,,,,,,,,,,0,82,82,233,,,,,,,,,,,,,,,,,,,,,,,,,,,,,,,,,,,921.6607778999023,922.6752211999847,922.6585417999886,923.3055194999324,923.228368400014,None,924.7461586999707,None,left,0.5768031999468803,924.7461586999707,None,925.3447358999401,None,left,0.2652156000258401,925.3447358999401,None,,,,,,,,,,,,,,,,,,,,,,,PPT08,001,2022-06-29_09h00.40.945,ABstudy,2022.1.4,59.903985899518084,
AB,Lag1_T1P_T2P,1,P,P,5,6,4,3,9,kangaroo,Did you see the kangaroo?,0.12,0.016,JPG\,candle01,shirt02,brick,orange,kangaroo,stapler03a,pizza,thermometer02b,book01b,blankImage,blankImage,blankImage,blankImage,blankImage,blankImage,blankImage,blankImage,kangaroo,,,,,,,,,,,,0,83,83,16,,,,,,,,,,,,,,,,,,,,,,,,,,,,,,,,,,,925.6332725000102,926.6460995000089,926.6294237999246,927.2172684000107,927.2172684000107,None,928.3233774999389,None,left,0.4146457000169903,928.3233774999389,None,928.7646836999338,None,left,0.22906010004226118,928.7646836999338,None,,,,,,,,,,,,,,,,,,,,,,,PPT08,001,2022-06-29_09h00.40.945,ABstudy,2022.1.4,59.903985899518084,
AB,Lag5_T1A_T2P,5,A,P,7,12,6,4,16,flower,Did you see the flower?,0.12,0.016,JPG\,printer02,envelope03a,potato02b,calculator01,tableknife02,cigarette,ashtray01,pig,broom01,greenolive,candle08b,stapler03a,strawberry,candle01,foosballtable,tennisball01b,blankImage,calendar,,,,,,,,,,,,0,84,84,282,,,,,,,,,,,,,,,,,,,,,,,,,,,,,,,,,,,929.0172707999591,930.0165441000136,929.9997518999735,930.592253999901,930.592253999901,None,932.5732601999771,None,right,1.0370801999233663,932.5732601999771,None,933.6363462000154,None,left,1.125607099966146,933.6363462000154,None,,,,,,,,,,,,,,,,,,,,,,,PPT08,001,2022-06-29_09h00.40.945,ABstudy,2022.1.4,59.903985899518084,
AB,Lag5_T1P_T2P,5,P,P,8,13,7,5,18,Kiwi,Did you see the Kiwi?,0.12,0.016,JPG\,violin,pizza,toothbrush03b,pineapple01a,banana01,ashtray01,candy,kiwi03,clock04,sock01a,microscope,speaker04,stapler04b,sunglasses04,lipstick02a,blueberry01,blankImage,kiwi03,,,,,,,,,,,,0,85,85,111,,,,,,,,,,,,,,,,,,,,,,,,,,,,,,,,,,,934.7969198999926,935.8051281999797,935.788508699974,936.3811660999199,936.3811660999199,None,938.3229828999611,None,left,0.9208584999432787,938.3229828999611,None,939.275105400011,None,left,0.7109204999869689,939.275105400011,None,,,,,,,,,,,,,,,,,,,,,,,PPT08,001,2022-06-29_09h00.40.945,ABstudy,2022.1.4,59.903985899518084,
AB,Lag5_T1A_T2A,5,A,A,5,10,4,5,15,window,Did you see the window?,0.12,0.016,JPG\,leaf02a,apple07,cd,pineapple01a,envelope03a,paintbrush01,pig,canoftennisballs,rice,feather03a,lemon02,balloon01b,avocado01,calculator01,watermelon01,blankImage,blankImage,saxophone,,,,,,,,,,,,0,86,86,301,,,,,,,,,,,,,,,,,,,,,,,,,,,,,,,,,,,940.0242685999256,941.0268290999811,940.9934576000087,941.5807836999884,941.5807836999884,None,943.4596283999272,None,right,0.9177971000317484,943.4596283999272,None,944.3968556999462,None,left,0.41254710010252893,944.3968556999462,None,,,,,,,,,,,,,,,,,,,,,,,PPT08,001,2022-06-29_09h00.40.945,ABstudy,2022.1.4,59.903985899518084,
AB,Lag5_T1P_T2A,5,P,A,8,13,7,4,17,Drum set,Did you see the Drum set?,0.12,0.016,JPG\,pencil01,microscope,banana01,computerkeyboard02,celery,cellphone,scissors01,drumset,book01b,onion,dice05a,binoculars01b,baseball01a,iron01b,screw02,fork03c,blankImage,drumset,,,,,,,,,,,,0,87,87,212,,,,,,,,,,,,,,,,,,,,,,,,,,,,,,,,,,,944.8331035999581,945.848300499958,945.8149710999569,946.3849160999525,946.3849160999525,None,948.3735729999607,None,left,0.7165218000300229,948.3735729999607,None,949.1182758999057,None,left,0.2681449999799952,949.1182758999057,None,,,,,,,,,,,,,,,,,,,,,,,PPT08,001,2022-06-29_09h00.40.945,ABstudy,2022.1.4,59.903985899518084,
AB,Lag5_T1A_T2P,5,A,P,5,10,4,4,14,duck,Did you see the duck?,0.12,0.016,JPG\,brick,eraser,cucumber,ashtray01,thermometer02b,binoculars01b,lipstick02a,screwdriver04b,grape01,stapler04b,battery02b,iron01b,dice05a,avocado01,blankImage,blankImage,blankImage,barrel01,,,,,,,,,,,,0,88,88,280,,,,,,,,,,,,,,,,,,,,,,,,,,,,,,,,,,,949.4208135999506,950.436302499962,950.4028783999383,950.9833520000102,950.9833520000102,None,952.6905714999884,None,right,1.3908631999511272,952.6905714999884,None,954.1068232000107,None,right,0.5517023999709636,954.1068232000107,None,,,,,,,,,,,,,,,,,,,,,,,PPT08,001,2022-06-29_09h00.40.945,ABstudy,2022.1.4,59.903985899518084,
AB,Lag1_T1P_T2P,1,P,P,7,8,6,3,11,compass,Did you see the compass?,0.12,0.016,JPG\,brick,plate01b,pen04b,toaster01,screwdriver04b,candle01,magneticcompass,stapler03a,pig,ring01,orange,blankImage,blankImage,blankImage,blankImage,blankImage,blankImage,magneticcompass,,,,,,,,,,,,0,89,89,66,,,,,,,,,,,,,,,,,,,,,,,,,,,,,,,,,,,954.6928349999944,955.7085125999292,955.674961599987,956.2575002999511,956.2575002999511,None,957.6616508999141,None,right,0.8285479000769556,957.6616508999141,None,958.5108248000033,None,left,2.1003715000115335,958.5108248000033,None,,,,,,,,,,,,,,,,,,,,,,,PPT08,001,2022-06-29_09h00.40.945,ABstudy,2022.1.4,59.903985899518084,
AB,Lag1_T1P_T2A,1,P,A,7,8,6,3,11,Armadillo,Did you see the Armadillo?,0.12,0.016,JPG\,clock01a,cellphone,toaster01,toothbrush03b,cauliflower01,microscope,armadillo,paintbrush01,scarf,clock04,sponge01,blankImage,blankImage,blankImage,blankImage,blankImage,blankImage,armadillo,,,,,,,,,,,,0,90,90,180,,,,,,,,,,,,,,,,,,,,,,,,,,,,,,,,,,,960.6371463999385,961.6476265999954,961.6310227999929,962.219013899914,962.219013899914,None,963.5306290999288,None,left,1.8631715000374243,963.5306290999288,None,965.4179909999948,None,left,0.5205066999187693,965.4179909999948,None,,,,,,,,,,,,,,,,,,,,,,,PPT08,001,2022-06-29_09h00.40.945,ABstudy,2022.1.4,59.903985899518084,
AB,Lag1_T1P_T2P,1,P,P,8,9,7,4,13,crab,Did you see the crab?,0.12,0.016,JPG\,candle01,fork03c,plate01b,violin,computerkeyboard02,candy,calculator01,crab01,stapler04b,sock01a,teabag,banana01,cd,blankImage,blankImage,blankImage,blankImage,crab01,,,,,,,,,,,,0,91,91,37,,,,,,,,,,,,,,,,,,,,,,,,,,,,,,,,,,,965.9716612999327,966.9861677999143,966.9695290999953,967.603941099951,967.5357121999841,None,969.1805448000086,None,left,0.6295324999373406,969.1805448000086,None,969.8386187999276,None,left,0.24377109995111823,969.8386187999276,None,,,,,,,,,,,,,,,,,,,,,,,PPT08,001,2022-06-29_09h00.40.945,ABstudy,2022.1.4,59.903985899518084,
AB,Lag1_T1A_T2P,1,A,P,7,8,6,3,11,lion,Did you see the lion?,0.12,0.016,JPG\,sock01a,spoon01,alligator,comb02a,printer02,medal02b,lamp04a,stapler01,greenolive,computerkeyboard02,cauliflower01,blankImage,blankImage,blankImage,blankImage,blankImage,blankImage,bullet,,,,,,,,,,,,0,92,92,229,,,,,,,,,,,,,,,,,,,,,,,,,,,,,,,,,,,970.1083135999506,971.1234955999535,971.0901162999216,971.6802198999794,971.6802198999794,None,973.0704294999596,None,right,1.0916209999704733,973.0704294999596,None,974.1933923999313,None,right,2.744763300055638,974.1933923999313,None,,,,,,,,,,,,,,,,,,,,,,,PPT08,001,2022-06-29_09h00.40.945,ABstudy,2022.1.4,59.903985899518084,
AB,Lag5_T1A_T2P,5,A,P,6,11,5,5,16,bed,Did you see the bed?,0.12,0.016,JPG\,cellphone,tomato01,comb02a,candy,celery,cucumber,toaster01,fan,feather03a,pen04b,stapler03b,blueberry01,plate01b,cherry01,baseball01a,candle08b,blankImage,toolbox02,,,,,,,,,,,,0,93,93,274,,,,,,,,,,,,,,,,,,,,,,,,,,,,,,,,,,,976.9657515999861,977.9803917999379,977.9470737999072,978.5296953999205,978.5296953999205,None,980.5268021000084,None,right,0.8990854000439867,980.5268021000084,None,981.450540299993,None,left,1.4868242000229657,981.450540299993,None,,,,,,,,,,,,,,,,,,,,,,,PPT08,001,2022-06-29_09h00.40.945,ABstudy,2022.1.4,59.903985899518084,
AB,Lag5_T1P_T2P,5,P,P,8,13,7,3,16,shrimp,Did you see the shrimp?,0.12,0.016,JPG\,globe,belt02a,sponge01,violin,fork03c,tomato01,clock01a,cocktailshrimp02,balloon01b,scarf,teabag,pen04b,stapler03a,brownsugar,speaker04,screwdriver04b,blankImage,cocktailshrimp02,,,,,,,,,,,,0,94,94,169,,,,,,,,,,,,,,,,,,,,,,,,,,,,,,,,,,,982.973988099955,983.9862697999924,983.9701573000057,984.5581644999329,984.5581644999329,None,986.5108673999785,None,left,1.5545799999963492,986.5108673999785,None,988.0905708000064,None,left,3.5111497999168932,988.0905708000064,None,,,,,,,,,,,,,,,,,,,,,,,PPT08,001,2022-06-29_09h00.40.945,ABstudy,2022.1.4,59.903985899518084,
AB,Lag5_T1A_T2A,5,A,A,5,10,4,5,15,truck,Did you see the truck?,0.12,0.016,JPG\,pizza,printer02,medal02b,spoon01,grape01,lighter01,belt02a,watermelon01,celery,battery02b,screw02,comb02a,cauliflower01,lipstick02a,potato02b,blankImage,blankImage,postalmailbox01,,,,,,,,,,,,0,95,95,297,,,,,,,,,,,,,,,,,,,,,,,,,,,,,,,,,,,991.6323205999797,992.6451803999953,992.6285805999069,993.2402707999572,993.2402707999572,None,995.0271068000002,None,left,1.3740229000104591,995.0271068000002,None,996.4319523999002,None,right,0.9533960999688134,996.4319523999002,None,,,,,,,,,,,,,,,,,,,,,,,PPT08,001,2022-06-29_09h00.40.945,ABstudy,2022.1.4,59.903985899518084,
AB,Lag1_T1P_T2P,1,P,P,7,8,6,3,11,cloud,Did you see the cloud?,0.12,0.016,JPG\,lighter01,hammer01,spoon01,chain01,cymbal,sponge01,cloud,stapler06,pig,watermelon01,cauliflower01,blankImage,blankImage,blankImage,blankImage,blankImage,blankImage,cloud,,,,,,,,,,,,0,96,96,36,,,,,,,,,,,,,,,,,,,,,,,,,,,,,,,,,,,997.4188554999419,998.4339086000109,998.4005935000023,998.9773445999017,998.9773445999017,None,1000.3145678999135,None,left,0.7201585000148043,1000.3145678999135,None,1001.0533709999872,None,left,0.31652839994058013,1001.0533709999872,None,,,,,,,,,,,,,,,,,,,,,,,PPT08,001,2022-06-29_09h00.40.945,ABstudy,2022.1.4,59.903985899518084,
AB,Lag5_T1P_T2P,5,P,P,8,13,7,4,17,lamp,Did you see the lamp?,0.12,0.016,JPG\,globe,broccoli01a,binoculars01b,iron01b,avocado01,dandelion,pineapple01a,floorlamp,fan,pizza,celery,blueberry01,stapler01,dice05a,watermelon01,candy,blankImage,floorlamp,,,,,,,,,,,,0,97,97,99,,,,,,,,,,,,,,,,,,,,,,,,,,,,,,,,,,,1001.3924513999373,1002.404687399976,1002.3880439999048,1003.0060426999116,1003.0060426999116,None,1004.9141832999885,None,left,1.0468382999533787,1004.9141832999885,None,1005.9916509999894,None,left,0.5294386999448761,1005.9916509999894,None,,,,,,,,,,,,,,,,,,,,,,,PPT08,001,2022-06-29_09h00.40.945,ABstudy,2022.1.4,59.903985899518084,
AB,Lag5_T1P_T2P,5,P,P,8,13,7,4,17,butterfly,Did you see the butterfly?,0.12,0.016,JPG\,speaker04,sewingmachine01a,eraser,violin,globe,belt02a,sunglasses04,butterfly,cd,greenolive,alligator,pear01,stapler01,screwdriver04b,banana01,cigarette,blankImage,butterfly,,,,,,,,,,,,0,98,98,126,,,,,,,,,,,,,,,,,,,,,,,,,,,,,,,,,,,1006.5464064999251,1007.559852699982,1007.5431831999449,1008.1396462999983,1008.1396462999983,None,1010.0624390000012,None,left,1.0274029000429437,1010.0624390000012,None,1011.1134144999087,None,left,0.24840839998796582,1011.1134144999087,None,,,,,,,,,,,,,,,,,,,,,,,PPT08,001,2022-06-29_09h00.40.945,ABstudy,2022.1.4,59.903985899518084,
AB,Lag5_T1P_T2A,5,P,A,6,11,5,4,15,Spear,Did you see the Spear?,0.12,0.016,JPG\,belt02a,measuringcup01,spoon01,chain01,greenolive,spear02,computerkeyboard02,onion,fan,strawberry,candle01,broom01,binoculars01b,ashtray01,pingpongpaddle01c,blankImage,blankImage,spear02,,,,,,,,,,,,0,99,99,227,,,,,,,,,,,,,,,,,,,,,,,,,,,,,,,,,,,1011.44163139991,1012.4481227999786,1012.431426599971,1013.0252565999981,1013.0252565999981,None,1014.8132834999124,None,left,2.868497100076638,1014.8132834999124,None,1017.7033143999288,None,right,0.2515725999837741,1017.7033143999288,None,,,,,,,,,,,,,,,,,,,,,,,PPT08,001,2022-06-29_09h00.40.945,ABstudy,2022.1.4,59.903985899518084,
AB,Lag5_T1P_T2P,5,P,P,8,13,7,4,17,cruise ship,Did you see the cruise ship?,0.12,0.016,JPG\,measuringcup01,dice05a,greenolive,lipstick02a,feather03a,balloon01b,lighter01,cruiseship,carrot01,plate01b,microscope,brick,stapler05,screw02,speaker04,spoon01,blankImage,cruiseship,,,,,,,,,,,,0,100,100,105,,,,,,,,,,,,,,,,,,,,,,,,,,,,,,,,,,,1017.9927354999818,1019.0046533999266,1018.9878700999543,1019.5610811999068,1019.5610811999068,None,1021.5266540999291,None,left,0.45884079998359084,1021.5266540999291,None,1022.0091099999845,None,left,0.3292665999615565,1022.0091099999845,None,,,,,,,,,,,,,,,,,,,,,,,PPT08,001,2022-06-29_09h00.40.945,ABstudy,2022.1.4,59.903985899518084,
AB,Lag1_T1P_T2P,1,P,P,8,9,7,3,12,cactus,Did you see the cactus?,0.12,0.016,JPG\,tennisball01b,paintbrush01,medal02b,apple07,speaker04,iron01b,avocado01,cactus,stapler03b,toiletpaper01a,watermelon01,candle01,blankImage,blankImage,blankImage,blankImage,blankImage,cactus,,,,,,,,,,,,0,101,101,58,,,,,,,,,,,,,,,,,,,,,,,,,,,,,,,,,,,1022.360130899935,1023.3752389999572,1023.3418604999315,1023.9419822999043,1023.9419822999043,None,1025.3763830999378,None,left,1.0084819999756292,1025.3763830999378,None,1026.411971299909,None,left,0.397737699910067,1026.411971299909,None,,,,,,,,,,,,,,,,,,,,,,,PPT08,001,2022-06-29_09h00.40.945,ABstudy,2022.1.4,59.903985899518084,
AB,Lag5_T1P_T2P,5,P,P,8,13,7,3,16,church,Did you see the church?,0.12,0.016,JPG\,clock01a,cellphone,toaster01,toothbrush03b,cauliflower01,microscope,comb02a,church,scarf,clock04,sponge01,iron01b,stapler06,celery,ring01,ashtray01,blankImage,church,,,,,,,,,,,,0,102,102,129,,,,,,,,,,,,,,,,,,,,,,,,,,,,,,,,,,,1026.833217700012,1027.8467263999628,1027.8300777999684,1028.4195773999672,1028.4195773999672,None,1030.4262684999267,None,left,0.42310040001757443,1030.4262684999267,None,1030.8663939000107,None,left,0.27860199997667223,1030.8663939000107,None,,,,,,,,,,,,,,,,,,,,,,,PPT08,001,2022-06-29_09h00.40.945,ABstudy,2022.1.4,59.903985899518084,
AB,Lag1_T1P_T2A,1,P,A,7,8,6,4,12,Steering wheel,Did you see the Steering wheel?,0.12,0.016,JPG\,alligator,banana01,apple07,tomato01,button01,spoon01,steeringwheel,fork03c,canoftennisballs,potato02b,grape01,leaf02a,blankImage,blankImage,blankImage,blankImage,blankImage,steeringwheel,,,,,,,,,,,,0,103,103,198,,,,,,,,,,,,,,,,,,,,,,,,,,,,,,,,,,,1031.1737216999754,1032.1843825000105,1032.16767409991,1032.6681908000028,1032.6681908000028,None,1034.1898531999905,None,left,1.387560399947688,1034.1898531999905,None,1035.6042962999782,None,right,0.23725369991734624,1035.6042962999782,None,,,,,,,,,,,,,,,,,,,,,,,PPT08,001,2022-06-29_09h00.40.945,ABstudy,2022.1.4,59.903985899518084,
AB,Lag5_T1A_T2P,5,A,P,5,10,4,5,15,Sushi,Did you see the Sushi?,0.12,0.016,JPG\,pineapple01a,leaf02a,grape01,toiletpaper01a,match,tennisball01b,spoon01,chain01,pig,stapler04b,ring01,lemon02,dice05a,pizza,potato02b,blankImage,blankImage,crown,,,,,,,,,,,,0,104,104,285,,,,,,,,,,,,,,,,,,,,,,,,,,,,,,,,,,,1035.873945200001,1036.8889237999683,1036.8555201999843,1037.4319026999874,1037.4319026999874,None,1039.318942099926,None,right,1.3710036999545991,1039.318942099926,None,1040.7095349999145,None,left,0.42863770003896207,1040.7095349999145,None,,,,,,,,,,,,,,,,,,,,,,,PPT08,001,2022-06-29_09h00.40.945,ABstudy,2022.1.4,59.903985899518084,
AB,Lag5_T1P_T2P,5,P,P,7,12,6,4,16,flower,Did you see the flower?,0.12,0.016,JPG\,cucumber,sponge01,alligator,pear01,ashtray01,hammer01,hibiscusflower02,battery02b,fork03c,binoculars01b,mushroom01,stapler01,leaf02a,acorn,comb02a,screwdriver04b,blankImage,hibiscusflower02,,,,,,,,,,,,0,105,105,132,,,,,,,,,,,,,,,,,,,,,,,,,,,,,,,,,,,1041.1636589999544,1042.1773522999138,1042.1611168999225,1042.7876565000042,1042.7141887999605,None,1044.6517794999527,None,left,0.4617843000451103,1044.6517794999527,None,1045.1303388999077,None,left,3.759285799926147,1045.1303388999077,None,,,,,,,,,,,,,,,,,,,,,,,PPT08,001,2022-06-29_09h00.40.945,ABstudy,2022.1.4,59.903985899518084,
AB,Lag5_T1P_T2P,5,P,P,7,12,6,4,16,window,Did you see the window?,0.12,0.016,JPG\,cigarette,pig,banana01,strawberry,clock01a,plate01b,dormer,blueberry01,battery02b,pineapple01a,chain01,stapler01,candy,pen04b,teabag,birthdaycandle,blankImage,dormer,,,,,,,,,,,,0,106,106,170,,,,,,,,,,,,,,,,,,,,,,,,,,,,,,,,,,,1048.9214497999055,1049.9354334999807,1049.9187506999588,1050.481556499959,1050.481556499959,None,1052.354144699988,None,left,0.46316589997150004,1052.354144699988,None,1052.838008599938,None,left,0.6350558999693021,1052.838008599938,None,,,,,,,,,,,,,,,,,,,,,,,PPT08,001,2022-06-29_09h00.40.945,ABstudy,2022.1.4,59.903985899518084,
AB,Lag5_T1A_T2P,5,A,P,8,13,7,5,18,fish,Did you see the fish?,0.12,0.016,JPG\,scissors01,grape01,mushroom01,toiletpaper01a,greenolive,pizza,cigarette,ashtray01,carrot01,pineapple01a,foosballtable,lipstick02a,stapler04b,tambourine02,potato02b,violin,blankImage,chimney,,,,,,,,,,,,0,107,107,283,,,,,,,,,,,,,,,,,,,,,,,,,,,,,,,,,,,1053.5084066999843,1054.523293999955,1054.490062500001,1055.064978200011,1055.064978200011,None,1057.0432654999895,None,right,0.8785377999302,1057.0432654999895,None,1057.9433193999575,None,left,0.5375953000038862,1057.9433193999575,None,,,,,,,,,,,,,,,,,,,,,,,PPT08,001,2022-06-29_09h00.40.945,ABstudy,2022.1.4,59.903985899518084,
AB,Lag1_T1P_T2P,1,P,P,8,9,7,3,12,zebra,Did you see the zebra?,0.12,0.016,JPG\,apple07,toiletpaper01a,pizza,dandelion,greenolive,eraser,microscope,zebra,stapler03b,lipstick02a,balloon01b,sandal,blankImage,blankImage,blankImage,blankImage,blankImage,zebra,,,,,,,,,,,,0,108,108,28,,,,,,,,,,,,,,,,,,,,,,,,,,,,,,,,,,,1058.5671268999577,1059.5779828999657,1059.5612861999543,1060.154245599988,1060.154245599988,None,1061.54807359993,None,left,1.88620449998416,1061.54807359993,None,1063.4661029999843,None,left,0.3351431000046432,1063.4661029999843,None,,,,,,,,,,,,,,,,,,,,,,,PPT08,001,2022-06-29_09h00.40.945,ABstudy,2022.1.4,59.903985899518084,
AB,Lag5_T1P_T2A,5,P,A,7,12,6,3,15,helmet,Did you see the helmet?,0.12,0.016,JPG\,fork03c,belt02a,grape01,computerkeyboard02,lemon02,printer02,skihelmet01,toiletpaper01a,toaster01,lipstick02a,book01b,blueberry01,spoon01,apple07,avocado01,blankImage,blankImage,skihelmet01,,,,,,,,,,,,0,109,109,225,,,,,,,,,,,,,,,,,,,,,,,,,,,,,,,,,,,1063.8412155999104,1064.8500600999687,1064.8332846999401,1065.4057360999286,1065.4057360999286,None,1067.3388642999344,None,left,2.2381961999926716,1067.3388642999344,None,1069.6050310999854,None,right,0.25203890004195273,1069.6050310999854,None,,,,,,,,,,,,,,,,,,,,,,,PPT08,001,2022-06-29_09h00.40.945,ABstudy,2022.1.4,59.903985899518084,
AB,Lag5_T1P_T2P,5,P,P,6,11,5,3,14,ladder,Did you see the ladder?,0.12,0.016,JPG\,celery,orange,scissors01,balloon01b,avocado01,stepladder,mushroom01,sewingmachine01a,lighter01,dice05a,stapler01,fan,cd,sock01a,blankImage,blankImage,blankImage,stepladder,,,,,,,,,,,,0,110,110,119,,,,,,,,,,,,,,,,,,,,,,,,,,,,,,,,,,,1069.8895538999932,1070.8898632999044,1070.8732926999219,1071.469839999918,1071.469839999918,None,1073.1595028999727,None,left,1.0582782999845222,1073.1595028999727,None,1074.2428056999343,None,left,0.31798160006292164,1074.2428056999343,None,,,,,,,,,,,,,,,,,,,,,,,PPT08,001,2022-06-29_09h00.40.945,ABstudy,2022.1.4,59.903985899518084,
AB,Lag1_T1P_T2P,1,P,P,5,6,4,5,11,shark,Did you see the shark?,0.12,0.016,JPG\,cucumber,sponge01,alligator,pear01,greatwhiteshark,stapler06,clock04,battery02b,fork03c,binoculars01b,mushroom01,blankImage,blankImage,blankImage,blankImage,blankImage,blankImage,greatwhiteshark,,,,,,,,,,,,0,111,111,84,,,,,,,,,,,,,,,,,,,,,,,,,,,,,,,,,,,1074.597948199953,1075.611061399919,1075.5943556999555,1076.1779147000052,1076.1779147000052,None,1077.5817977999104,None,left,0.547508499934338,1077.5817977999104,None,1078.1462539999047,None,left,1.1273961999686435,1078.1462539999047,None,,,,,,,,,,,,,,,,,,,,,,,PPT08,001,2022-06-29_09h00.40.945,ABstudy,2022.1.4,59.903985899518084,
AB,Lag1_T1A_T2P,1,A,P,5,6,4,3,9,Stool,Did you see the Stool?,0.12,0.016,JPG\,cherry01,cymbal,envelope03a,foosballtable,shirt02,stapler01,sewingmachine01a,candle08b,battery02b,blankImage,blankImage,blankImage,blankImage,blankImage,blankImage,blankImage,blankImage,hulahoop,,,,,,,,,,,,0,112,112,236,,,,,,,,,,,,,,,,,,,,,,,,,,,,,,,,,,,1079.3031621999107,1080.3153700999683,1080.298715199926,1080.8772538999328,1080.8772538999328,None,1082.0260396999074,None,left,1.167448400054127,1082.0260396999074,None,1083.2182758999988,None,left,0.8791555999778211,1083.2182758999988,None,,,,,,,,,,,,,,,,,,,,,,,PPT08,001,2022-06-29_09h00.40.945,ABstudy,2022.1.4,59.903985899518084,
AB,Lag1_T1P_T2A,1,P,A,6,7,5,5,12,Tombstone,Did you see the Tombstone?,0.12,0.016,JPG\,cigarette,ashtray01,envelope03a,sandal,chain01,tombstone,broccoli01a,tomato01,dandelion,candle01,lemon02,button01,blankImage,blankImage,blankImage,blankImage,blankImage,tombstone,,,,,,,,,,,,0,113,113,196,,,,,,,,,,,,,,,,,,,,,,,,,,,,,,,,,,,1084.1227676999988,1085.136909599998,1085.1201883999165,1085.8316622999264,1085.7324942999985,None,1087.2201065999689,None,left,0.5812583999941126,1087.2201065999689,None,1087.8230848999228,None,left,0.2817197000840679,1087.8230848999228,None,,,,,,,,,,,,,,,,,,,,,,,PPT08,001,2022-06-29_09h00.40.945,ABstudy,2022.1.4,59.903985899518084,
AB,Lag5_T1P_T2P,5,P,P,5,10,4,3,13,Jellyfish,Did you see the Jellyfish?,0.12,0.016,JPG\,printer02,envelope03a,potato02b,calculator01,jellyfish,cigarette,ashtray01,pig,broom01,stapler06,candle08b,battery02b,strawberry,blankImage,blankImage,blankImage,blankImage,jellyfish,,,,,,,,,,,,0,114,114,91,,,,,,,,,,,,,,,,,,,,,,,,,,,,,,,,,,,1088.1227648999775,1089.124166799942,1089.1074374999152,1089.691656799987,1089.691656799987,None,1091.3079168999102,None,left,0.4456759000895545,1091.3079168999102,None,1091.7770419999724,None,left,1.792382700019516,1091.7770419999724,None,,,,,,,,,,,,,,,,,,,,,,,PPT08,001,2022-06-29_09h00.40.945,ABstudy,2022.1.4,59.903985899518084,
AB,Lag5_T1P_T2P,5,P,P,8,13,7,5,18,spice rack,Did you see the spice rack?,0.12,0.016,JPG\,lamp04a,broccoli01a,alligator,garlic01a,dandelion,brownsugar,avocado01,spicerack,leaf02a,cellphone,medal02b,cd,stapler05,sunglasses04,strawberry,eraser,blankImage,spicerack,,,,,,,,,,,,0,115,115,140,,,,,,,,,,,,,,,,,,,,,,,,,,,,,,,,,,,1093.6007299999474,1094.6131911999546,1094.5965118999593,1095.1898961999686,1095.1898961999686,None,1097.099368599942,None,left,2.2139436000725254,1097.099368599942,None,1099.3346703000134,None,right,0.3386837000725791,1099.3346703000134,None,,,,,,,,,,,,,,,,,,,,,,,PPT08,001,2022-06-29_09h00.40.945,ABstudy,2022.1.4,59.903985899518084,
AB,Lag1_T1P_T2P,1,P,P,8,9,7,3,12,Wheelchair,Did you see the Wheelchair?,0.12,0.016,JPG\,cigarette,pig,banana01,strawberry,clock01a,plate01b,spoon01,wheelchair,stapler03b,pineapple01a,chain01,paintbrush01,blankImage,blankImage,blankImage,blankImage,blankImage,wheelchair,,,,,,,,,,,,0,116,116,27,,,,,,,,,,,,,,,,,,,,,,,,,,,,,,,,,,,1099.7023599999957,1100.7027044999413,1100.6859588999068,1101.2657565999543,1101.2657565999543,None,1102.7828051999677,None,left,0.9144930999027565,1102.7828051999677,None,1103.7221656999318,None,right,0.36691480001900345,1103.7221656999318,None,,,,,,,,,,,,,,,,,,,,,,,PPT08,001,2022-06-29_09h00.40.945,ABstudy,2022.1.4,59.903985899518084,
AB,Lag1_T1A_T2P,1,A,P,5,6,4,3,9,microphone,Did you see the microphone?,0.12,0.016,JPG\,hammer01,sponge01,toaster01,cherry01,feather03a,stapler06,measuringcup01,pencil01,tennisball01b,blankImage,blankImage,blankImage,blankImage,blankImage,blankImage,blankImage,blankImage,cactus,,,,,,,,,,,,0,117,117,230,,,,,,,,,,,,,,,,,,,,,,,,,,,,,,,,,,,1104.185934899957,1105.1903478999157,1105.1736814999022,1105.759363399935,1105.759363399935,None,1106.7816749999765,None,left,5.7637260999763384,1106.7816749999765,None,1112.5643271999434,None,left,0.9961523999227211,1112.5643271999434,None,,,,,,,,,,,,,,,,,,,,,,,PPT08,001,2022-06-29_09h00.40.945,ABstudy,2022.1.4,59.903985899518084,
AB,Lag5_T1P_T2P,5,P,P,8,13,7,5,18,sock,Did you see the sock?,0.12,0.016,JPG\,thermometer02b,avocado01,scissors01,tennisball01b,medal02b,banana01,strawberry,athleticsock,potato02b,pineapple01a,microscope,cymbal,stapler03b,celery,garlic01a,sunglasses04,blankImage,athleticsock,,,,,,,,,,,,0,118,118,141,,,,,,,,,,,,,,,,,,,,,,,,,,,,,,,,,,,1113.583968999912,1114.583196499967,1114.5664931999054,1115.1375565999188,1115.1375565999188,None,1117.1391691999743,None,left,0.7340381999965757,1117.1391691999743,None,1117.9027849999256,None,left,0.3861327999038622,1117.9027849999256,None,,,,,,,,,,,,,,,,,,,,,,,PPT08,001,2022-06-29_09h00.40.945,ABstudy,2022.1.4,59.903985899518084,
AB,Lag1_T1P_T2A,1,P,A,7,8,6,3,11,walkie talkie,Did you see the walkie talkie?,0.12,0.016,JPG\,teabag,envelope03a,cellphone,apple07,cauliflower01,orange,walkietalkie,book01b,hammer01,feather03a,toaster01,blankImage,blankImage,blankImage,blankImage,blankImage,blankImage,walkietalkie,,,,,,,,,,,,0,119,119,197,,,,,,,,,,,,,,,,,,,,,,,,,,,,,,,,,,,1118.3233519999776,1119.337590500014,1119.3048082999885,1119.9571707999567,1119.9571707999567,None,1121.2426363999257,None,left,0.8706185000482947,1121.2426363999257,None,1122.1405529999174,None,left,0.7489483000244945,1122.1405529999174,None,,,,,,,,,,,,,,,,,,,,,,,PPT08,001,2022-06-29_09h00.40.945,ABstudy,2022.1.4,59.903985899518084,
AB,Lag5_T1P_T2P,5,P,P,5,10,4,3,13,bathtub,Did you see the bathtub?,0.12,0.016,JPG\,belt02a,sunglasses04,computerkeyboard02,cherry01,bathtub,eraser,watch02a,dice05a,blueberry01,stapler04b,match,leaf02a,iron01b,blankImage,blankImage,blankImage,blankImage,bathtub,,,,,,,,,,,,0,120,120,103,,,,,,,,,,,,,,,,,,,,,,,,,,,,,,,,,,,1122.9120593999978,1123.9255735999905,1123.9089387999848,1124.4850304999854,1124.4850304999854,None,1126.1027781999437,None,left,0.7630799999460578,1126.1027781999437,None,1126.8957328000106,None,left,0.3210867999587208,1126.8957328000106,None,,,,,,,,,,,,,,,,,,,,,,,PPT08,001,2022-06-29_09h00.40.945,ABstudy,2022.1.4,59.903985899518084,
AB,Lag5_T1P_T2A,5,P,A,8,13,7,3,16,leaf blower,Did you see the leaf blower?,0.12,0.016,JPG\,printer02,leaf02a,cauliflower01,sock01a,brownsugar,paintbrush01,pig,leafblower01,belt02a,shirt02,key01,match,cigarette,scissors01,envelope03a,blueberry01,blankImage,leafblower01,,,,,,,,,,,,0,121,121,216,,,,,,,,,,,,,,,,,,,,,,,,,,,,,,,,,,,1127.255983699928,1128.262849099934,1128.2462445999263,1128.8295427999692,1128.8295427999692,None,1130.8098572999006,None,left,1.3434675000607967,1130.8098572999006,None,1132.1838628000114,None,left,0.38501139997970313,1132.1838628000114,None,,,,,,,,,,,,,,,,,,,,,,,PPT08,001,2022-06-29_09h00.40.945,ABstudy,2022.1.4,59.903985899518084,
AB,Lag5_T1P_T2P,5,P,P,5,10,4,5,15,hockey puck,Did you see the hockey puck?,0.12,0.016,JPG\,chain01,pen04b,birthdaycandle,watermelon01,hockeypuck,scissors01,measuringcup01,candle01,hammer01,stapler06,ashtray01,feather03a,sewingmachine01a,thermometer02b,alligator,blankImage,blankImage,hockeypuck,,,,,,,,,,,,0,122,122,110,,,,,,,,,,,,,,,,,,,,,,,,,,,,,,,,,,,1132.607701299945,1133.6186211999739,1133.6019351999275,1134.1721614999697,1134.1721614999697,None,1135.9211177999387,None,left,0.5036934000672773,1135.9211177999387,None,1136.4543442999711,None,left,0.5790756000205874,1136.4543442999711,None,,,,,,,,,,,,,,,,,,,,,,,PPT08,001,2022-06-29_09h00.40.945,ABstudy,2022.1.4,59.903985899518084,
AB,Lag1_T1A_T2P,1,A,P,5,6,4,4,10,Bull,Did you see the Bull?,0.12,0.016,JPG\,celery,pencil01,fan,foosballtable,iron01b,stapler01,potato02b,fork03c,button01,pineapple01a,blankImage,blankImage,blankImage,blankImage,blankImage,blankImage,blankImage,spiderweb,,,,,,,,,,,,0,123,123,244,,,,,,,,,,,,,,,,,,,,,,,,,,,,,,,,,,,1137.0572157999268,1138.0726217000047,1138.0392516999273,1138.6209473999916,1138.6209473999916,None,1139.9059569999808,None,right,1.1353678000159562,1139.9059569999808,None,1141.060476499959,None,left,0.5178012000396848,1141.060476499959,None,,,,,,,,,,,,,,,,,,,,,,,PPT08,001,2022-06-29_09h00.40.945,ABstudy,2022.1.4,59.903985899518084,
AB,Lag5_T1P_T2A,5,P,A,8,13,7,3,16,Shelves,Did you see the Shelves?,0.12,0.016,JPG\,pineapple01a,leaf02a,grape01,toiletpaper01a,match,tennisball01b,spoon01,shelves,pig,measuringcup01,ring01,lemon02,dice05a,pizza,potato02b,eraser,blankImage,shelves,,,,,,,,,,,,0,124,124,222,,,,,,,,,,,,,,,,,,,,,,,,,,,,,,,,,,,1141.6931817999575,1142.694102199981,1142.6778820999898,1143.2542793999892,1143.2542793999892,None,1145.1243867999874,None,left,0.596342800068669,1145.1243867999874,None,1145.7471004999243,None,left,0.485497499932535,1145.7471004999243,None,,,,,,,,,,,,,,,,,,,,,,,PPT08,001,2022-06-29_09h00.40.945,ABstudy,2022.1.4,59.903985899518084,
AB,Lag1_T1P_T2P,1,P,P,6,7,5,4,11,bowling pin,Did you see the bowling pin?,0.12,0.016,JPG\,strawberry,leaf02a,clock04,candle01,avocado01,bowlingpin,stapler03a,brownsugar,ring01,lemon02,fork03c,blankImage,blankImage,blankImage,blankImage,blankImage,blankImage,bowlingpin,,,,,,,,,,,,0,125,125,8,,,,,,,,,,,,,,,,,,,,,,,,,,,,,,,,,,,1146.2672130999854,1147.2821397999069,1147.2487569999648,1147.8894656999037,1147.8894656999037,None,1149.228841300006,None,left,0.6600386999780312,1149.228841300006,None,1149.9179124999791,None,left,0.3073924999916926,1149.9179124999791,None,,,,,,,,,,,,,,,,,,,,,,,PPT08,001,2022-06-29_09h00.40.945,ABstudy,2022.1.4,59.903985899518084,
AB,Lag5_T1P_T2P,5,P,P,6,11,5,5,16,sword,Did you see the sword?,0.12,0.016,JPG\,chain01,speaker04,avocado01,watermelon01,scarf,sword01,lamp04a,fork03c,toaster01,slipper03b,stapler03a,cucumber,teabag,ashtray01,computerkeyboard02,book01b,blankImage,sword01,,,,,,,,,,,,0,126,126,143,,,,,,,,,,,,,,,,,,,,,,,,,,,,,,,,,,,1150.2557931999909,1151.2694722999586,1151.252893799916,1151.8894927999936,1151.8204759999644,None,1153.798506799969,None,left,0.46646409993991256,1153.798506799969,None,1154.2892176999012,None,left,0.43969970010221004,1154.2892176999012,None,,,,,,,,,,,,,,,,,,,,,,,PPT08,001,2022-06-29_09h00.40.945,ABstudy,2022.1.4,59.903985899518084,
AB,Lag5_T1A_T2A,5,A,A,7,12,6,4,16,Eye,Did you see the Eye?,0.12,0.016,JPG\,rice,watermelon01,tableknife02,scarf,computerkeyboard02,cauliflower01,battery02b,binoculars01b,book01b,sandal,sponge01,microscope,tomato01,fork03c,thermometer02b,apple07,blankImage,scooter,,,,,,,,,,,,0,127,127,302,,,,,,,,,,,,,,,,,,,,,,,,,,,,,,,,,,,1154.7630670999642,1155.774070299929,1155.75736649998,1156.3281158999307,1156.3281158999307,None,1158.3820795000065,None,right,0.786587999900803,1158.3820795000065,None,1159.1934936000034,None,left,0.45517209998797625,1159.1934936000034,None,,,,,,,,,,,,,,,,,,,,,,,PPT08,001,2022-06-29_09h00.40.945,ABstudy,2022.1.4,59.903985899518084,
AB,Lag5_T1P_T2P,5,P,P,5,10,4,5,15,Bee,Did you see the Bee?,0.12,0.016,JPG\,fork03c,dandelion,dice05a,belt02a,honeybee,watch02a,key01,globe,eraser,stapler03a,greenolive,shirt02,candle08b,cigarette,garlic01a,blankImage,blankImage,honeybee,,,,,,,,,,,,0,128,128,149,,,,,,,,,,,,,,,,,,,,,,,,,,,,,,,,,,,1159.6820637999335,1160.6956401999341,1160.6789277999196,1161.239942099899,1161.239942099899,None,1163.0758786000079,None,left,0.5485660000704229,1163.0758786000079,None,1163.6484222,None,left,0.33691409998573363,1163.6484222,None,,,,,,,,,,,,,,,,,,,,,,,PPT08,001,2022-06-29_09h00.40.945,ABstudy,2022.1.4,59.903985899518084,
AB,Lag1_T1P_T2P,1,P,P,7,8,6,5,13,disco ball,Did you see the disco ball?,0.12,0.016,JPG\,candle01,paintbrush01,scissors01,fan,microscope,toothbrush03b,discoball,stapler03b,teabag,pencil01,lemon02,ashtray01,shirt02,blankImage,blankImage,blankImage,blankImage,discoball,,,,,,,,,,,,0,129,129,60,,,,,,,,,,,,,,,,,,,,,,,,,,,,,,,,,,,1164.0203883999493,1165.033541199984,1165.016935099964,1165.6053981999867,1165.6053981999867,None,1167.2337476999965,None,left,0.7685486000264063,1167.2337476999965,None,1168.019667699933,None,left,0.668562600039877,1168.019667699933,None,,,,,,,,,,,,,,,,,,,,,,,PPT08,001,2022-06-29_09h00.40.945,ABstudy,2022.1.4,59.903985899518084,
AB,Lag1_T1A_T2P,1,A,P,8,9,7,3,12,elbow,Did you see the elbow?,0.12,0.016,JPG\,watermelon01,cigarette,faucet,cymbal,cauliflower01,feather03a,cherry01,broom01,stapler01,key01,baseball01a,iron01b,blankImage,blankImage,blankImage,blankImage,blankImage,cashregister01,,,,,,,,,,,,0,130,130,251,,,,,,,,,,,,,,,,,,,,,,,,,,,,,,,,,,,1168.7201836999739,1169.7214564000024,1169.7048073000042,1170.3517532999394,1170.3517532999394,None,1171.7828507999657,None,right,0.8341645000036806,1171.7828507999657,None,1172.640455899993,None,left,0.5362955000018701,1172.640455899993,None,,,,,,,,,,,,,,,,,,,,,,,PPT08,001,2022-06-29_09h00.40.945,ABstudy,2022.1.4,59.903985899518084,
AB,Lag5_T1P_T2P,5,P,P,5,10,4,4,14,bell,Did you see the bell?,0.12,0.016,JPG\,teabag,envelope03a,cellphone,apple07,callbell,orange,brownsugar,book01b,hammer01,stapler03b,toaster01,calculator01,globe,battery02b,blankImage,blankImage,blankImage,callbell,,,,,,,,,,,,0,131,131,147,,,,,,,,,,,,,,,,,,,,,,,,,,,,,,,,,,,1173.2079466999276,1174.2090197999496,1174.1922607999295,1174.7763895000098,1174.7763895000098,None,1176.5439609999303,None,left,0.45661490003112704,1176.5439609999303,None,1177.0308037999785,None,left,0.35412470006849617,1177.0308037999785,None,,,,,,,,,,,,,,,,,,,,,,,PPT08,001,2022-06-29_09h00.40.945,ABstudy,2022.1.4,59.903985899518084,
AB,Lag5_T1P_T2A,5,P,A,5,10,4,4,14,rocket,Did you see the rocket?,0.12,0.016,JPG\,fan,tomato01,candy,screwdriver04b,spacerocket,cd,thermometer02b,apple07,button01,plate01b,brownsugar,lighter01,clock01a,envelope03a,blankImage,blankImage,blankImage,spacerocket,,,,,,,,,,,,0,132,132,226,,,,,,,,,,,,,,,,,,,,,,,,,,,,,,,,,,,1177.4185483999318,1178.429924499942,1178.4133646999253,1178.983539299923,1178.983539299923,None,1180.7115615999792,None,right,3.3215135999489576,1180.7115615999792,None,1184.052109299926,None,right,2.004695800016634,1184.052109299926,None,,,,,,,,,,,,,,,,,,,,,,,PPT08,001,2022-06-29_09h00.40.945,ABstudy,2022.1.4,59.903985899518084,
AB,Lag1_T1P_T2P,1,P,P,7,8,6,4,12,skunk,Did you see the skunk?,0.12,0.016,JPG\,fan,tomato01,candy,screwdriver04b,alligator,cd,skunk,stapler03b,button01,plate01b,brownsugar,lighter01,blankImage,blankImage,blankImage,blankImage,blankImage,skunk,,,,,,,,,,,,0,133,133,48,,,,,,,,,,,,,,,,,,,,,,,,,,,,,,,,,,,1186.092308799969,1187.1052651999053,1187.0885976999998,1187.6639367999742,1187.6639367999742,None,1189.1685416999971,None,left,0.5844946000725031,1189.1685416999971,None,1189.7740544999251,None,left,0.482871999964118,1189.7740544999251,None,,,,,,,,,,,,,,,,,,,,,,,PPT08,001,2022-06-29_09h00.40.945,ABstudy,2022.1.4,59.903985899518084,
AB,Lag5_T1A_T2P,5,A,P,6,11,5,3,14,keys,Did you see the keys?,0.12,0.016,JPG\,pencil01,microscope,banana01,computerkeyboard02,celery,cellphone,scissors01,sock01a,book01b,onion,stapler03a,binoculars01b,baseball01a,iron01b,blankImage,blankImage,blankImage,treadmill,,,,,,,,,,,,0,134,134,275,,,,,,,,,,,,,,,,,,,,,,,,,,,,,,,,,,,1190.2769884999143,1191.2922610999085,1191.2588938999688,1191.8240426999982,1191.8240426999982,None,1193.5893575999653,None,right,0.9872355000115931,1193.5893575999653,None,1194.5959843999008,None,left,1.0859449999406934,1194.5959843999008,None,,,,,,,,,,,,,,,,,,,,,,,PPT08,001,2022-06-29_09h00.40.945,ABstudy,2022.1.4,59.903985899518084,
AB,Lag1_T1P_T2P,1,P,P,8,9,7,5,14,bullet,Did you see the bullet?,0.12,0.016,JPG\,measuringcup01,dice05a,greenolive,lipstick02a,feather03a,balloon01b,lighter01,bullet,stapler04b,plate01b,microscope,brick,thermometer02b,screw02,blankImage,blankImage,blankImage,bullet,,,,,,,,,,,,0,135,135,57,,,,,,,,,,,,,,,,,,,,,,,,,,,,,,,,,,,1195.7182651999174,1196.7314590999158,1196.7146982999984,1197.3237037999788,1197.3237037999788,None,1199.0090456999606,None,left,0.8720355000114068,1199.0090456999606,None,1199.9009982999414,None,left,0.29231620009522885,1199.9009982999414,None,,,,,,,,,,,,,,,,,,,,,,,PPT08,001,2022-06-29_09h00.40.945,ABstudy,2022.1.4,59.903985899518084,
AB,Lag5_T1P_T2P,5,P,P,6,11,5,3,14,wrench,Did you see the wrench?,0.12,0.016,JPG\,cherry01,cymbal,envelope03a,foosballtable,shirt02,stubbywrench01a,sewingmachine01a,candle08b,battery02b,apple07,stapler03b,screwdriver04b,strawberry,sunglasses04,blankImage,blankImage,blankImage,stubbywrench01a,,,,,,,,,,,,0,136,136,122,,,,,,,,,,,,,,,,,,,,,,,,,,,,,,,,,,,1200.2203213999746,1201.2356640999205,1201.2022850000067,1201.7776861999882,1201.7776861999882,None,1203.4979305999586,None,left,0.535858100047335,1203.4979305999586,None,1204.0557613999117,None,left,0.3204519000137225,1204.0557613999117,None,,,,,,,,,,,,,,,,,,,,,,,PPT08,001,2022-06-29_09h00.40.945,ABstudy,2022.1.4,59.903985899518084,
AB,Lag1_T1P_T2A,1,P,A,7,8,6,3,11,Seagull,Did you see the Seagull?,0.12,0.016,JPG\,toiletpaper01a,mushroom01,medal02b,sandal,rice,cd,seagull,pizza,candle08b,garlic01a,toaster01,blankImage,blankImage,blankImage,blankImage,blankImage,blankImage,seagull,,,,,,,,,,,,0,137,137,176,,,,,,,,,,,,,,,,,,,,,,,,,,,,,,,,,,,1204.457929499913,1205.4735389999114,1205.4568217999768,1206.065153399948,1206.065153399948,None,1207.361338699935,None,left,0.9765215000370517,1207.361338699935,None,1208.359574800008,None,right,0.3292570998892188,1208.359574800008,None,,,,,,,,,,,,,,,,,,,,,,,PPT08,001,2022-06-29_09h00.40.945,ABstudy,2022.1.4,59.903985899518084,
