TrialType,CondType,Lag,T1_PA,T2_PA,T1Loc,T2Loc,PreDistractor,PostDistractor,TotalImg,cueWord,T1cue,StimLength,isi,PicFolder,Img1,Img2,Img3,Img4,Img5,Img6,Img7,Img8,Img9,Img10,Img11,Img12,Img13,Img14,Img15,Img16,Img17,T1_Identity,ImageType,T1PA,T2PA,Picture,Image,FullPathName,FilePath,Practice_Trials.thisRepN,Practice_Trials.thisTrialN,Practice_Trials.thisN,Practice_Trials.thisIndex,trials.thisRepN,trials.thisTrialN,trials.thisN,trials.thisIndex,trials_2.thisRepN,trials_2.thisTrialN,trials_2.thisN,trials_2.thisIndex,Practice_Ins.started,Practice_Ins.stopped,End_Prac_Ins.keys,End_Prac_Ins.rt,End_Prac_Ins.started,End_Prac_Ins.stopped,text_2.started,text_2.stopped,Fixation_Cross_2.started,Fixation_Cross_2.stopped,Rapid_Image_Present_2.started,Rapid_Image_Present_2.stopped,key_resp.keys,key_resp.rt,key_resp.started,key_resp.stopped,T1Response_2.started,T1Response_2.stopped,T2Response_2.started,T2Response_2.stopped,key_resp_4.keys,key_resp_4.rt,key_resp_4.started,key_resp_4.stopped,text.started,text.stopped,End_Instructions.keys,End_Instructions.rt,End_Instructions.started,End_Instructions.stopped,text_5.started,text_5.stopped,FC.started,FC.stopped,Rapid_Image_Present.started,Rapid_Image_Present.stopped,T1Response.started,T1Response.stopped,key_resp_2.keys,key_resp_2.rt,key_resp_2.started,key_resp_2.stopped,T2Response.started,T2Response.stopped,key_resp_3.keys,key_resp_3.rt,key_resp_3.started,key_resp_3.stopped,text_6.started,text_6.stopped,Fin_ins.keys,Fin_ins.rt,Fin_ins.started,Fin_ins.stopped,MemTest.started,MemTest.stopped,MemResponse.keys,MemResponse.rt,MemResponse.started,MemResponse.stopped,Display.started,Display.stopped,text_7.started,text_7.stopped,endOfExperiment.started,endOfExperiment.stopped,key_resp_5.keys,key_resp_5.rt,key_resp_5.started,key_resp_5.stopped,participant,session,date,expName,psychopyVersion,frameRate,
,,,,,,,,,,,,,,,,,,,,,,,,,,,,,,,,,,,,,,,,,,,,,,,,,,,,36.41432520002127,None,space,82.08002170000691,36.41432520002127,None,,,,,,,,,,,,,,,,,,,,,,,,,,,,,,,,,,,,,,,,,,,,,,,,,,,,,,,,,,,,,,,,,PPT07,001,2022-06-28_16h39.33.399,ABstudy,2022.1.4,59.893832165615855,
AB_Prac,Lag1_T1P_T2P,1,P,P,6,7,5,5,12,triangle,Did you see the triangle?,0.5,0.016,JPG\,ginger,mousetrap,plum01,slipper01b,dropper01,triangle,stapler04b,pants,raspberry01,rope03,scale01a,vase01,blankImage,blankImage,blankImage,blankImage,blankImage,triangle,,,,,,,,0,0,0,1,,,,,,,,,,,,,,,118.57026309997309,119.57929020002484,119.54597460001241,120.16650619998109,120.16650619998109,None,left,4.38248150004074,126.2388022999512,None,126.2388022999512,None,130.64063599996734,None,left,0.9095009999582544,130.64063599996734,None,,,,,,,,,,,,,,,,,,,,,,,,,,,,,,,,,,,,,,,,,,,,,,,PPT07,001,2022-06-28_16h39.33.399,ABstudy,2022.1.4,59.893832165615855,
AB_Prac,Lag1_T1P_T2A,1,P,A,8,9,7,5,14,flower,Did you see the flower?,0.5,0.016,JPG\,razor01,axe01,binder03b,bowl01,kettle01,lettuce,lime,plasticflower01b,mitten04,pencilcase01,plunger02,strawbasket01,toothpick02,wallet02a,blankImage,blankImage,blankImage,plasticflower01b,,,,,,,,0,1,1,5,,,,,,,,,,,,,,,131.57938120001927,132.59312949993182,132.57757839991245,133.2424094999442,133.16422179993242,None,left,1.1758122999453917,140.205615999992,None,140.205615999992,None,141.40086089994293,None,right,0.7163182999938726,141.40086089994293,None,,,,,,,,,,,,,,,,,,,,,,,,,,,,,,,,,,,,,,,,,,,,,,,PPT07,001,2022-06-28_16h39.33.399,ABstudy,2022.1.4,59.893832165615855,
AB_Prac,Lag1_T1P_T2A,1,P,A,5,6,4,5,11,Webcam,Did you see the Webcam?,0.5,0.016,JPG\,pictureframe04,binder03b,straw,adjustablewrench01b,webcam,cane,hairdryer02a,icepack,kitchenscale01a,lifejacket,piggybank,blankImage,blankImage,blankImage,blankImage,blankImage,blankImage,webcam,,,,,,,,0,2,2,6,,,,,,,,,,,,,,,142.14288719999604,143.15280569996685,143.1360268999124,143.72407749993727,143.72407749993727,None,left,1.0341660999692976,149.2115180999972,None,149.2115180999972,None,150.27646660001483,None,right,0.6331007999833673,150.27646660001483,None,,,,,,,,,,,,,,,,,,,,,,,,,,,,,,,,,,,,,,,,,,,,,,,PPT07,001,2022-06-28_16h39.33.399,ABstudy,2022.1.4,59.893832165615855,
AB_Prac,Lag5_T1P_T2A,5,P,A,6,11,5,5,16,Wheat,Did you see the Wheat?,0.5,0.016,JPG\,bottleopener01,dentalfloss03b,cooler01,icecreamcone01a,paperclip01b,wheat,pencilsharpener02a,plasticbasket01a,toycar04,apricot,hairclip02,rock01a,honeydewmelon,antenna,blackberry,cardboardbox,blankImage,wheat,,,,,,,,0,3,3,7,,,,,,,,,,,,,,,150.929376999964,151.94476879993454,151.91147639998235,152.4860109000001,152.4860109000001,None,left,0.6703970999224111,160.58361550001428,None,160.58361550001428,None,161.27143740002066,None,right,0.6861753000412136,161.27143740002066,None,,,,,,,,,,,,,,,,,,,,,,,,,,,,,,,,,,,,,,,,,,,,,,,PPT07,001,2022-06-28_16h39.33.399,ABstudy,2022.1.4,59.893832165615855,
AB_Prac,Lag5_T1P_T2P,5,P,P,7,12,6,3,15,vacuum,Did you see the vacuum?,0.5,0.016,JPG\,fork07b,lightbulb01,manshoe,saw02b,shoelace,soap03a,vacuumcleaner01,floortile01,necklace,doll,cabbage,stapler03a,hanger02a,laptop01a,nailpolish03b,blankImage,blankImage,vacuumcleaner01,,,,,,,,0,4,4,2,,,,,,,,,,,,,,,161.9913016000064,163.0057017999934,162.98909539997112,163.573867399944,163.573867399944,None,left,0.6525706000393257,171.18477009993512,None,171.18477009993512,None,171.86460740002804,None,left,0.5485625999281183,171.86460740002804,None,,,,,,,,,,,,,,,,,,,,,,,,,,,,,,,,,,,,,,,,,,,,,,,PPT07,001,2022-06-28_16h39.33.399,ABstudy,2022.1.4,59.893832165615855,
AB_Prac,Lag5_T1A_T2P,5,A,P,6,11,5,3,14,dog,Did you see the dog?,0.5,0.016,JPG\,bucket01a,doorlock,cookiecutter,fireextinguisher01,gluestick,highlighter02b,sportbag,spraybottle01,suitcase,thread02,stapler05,walnut01c,icecubetray01a,vikingmask01b,blankImage,blankImage,blankImage,None,,,,,,,,0,5,5,9,,,,,,,,,,,,,,,172.4341344999848,173.44944679993205,173.41613499994855,174.00431739992928,174.00431739992928,None,right,0.7351794000715017,181.11049919994548,None,181.11049919994548,None,181.87766350002494,None,left,0.5197912999428809,181.87766350002494,None,,,,,,,,,,,,,,,,,,,,,,,,,,,,,,,,,,,,,,,,,,,,,,,PPT07,001,2022-06-28_16h39.33.399,ABstudy,2022.1.4,59.893832165615855,
AB_Prac,Lag1_T1A_T2A,1,A,A,8,9,7,3,12,Moose,Did you see the Moose?,0.5,0.016,JPG\,clothespin03b,corkscrew03a,drillbit03a,fusilli03a,needlenosepliers01,perfume01a,pistachio,scrubbingbrush05b,spatula03,toothpastetube,hinge,toydinosaur,blankImage,blankImage,blankImage,blankImage,blankImage,None,,,,,,,,0,6,6,10,,,,,,,,,,,,,,,182.44429679994937,183.44398610002827,183.42809299996588,184.03799199999776,184.03799199999776,None,right,1.345633199904114,190.17189499991946,None,190.17189499991946,None,191.53485279995948,None,right,0.6387083999579772,191.53485279995948,None,,,,,,,,,,,,,,,,,,,,,,,,,,,,,,,,,,,,,,,,,,,,,,,PPT07,001,2022-06-28_16h39.33.399,ABstudy,2022.1.4,59.893832165615855,
AB_Prac,Lag5_T1P_T2P,5,P,P,5,10,4,5,15,washing machine,Did you see the washing machine?,0.5,0.016,JPG\,waterbottle03,wheel01,flashlight02b,zucchini01,washingmachine,headphones02b,nutcracker01,paintroller01,paperclip03,stapler06,ribbon04,electricrazor,bottleofredwine01,pitabread,pot02a,blankImage,blankImage,washingmachine,,,,,,,,0,7,7,4,,,,,,,,,,,,,,,192.20767279993743,193.22004239994567,193.2041551999282,193.86009380000178,193.7885046999436,None,right,2.3947822999907658,201.32249669998419,None,201.32249669998419,None,203.7467666999437,None,left,0.7142825999762863,203.7467666999437,None,,,,,,,,,,,,,,,,,,,,,,,,,,,,,,,,,,,,,,,,,,,,,,,PPT07,001,2022-06-28_16h39.33.399,ABstudy,2022.1.4,59.893832165615855,
AB_Prac,Lag5_T1A_T2A,5,A,A,6,11,5,5,16,castle,Did you see the castle?,0.5,0.016,JPG\,tape02a,englishmuffin,flask,ladle02a,monitor,peach01,keychain,squeegee01b,telephone01b,whisk,walkman,syringe02,baguette01,coaster,box01a,coffeepot03a,blankImage,None,,,,,,,,0,8,8,11,,,,,,,,,,,,,,,204.4835009999806,205.48243400000501,205.46654779999517,206.09513269993477,206.09513269993477,None,right,1.2474370000418276,214.10200239997357,None,214.10200239997357,None,215.37458639999386,None,right,0.6867585999425501,215.37458639999386,None,,,,,,,,,,,,,,,,,,,,,,,,,,,,,,,,,,,,,,,,,,,,,,,PPT07,001,2022-06-28_16h39.33.399,ABstudy,2022.1.4,59.893832165615855,
AB_Prac,Lag1_T1P_T2P,1,P,P,8,9,7,5,14,Tennis racket,Did you see the Tennis racket?,0.5,0.016,JPG\,coconut,computermouse06,croissant01,deodorant02a,pillow01a,peanut01,boot02b,tennisracket,stapler03b,crayon,eggplant,marker01a,plant01,radish01,blankImage,blankImage,blankImage,tennisracket,,,,,,,,0,9,9,0,,,,,,,,,,,,,,,216.10157089994755,217.1098719999427,217.09306069999002,217.70066899992526,217.70066899992526,None,left,0.990515899960883,224.74412439996377,None,224.74412439996377,None,225.75137219997123,None,left,0.8614126000320539,225.75137219997123,None,,,,,,,,,,,,,,,,,,,,,,,,,,,,,,,,,,,,,,,,,,,,,,,PPT07,001,2022-06-28_16h39.33.399,ABstudy,2022.1.4,59.893832165615855,
AB_Prac,Lag5_T1P_T2P,5,P,P,5,10,4,5,15,Vulture,Did you see the Vulture?,0.5,0.016,JPG\,shorts01,toast,ramekin01,bib,vulture,cracker02,date,glasses01a,hat03b,stapler01,measuringtape01,nail,pill,drum01,starfish01,blankImage,blankImage,vulture,,,,,,,,0,10,10,3,,,,,,,,,,,,,,,226.64088409999385,227.6533884999808,227.63673309993464,228.23270759999286,228.23270759999286,None,left,0.7843831999925897,235.70862089993898,None,235.70862089993898,None,236.51274449995253,None,left,0.5644812999526039,236.51274449995253,None,,,,,,,,,,,,,,,,,,,,,,,,,,,,,,,,,,,,,,,,,,,,,,,PPT07,001,2022-06-28_16h39.33.399,ABstudy,2022.1.4,59.893832165615855,
AB_Prac,Lag5_T1P_T2A,5,P,A,6,11,5,5,16,bread,Did you see the bread?,0.5,0.016,JPG\,cleaver01,clipboard,dustpan,hikingshoe01,notebook03a,baguette01,playingcard,pliers02b,styrofoamcup,rollingpin01a,swimgoggles,wineglass01,fryingpan02a,safetypin,syringe01,thimble,blankImage,baguette01,,,,,,,,0,11,11,8,,,,,,,,,,,,,,,237.10160219995305,238.1142723999219,238.0974864999298,238.6635282000061,238.6635282000061,None,left,0.753812100039795,246.69963809999172,None,246.69963809999172,None,247.47316910000518,None,right,0.4921921999193728,247.47316910000518,None,,,,,,,,,,,,,,,,,,,,,,,,,,,,,,,,,,,,,,,,,,,,,,,PPT07,001,2022-06-28_16h39.33.399,ABstudy,2022.1.4,59.893832165615855,
,,,,,,,,,,,,,,,,,,,,,,,,,,,,,,,,,,,,,,,,,,,,,,,,,,,,,,,,,,,,,,,,,,,,,,,,,,,,247.993776599993,None,space,15.258961100014858,247.993776599993,None,,,,,,,,,,,,,,,,,,,,,,,,,,,,,,,,,,,,,,,,,PPT07,001,2022-06-28_16h39.33.399,ABstudy,2022.1.4,59.893832165615855,
AB,Lag1_T1A_T2P,1,A,P,7,8,6,5,13,Ant,Did you see the Ant?,0.12,0.016,JPG\,rice,watermelon01,tableknife02,scarf,computerkeyboard02,cauliflower01,battery02b,stapler03b,book01b,sandal,sponge01,microscope,tomato01,blankImage,blankImage,blankImage,blankImage,sandcastle,,,,,,,,,,,,0,0,0,242,,,,,,,,,,,,,,,,,,,,,,,,,,,,,,,,,,,264.0062890999252,265.00727659999393,264.9905157999601,265.59907190001104,265.59907190001104,None,267.19277969992254,None,right,3.2437879000790417,267.19277969992254,None,270.4653283000225,None,left,1.0192520000273362,270.4653283000225,None,,,,,,,,,,,,,,,,,,,,,,,PPT07,001,2022-06-28_16h39.33.399,ABstudy,2022.1.4,59.893832165615855,
AB,Lag1_T1A_T2P,1,A,P,5,6,4,3,9,Stool,Did you see the Stool?,0.12,0.016,JPG\,cherry01,cymbal,envelope03a,foosballtable,shirt02,stapler01,sewingmachine01a,candle08b,battery02b,blankImage,blankImage,blankImage,blankImage,blankImage,blankImage,blankImage,blankImage,hulahoop,,,,,,,,,,,,0,1,1,236,,,,,,,,,,,,,,,,,,,,,,,,,,,,,,,,,,,271.527454999974,272.5317113000201,272.51498450001236,273.0818492999533,273.0818492999533,None,274.22828129993286,None,right,1.7924209999619052,274.22828129993286,None,276.0515872000251,None,right,3.346096699940972,276.0515872000251,None,,,,,,,,,,,,,,,,,,,,,,,PPT07,001,2022-06-28_16h39.33.399,ABstudy,2022.1.4,59.893832165615855,
AB,Lag5_T1P_T2P,5,P,P,8,13,7,4,17,Accordion,Did you see the Accordion?,0.12,0.016,JPG\,toiletpaper01a,lipstick02a,potato02b,speaker04,globe,strawberry,carrot01,accordion01,sock01a,candle08b,pen04b,calculator01,stapler01,brick,pear01,fork03c,blankImage,accordion01,,,,,,,,,,,,0,2,2,162,,,,,,,,,,,,,,,,,,,,,,,,,,,,,,,,,,,279.4237051999662,280.4391402999172,280.4056437999243,280.9886211999692,280.9886211999692,None,282.9627241999842,None,left,1.074473400018178,282.9627241999842,None,284.0599664999172,None,left,0.47251230000983924,284.0599664999172,None,,,,,,,,,,,,,,,,,,,,,,,PPT07,001,2022-06-28_16h39.33.399,ABstudy,2022.1.4,59.893832165615855,
AB,Lag1_T1A_T2P,1,A,P,8,9,7,5,14,calendar,Did you see the calendar?,0.12,0.016,JPG\,foosballtable,candy,envelope03a,microscope,pencil01,leaf02a,scissors01,watermelon01,stapler04b,dandelion,pineapple01a,hammer01,celery,thermometer02b,blankImage,blankImage,blankImage,trampoline,,,,,,,,,,,,0,3,3,245,,,,,,,,,,,,,,,,,,,,,,,,,,,,,,,,,,,284.5636923999991,285.5778755999636,285.5611272000242,286.0784889999777,286.058528100024,None,287.8427844999824,None,right,4.113931900006719,287.8427844999824,None,291.9844786999747,None,right,0.39622779993806034,291.9844786999747,None,,,,,,,,,,,,,,,,,,,,,,,PPT07,001,2022-06-28_16h39.33.399,ABstudy,2022.1.4,59.893832165615855,
AB,Lag5_T1P_T2P,5,P,P,7,12,6,3,15,Rollerblade,Did you see the Rollerblade?,0.12,0.016,JPG\,hammer01,sponge01,toaster01,cherry01,feather03a,mushroom01,rollerblade,pencil01,tennisball01b,brick,clock04,stapler06,teabag,garlic01a,envelope03a,blankImage,blankImage,rollerblade,,,,,,,,,,,,0,4,4,116,,,,,,,,,,,,,,,,,,,,,,,,,,,,,,,,,,,292.4097784999758,293.4198114000028,293.4041488999501,294.05852790002245,293.98503689991776,None,295.8558485999238,None,left,0.7814639999996871,295.8558485999238,None,296.65573989995755,None,left,0.38068529998417944,296.65573989995755,None,,,,,,,,,,,,,,,,,,,,,,,PPT07,001,2022-06-28_16h39.33.399,ABstudy,2022.1.4,59.893832165615855,
AB,Lag5_T1P_T2P,5,P,P,5,10,4,3,13,lollipop,Did you see the lollipop?,0.12,0.016,JPG\,brownsugar,candle01,match,printer02,lollipop04,balloon01b,belt02a,potato02b,computerkeyboard02,stapler03a,rice,mushroom01,pencil01,blankImage,blankImage,blankImage,blankImage,lollipop04,,,,,,,,,,,,0,5,5,112,,,,,,,,,,,,,,,,,,,,,,,,,,,,,,,,,,,297.06215010001324,298.0738612000132,298.05728269997053,298.5606296999613,298.5606296999613,None,300.18113029992674,None,left,2.2083337999647483,300.18113029992674,None,302.41228049993515,None,right,1.3856505999574438,302.41228049993515,None,,,,,,,,,,,,,,,,,,,,,,,PPT07,001,2022-06-28_16h39.33.399,ABstudy,2022.1.4,59.893832165615855,
AB,Lag5_T1P_T2P,5,P,P,7,12,6,5,17,statue,Did you see the statue?,0.12,0.016,JPG\,pear01,clock01a,cymbal,match,ashtray01,globe,statue,button01,lemon02,pen04b,dice05a,stapler06,toothbrush03b,screwdriver04b,feather03a,key01,blankImage,statue,,,,,,,,,,,,0,6,6,100,,,,,,,,,,,,,,,,,,,,,,,,,,,,,,,,,,,303.8336299000075,304.8466944999527,304.829997099936,305.405010699993,305.405010699993,None,307.3508638999192,None,left,0.7017543000401929,307.3508638999192,None,308.08641859993804,None,left,0.3179203000618145,308.08641859993804,None,,,,,,,,,,,,,,,,,,,,,,,PPT07,001,2022-06-28_16h39.33.399,ABstudy,2022.1.4,59.893832165615855,
AB,Lag5_T1P_T2P,5,P,P,6,11,5,5,16,Car,Did you see the Car?,0.12,0.016,JPG\,leaf02a,apple07,cd,pineapple01a,envelope03a,car,pig,canoftennisballs,rice,feather03a,stapler03a,balloon01b,avocado01,calculator01,watermelon01,teabag,blankImage,car,,,,,,,,,,,,0,7,7,127,,,,,,,,,,,,,,,,,,,,,,,,,,,,,,,,,,,308.439497299958,309.4515057000099,309.43467769993003,310.019254899933,310.019254899933,None,311.97203930001706,None,right,1.1603435000870377,311.97203930001706,None,313.1551381999161,None,left,2.4660067999502644,313.1551381999161,None,,,,,,,,,,,,,,,,,,,,,,,PPT07,001,2022-06-28_16h39.33.399,ABstudy,2022.1.4,59.893832165615855,
AB,Lag5_T1P_T2P,5,P,P,6,11,5,3,14,Poker chips,Did you see the Poker chips?,0.12,0.016,JPG\,iron01b,brick,broccoli01a,balloon01b,tomato01,pokerchips,sandal,teabag,scissors01,pineapple01a,stapler04b,measuringcup01,sock01a,book01b,blankImage,blankImage,blankImage,pokerchips,,,,,,,,,,,,0,8,8,154,,,,,,,,,,,,,,,,,,,,,,,,,,,,,,,,,,,315.702162600006,316.7086604000069,316.6920367999701,317.28366529999766,317.28366529999766,None,318.8855590999592,None,left,0.7918570999754593,318.8855590999592,None,319.69487409992144,None,left,0.3424203998874873,319.69487409992144,None,,,,,,,,,,,,,,,,,,,,,,,PPT07,001,2022-06-28_16h39.33.399,ABstudy,2022.1.4,59.893832165615855,
AB,Lag5_T1P_T2P,5,P,P,5,10,4,5,15,ear,Did you see the ear?,0.12,0.016,JPG\,fork03c,plate01b,toiletpaper01a,greenolive,ear,blueberry01,onion,calculator01,envelope03a,stapler06,book01b,pencil01,sewingmachine01a,brick,watermelon01,blankImage,blankImage,ear,,,,,,,,,,,,0,9,9,107,,,,,,,,,,,,,,,,,,,,,,,,,,,,,,,,,,,320.0641475999728,321.0796956999693,321.0462679999182,321.61557079991326,321.61557079991326,None,323.546033599996,None,left,0.5792271998943761,323.546033599996,None,324.1498542999616,None,left,0.3351225999649614,324.1498542999616,None,,,,,,,,,,,,,,,,,,,,,,,PPT07,001,2022-06-28_16h39.33.399,ABstudy,2022.1.4,59.893832165615855,
AB,Lag1_T1P_T2P,1,P,P,7,8,6,3,11,compass,Did you see the compass?,0.12,0.016,JPG\,brick,plate01b,pen04b,toaster01,screwdriver04b,candle01,magneticcompass,stapler03a,pig,ring01,orange,blankImage,blankImage,blankImage,blankImage,blankImage,blankImage,magneticcompass,,,,,,,,,,,,0,10,10,66,,,,,,,,,,,,,,,,,,,,,,,,,,,,,,,,,,,324.5189840999665,325.53435610001907,325.5009013999952,326.10037479992025,326.10037479992025,None,327.51229689992033,None,left,1.0448896000161767,327.51229689992033,None,328.5874325999757,None,right,0.3296254000160843,328.5874325999757,None,,,,,,,,,,,,,,,,,,,,,,,PPT07,001,2022-06-28_16h39.33.399,ABstudy,2022.1.4,59.893832165615855,
AB,Lag5_T1P_T2P,5,P,P,6,11,5,5,16,scooter,Did you see the scooter?,0.12,0.016,JPG\,thermometer02b,candle08b,comb02a,toothbrush03b,brick,scooter,key01,pineapple01a,candy,birthdaycandle,stapler04b,canoftennisballs,teabag,medal02b,balloon01b,banana01,blankImage,scooter,,,,,,,,,,,,0,11,11,118,,,,,,,,,,,,,,,,,,,,,,,,,,,,,,,,,,,328.9418967999518,329.95532870001625,329.9385859000031,330.5478082000045,330.5478082000045,None,332.50089609995484,None,left,0.5034257000079378,332.50089609995484,None,333.02504480001517,None,left,0.3552240999415517,333.02504480001517,None,,,,,,,,,,,,,,,,,,,,,,,PPT07,001,2022-06-28_16h39.33.399,ABstudy,2022.1.4,59.893832165615855,
AB,Lag5_T1P_T2P,5,P,P,8,13,7,5,18,Ping pong Table,Did you see the Ping pong Table?,0.12,0.016,JPG\,shirt02,match,screw02,foosballtable,blueberry01,pineapple01a,sewingmachine01a,pingpongtable,button01,comb02a,dice05a,measuringcup01,stapler04b,printer02,carrot01,watermelon01,blankImage,pingpongtable,,,,,,,,,,,,0,12,12,152,,,,,,,,,,,,,,,,,,,,,,,,,,,,,,,,,,,333.4134337999858,334.4266778000165,334.4099308999721,334.9826511000283,334.9826511000283,None,336.93386679992545,None,left,0.5987238000379875,336.93386679992545,None,337.5630234000273,None,left,0.35355080000590533,337.5630234000273,None,,,,,,,,,,,,,,,,,,,,,,,PPT07,001,2022-06-28_16h39.33.399,ABstudy,2022.1.4,59.893832165615855,
AB,Lag1_T1P_T2P,1,P,P,8,9,7,5,14,giraffe,Did you see the giraffe?,0.12,0.016,JPG\,pencil01,foosballtable,banana01,lipstick02a,toaster01,grape01,key01,giraffe,stapler03b,pineapple01a,strawberry,teabag,dandelion,paintbrush01,blankImage,blankImage,blankImage,giraffe,,,,,,,,,,,,0,13,13,0,,,,,,,,,,,,,,,,,,,,,,,,,,,,,,,,,,,338.0103546999162,339.0143409000011,338.9976609000005,339.5954467999982,339.5954467999982,None,341.2184160000179,None,left,0.5300020000431687,341.2184160000179,None,341.7676039999351,None,left,0.32584309997037053,341.7676039999351,None,,,,,,,,,,,,,,,,,,,,,,,PPT07,001,2022-06-28_16h39.33.399,ABstudy,2022.1.4,59.893832165615855,
AB,Lag5_T1A_T2P,5,A,P,5,10,4,5,15,Sushi,Did you see the Sushi?,0.12,0.016,JPG\,pineapple01a,leaf02a,grape01,toiletpaper01a,match,tennisball01b,spoon01,chain01,pig,stapler04b,ring01,lemon02,dice05a,pizza,potato02b,blankImage,blankImage,crown,,,,,,,,,,,,0,14,14,285,,,,,,,,,,,,,,,,,,,,,,,,,,,,,,,,,,,342.12225319992285,343.13516469998285,343.1184981999686,343.7191012999974,343.7191012999974,None,345.6093358999351,None,right,1.0120106000686064,345.6093358999351,None,346.63910539995413,None,right,0.7573470000643283,346.63910539995413,None,,,,,,,,,,,,,,,,,,,,,,,PPT07,001,2022-06-28_16h39.33.399,ABstudy,2022.1.4,59.893832165615855,
AB,Lag1_T1P_T2P,1,P,P,6,7,5,3,10,fortune cookie,Did you see the fortune cookie?,0.12,0.016,JPG\,scissors01,grape01,mushroom01,toiletpaper01a,greenolive,fortunecookie,stapler03b,ashtray01,carrot01,pineapple01a,blankImage,blankImage,blankImage,blankImage,blankImage,blankImage,blankImage,fortunecookie,,,,,,,,,,,,0,15,15,42,,,,,,,,,,,,,,,,,,,,,,,,,,,,,,,,,,,347.4294150000205,348.4404625999741,348.42386189999525,349.00541709992103,349.00541709992103,None,350.2541936999187,None,left,0.8789156000129879,350.2541936999187,None,351.1596511999378,None,right,0.7503574000438675,351.1596511999378,None,,,,,,,,,,,,,,,,,,,,,,,PPT07,001,2022-06-28_16h39.33.399,ABstudy,2022.1.4,59.893832165615855,
AB,Lag1_T1P_T2P,1,P,P,7,8,6,5,13,disco ball,Did you see the disco ball?,0.12,0.016,JPG\,candle01,paintbrush01,scissors01,fan,microscope,toothbrush03b,discoball,stapler03b,teabag,pencil01,lemon02,ashtray01,shirt02,blankImage,blankImage,blankImage,blankImage,discoball,,,,,,,,,,,,0,16,16,60,,,,,,,,,,,,,,,,,,,,,,,,,,,,,,,,,,,351.92959790001623,352.9447553999489,352.9113409999991,353.5186950999778,353.5186950999778,None,355.1864002000075,None,left,0.6822588999057189,355.1864002000075,None,355.8980604999233,None,right,0.6823909999802709,355.8980604999233,None,,,,,,,,,,,,,,,,,,,,,,,PPT07,001,2022-06-28_16h39.33.399,ABstudy,2022.1.4,59.893832165615855,
AB,Lag1_T1P_T2A,1,P,A,7,8,6,3,11,walkie talkie,Did you see the walkie talkie?,0.12,0.016,JPG\,teabag,envelope03a,cellphone,apple07,cauliflower01,orange,walkietalkie,book01b,hammer01,feather03a,toaster01,blankImage,blankImage,blankImage,blankImage,blankImage,blankImage,walkietalkie,,,,,,,,,,,,0,17,17,197,,,,,,,,,,,,,,,,,,,,,,,,,,,,,,,,,,,356.60642440000083,357.6164555000141,357.5996724999277,358.16646759992,358.16646759992,None,359.5754945999943,None,left,0.8294360999716446,359.5754945999943,None,360.4352735999273,None,right,0.4505755000282079,360.4352735999273,None,,,,,,,,,,,,,,,,,,,,,,,PPT07,001,2022-06-28_16h39.33.399,ABstudy,2022.1.4,59.893832165615855,
AB,Lag1_T1P_T2P,1,P,P,8,9,7,3,12,zebra,Did you see the zebra?,0.12,0.016,JPG\,apple07,toiletpaper01a,pizza,dandelion,greenolive,eraser,microscope,zebra,stapler03b,lipstick02a,balloon01b,sandal,blankImage,blankImage,blankImage,blankImage,blankImage,zebra,,,,,,,,,,,,0,18,18,28,,,,,,,,,,,,,,,,,,,,,,,,,,,,,,,,,,,360.91174130002037,361.92075379996095,361.90382869995665,362.4821598000126,362.4821598000126,None,363.97062119992916,None,left,0.7377015000674874,363.97062119992916,None,364.74005359993316,None,right,0.49621510005090386,364.74005359993316,None,,,,,,,,,,,,,,,,,,,,,,,PPT07,001,2022-06-28_16h39.33.399,ABstudy,2022.1.4,59.893832165615855,
AB,Lag5_T1P_T2A,5,P,A,5,10,4,3,13,cork,Did you see the cork?,0.12,0.016,JPG\,clock01a,grape01,plate01b,key01,cork02,feather03a,pineapple01a,iron01b,toothbrush03b,comb02a,broom01,toaster01,pizza,blankImage,blankImage,blankImage,blankImage,cork02,,,,,,,,,,,,0,19,19,209,,,,,,,,,,,,,,,,,,,,,,,,,,,,,,,,,,,365.26198900002055,366.2749395999126,366.2582385999849,366.83295740000904,366.83295740000904,None,368.4762403999921,None,left,0.8005230999551713,368.4762403999921,None,369.294652499957,None,right,0.44601329998113215,369.294652499957,None,,,,,,,,,,,,,,,,,,,,,,,PPT07,001,2022-06-28_16h39.33.399,ABstudy,2022.1.4,59.893832165615855,
AB,Lag5_T1P_T2P,5,P,P,5,10,4,5,15,Eye,Did you see the Eye?,0.12,0.016,JPG\,apple07,toiletpaper01a,pizza,dandelion,eye,eraser,microscope,violin,orange,stapler01,balloon01b,sandal,lighter01,fan,book01b,blankImage,blankImage,eye,,,,,,,,,,,,0,20,20,171,,,,,,,,,,,,,,,,,,,,,,,,,,,,,,,,,,,369.769830300007,370.7794030000223,370.76263140002266,371.33662969991565,371.33662969991565,None,373.1495039999718,None,left,0.5121716000139713,373.1495039999718,None,373.68325989996083,None,left,0.36949749989435077,373.68325989996083,None,,,,,,,,,,,,,,,,,,,,,,,PPT07,001,2022-06-28_16h39.33.399,ABstudy,2022.1.4,59.893832165615855,
AB,Lag1_T1P_T2P,1,P,P,6,7,5,4,11,bowling pin,Did you see the bowling pin?,0.12,0.016,JPG\,strawberry,leaf02a,clock04,candle01,avocado01,bowlingpin,stapler03a,brownsugar,ring01,lemon02,fork03c,blankImage,blankImage,blankImage,blankImage,blankImage,blankImage,bowlingpin,,,,,,,,,,,,0,21,21,8,,,,,,,,,,,,,,,,,,,,,,,,,,,,,,,,,,,374.0914227999747,375.1004113999661,375.08382439997513,375.678446099977,375.678446099977,None,376.972496900009,None,left,0.8654253999702632,376.972496900009,None,377.8706975999521,None,right,0.3741674000630155,377.8706975999521,None,,,,,,,,,,,,,,,,,,,,,,,PPT07,001,2022-06-28_16h39.33.399,ABstudy,2022.1.4,59.893832165615855,
AB,Lag5_T1P_T2A,5,P,A,6,11,5,5,16,hat,Did you see the hat?,0.12,0.016,JPG\,apple07,toiletpaper01a,pizza,dandelion,greenolive,pilgrimhat,microscope,violin,orange,lipstick02a,balloon01b,sandal,lighter01,fan,book01b,sewingmachine01a,blankImage,pilgrimhat,,,,,,,,,,,,0,22,22,206,,,,,,,,,,,,,,,,,,,,,,,,,,,,,,,,,,,378.2749070000136,379.28780029993504,379.27126039995346,379.86848019994795,379.86848019994795,None,381.7817581000272,None,left,1.2150008999742568,381.7817581000272,None,383.02505029994063,None,right,0.42694989999290556,383.02505029994063,None,,,,,,,,,,,,,,,,,,,,,,,PPT07,001,2022-06-28_16h39.33.399,ABstudy,2022.1.4,59.893832165615855,
AB,Lag5_T1P_T2P,5,P,P,6,11,5,3,14,ladder,Did you see the ladder?,0.12,0.016,JPG\,celery,orange,scissors01,balloon01b,avocado01,stepladder,mushroom01,sewingmachine01a,lighter01,dice05a,stapler01,fan,cd,sock01a,blankImage,blankImage,blankImage,stepladder,,,,,,,,,,,,0,23,23,119,,,,,,,,,,,,,,,,,,,,,,,,,,,,,,,,,,,383.47972119995393,384.49292089999653,384.476272800006,385.0578183999751,385.0578183999751,None,386.7507305999752,None,left,0.5978255999507383,386.7507305999752,None,387.3789577999851,None,left,0.30505550000816584,387.3789577999851,None,,,,,,,,,,,,,,,,,,,,,,,PPT07,001,2022-06-28_16h39.33.399,ABstudy,2022.1.4,59.893832165615855,
AB,Lag1_T1A_T2P,1,A,P,6,7,5,5,12,Piano,Did you see the Piano?,0.12,0.016,JPG\,toiletpaper01a,mushroom01,medal02b,sandal,rice,cd,stapler01,pizza,candle08b,garlic01a,toaster01,belt02a,blankImage,blankImage,blankImage,blankImage,blankImage,moose,,,,,,,,,,,,0,24,24,239,,,,,,,,,,,,,,,,,,,,,,,,,,,,,,,,,,,387.7148568999255,388.73021920002066,388.69707659992855,389.27791389997583,389.27791389997583,None,390.7532691999804,None,right,1.8192046999465674,390.7532691999804,None,392.60120119992644,None,left,0.5233115999726579,392.60120119992644,None,,,,,,,,,,,,,,,,,,,,,,,PPT07,001,2022-06-28_16h39.33.399,ABstudy,2022.1.4,59.893832165615855,
AB,Lag1_T1P_T2P,1,P,P,7,8,6,4,12,Christmas Tree,Did you see the Christmas Tree?,0.12,0.016,JPG\,sandal,fan,printer02,cellphone,mushroom01,candle08b,firtree,stapler03a,lamp04a,hammer01,teabag,aceofdiamond,blankImage,blankImage,blankImage,blankImage,blankImage,firtree,,,,,,,,,,,,0,25,25,6,,,,,,,,,,,,,,,,,,,,,,,,,,,,,,,,,,,393.1582053999882,394.1693313999567,394.1528566000052,394.73836369998753,394.73836369998753,None,396.16290789993946,None,left,0.9696886000456288,396.16290789993946,None,397.15574279997963,None,right,0.36878639995120466,397.15574279997963,None,,,,,,,,,,,,,,,,,,,,,,,PPT07,001,2022-06-28_16h39.33.399,ABstudy,2022.1.4,59.893832165615855,
AB,Lag1_T1A_T2P,1,A,P,6,7,5,5,12,Ostrich,Did you see the Ostrich?,0.12,0.016,JPG\,thermometer02b,candle08b,comb02a,toothbrush03b,brick,computerkeyboard02,stapler05,pineapple01a,candy,birthdaycandle,clock04,hairclip03,blankImage,blankImage,blankImage,blankImage,blankImage,discoball,,,,,,,,,,,,0,26,26,232,,,,,,,,,,,,,,,,,,,,,,,,,,,,,,,,,,,397.5665159999626,398.57363489991985,398.5571145999711,399.1288608999457,399.1288608999457,None,400.64173449994996,None,right,2.588079800014384,400.64173449994996,None,403.2616402999265,None,left,0.3432112999726087,403.2616402999265,None,,,,,,,,,,,,,,,,,,,,,,,PPT07,001,2022-06-28_16h39.33.399,ABstudy,2022.1.4,59.893832165615855,
AB,Lag5_T1A_T2P,5,A,P,6,11,5,3,14,Kiwi,Did you see the Kiwi?,0.12,0.016,JPG\,paintbrush01,dice05a,watermelon01,broccoli01a,hammer01,leaf02a,match,tennisball01b,lemon02,fan,stapler06,grape01,envelope03a,sponge01,blankImage,blankImage,blankImage,granolabar01,,,,,,,,,,,,0,27,27,261,,,,,,,,,,,,,,,,,,,,,,,,,,,,,,,,,,,403.63740939996205,404.64632299996447,404.62981089996174,405.2052855999209,405.2052855999209,None,406.92786900000647,None,right,2.1247463999316096,406.92786900000647,None,409.08415269991383,None,left,1.2161606000736356,409.08415269991383,None,,,,,,,,,,,,,,,,,,,,,,,PPT07,001,2022-06-28_16h39.33.399,ABstudy,2022.1.4,59.893832165615855,
AB,Lag5_T1P_T2P,5,P,P,6,11,5,4,15,shovel,Did you see the shovel?,0.12,0.016,JPG\,carrot01,watch02a,clock04,microscope,toiletpaper01a,shovel01,alligator,ring01,brick,watermelon01,stapler03b,pencil01,measuringcup01,balloon01b,computerkeyboard02,blankImage,blankImage,shovel01,,,,,,,,,,,,0,28,28,139,,,,,,,,,,,,,,,,,,,,,,,,,,,,,,,,,,,410.32263179996517,411.33623309992254,411.3197248999495,411.8874226999469,411.8874226999469,None,413.73915149993263,None,right,1.3533113000448793,413.73915149993263,None,415.1235027000075,None,right,1.0807991999899969,415.1235027000075,None,,,,,,,,,,,,,,,,,,,,,,,PPT07,001,2022-06-28_16h39.33.399,ABstudy,2022.1.4,59.893832165615855,
AB,Lag1_T1P_T2P,1,P,P,5,6,4,3,9,Pumpkin,Did you see the Pumpkin?,0.12,0.016,JPG\,binoculars01b,speaker04,sandal,envelope03a,pumpkin,stapler03b,battery02b,chain01,measuringcup01,blankImage,blankImage,blankImage,blankImage,blankImage,blankImage,blankImage,blankImage,pumpkin,,,,,,,,,,,,0,29,29,23,,,,,,,,,,,,,,,,,,,,,,,,,,,,,,,,,,,416.2307191999862,417.24295989994425,417.22735509998165,417.86847139999736,417.86847139999736,None,418.9522918999428,None,left,0.9802685000468045,418.9522918999428,None,419.9613670000108,None,right,0.3711889999685809,419.9613670000108,None,,,,,,,,,,,,,,,,,,,,,,,PPT07,001,2022-06-28_16h39.33.399,ABstudy,2022.1.4,59.893832165615855,
AB,Lag1_T1P_T2P,1,P,P,7,8,6,3,11,cloud,Did you see the cloud?,0.12,0.016,JPG\,lighter01,hammer01,spoon01,chain01,cymbal,sponge01,cloud,stapler06,pig,watermelon01,cauliflower01,blankImage,blankImage,blankImage,blankImage,blankImage,blankImage,cloud,,,,,,,,,,,,0,30,30,36,,,,,,,,,,,,,,,,,,,,,,,,,,,,,,,,,,,420.364096699981,421.3794570999453,421.34607219998725,421.96109799994156,421.96109799994156,None,423.28222920000553,None,left,0.9942631999729201,423.28222920000553,None,424.298963899957,None,right,0.4416480000363663,424.298963899957,None,,,,,,,,,,,,,,,,,,,,,,,PPT07,001,2022-06-28_16h39.33.399,ABstudy,2022.1.4,59.893832165615855,
AB,Lag1_T1P_T2P,1,P,P,8,9,7,4,13,crab,Did you see the crab?,0.12,0.016,JPG\,candle01,fork03c,plate01b,violin,computerkeyboard02,candy,calculator01,crab01,stapler04b,sock01a,teabag,banana01,cd,blankImage,blankImage,blankImage,blankImage,crab01,,,,,,,,,,,,0,31,31,37,,,,,,,,,,,,,,,,,,,,,,,,,,,,,,,,,,,424.7683658999158,425.783813499962,425.7504169999156,426.33499659993686,426.33499659993686,None,427.9256769999629,None,left,1.071292500011623,427.9256769999629,None,429.02038749994244,None,right,0.4557627000613138,429.02038749994244,None,,,,,,,,,,,,,,,,,,,,,,,PPT07,001,2022-06-28_16h39.33.399,ABstudy,2022.1.4,59.893832165615855,
AB,Lag1_T1P_T2P,1,P,P,7,8,6,3,11,trampoline,Did you see the trampoline?,0.12,0.016,JPG\,dice05a,watch02a,pig,lighter01,button01,strawberry,trampoline,stapler03a,plate01b,pen04b,feather03a,blankImage,blankImage,blankImage,blankImage,blankImage,blankImage,trampoline,,,,,,,,,,,,0,32,32,73,,,,,,,,,,,,,,,,,,,,,,,,,,,,,,,,,,,429.50863149994984,430.52214859996457,430.505377399968,431.0930922999978,431.0930922999978,None,432.43985089997295,None,left,0.7406800999306142,432.43985089997295,None,433.20828669995535,None,left,0.4281665999442339,433.20828669995535,None,,,,,,,,,,,,,,,,,,,,,,,PPT07,001,2022-06-28_16h39.33.399,ABstudy,2022.1.4,59.893832165615855,
AB,Lag5_T1P_T2P,5,P,P,5,10,4,3,13,Sushi,Did you see the Sushi?,0.12,0.016,JPG\,carrot01,greenolive,fork03c,chain01,makiroll,watermelon01,tableknife02,printer02,comb02a,stapler03b,orange,rice,fan,blankImage,blankImage,blankImage,blankImage,makiroll,,,,,,,,,,,,0,33,33,135,,,,,,,,,,,,,,,,,,,,,,,,,,,,,,,,,,,433.6637983999681,434.6762864999473,434.65953099995386,435.27002089994494,435.27002089994494,None,436.8130109999329,None,left,0.5515743000432849,436.8130109999329,None,437.39564909995534,None,left,0.31244439992588013,437.39564909995534,None,,,,,,,,,,,,,,,,,,,,,,,PPT07,001,2022-06-28_16h39.33.399,ABstudy,2022.1.4,59.893832165615855,
AB,Lag1_T1P_T2P,1,P,P,8,9,7,3,12,apron,Did you see the apron?,0.12,0.016,JPG\,avocado01,tambourine02,match,cauliflower01,paintbrush01,clock01a,pig,apron,stapler03a,cellphone,watch02a,pear01,blankImage,blankImage,blankImage,blankImage,blankImage,apron,,,,,,,,,,,,0,34,34,32,,,,,,,,,,,,,,,,,,,,,,,,,,,,,,,,,,,437.7312826999696,438.74667239992414,438.71321159997024,439.3317243999336,439.3317243999336,None,440.78032229992095,None,left,0.9039700999855995,440.78032229992095,None,441.71636570000555,None,right,0.3039282999234274,441.71636570000555,None,,,,,,,,,,,,,,,,,,,,,,,PPT07,001,2022-06-28_16h39.33.399,ABstudy,2022.1.4,59.893832165615855,
AB,Lag1_T1A_T2P,1,A,P,5,6,4,5,11,rake,Did you see the rake?,0.12,0.016,JPG\,candy,brownsugar,dice05a,cd,sock01a,stapler01,button01,potato02b,feather03a,grape01,dandelion,blankImage,blankImage,blankImage,blankImage,blankImage,blankImage,greatwhiteshark,,,,,,,,,,,,0,35,35,256,,,,,,,,,,,,,,,,,,,,,,,,,,,,,,,,,,,442.0526097000111,443.0677280999953,443.03436729998793,443.60885720001534,443.60885720001534,None,444.92722459998913,None,left,1.3252253999235108,444.92722459998913,None,446.27132429997437,None,right,0.3491783000063151,446.27132429997437,None,,,,,,,,,,,,,,,,,,,,,,,PPT07,001,2022-06-28_16h39.33.399,ABstudy,2022.1.4,59.893832165615855,
AB,Lag1_T1P_T2P,1,P,P,7,8,6,4,12,cow,Did you see the cow?,0.12,0.016,JPG\,fork03c,plate01b,toiletpaper01a,greenolive,rice,blueberry01,cow,stapler01,envelope03a,orange,book01b,pencil01,blankImage,blankImage,blankImage,blankImage,blankImage,cow,,,,,,,,,,,,0,36,36,59,,,,,,,,,,,,,,,,,,,,,,,,,,,,,,,,,,,446.6417377999751,447.65574740001466,447.6223337999545,448.2017938999925,448.2017938999925,None,449.6789907999337,None,left,0.5730155999772251,449.6789907999337,None,450.27526659995783,None,left,0.3289455999620259,450.27526659995783,None,,,,,,,,,,,,,,,,,,,,,,,PPT07,001,2022-06-28_16h39.33.399,ABstudy,2022.1.4,59.893832165615855,
AB,Lag5_T1P_T2A,5,P,A,5,10,4,3,13,martini glass,Did you see the martini glass?,0.12,0.016,JPG\,brick,eraser,cucumber,ashtray01,martiniglass01b,binoculars01b,lipstick02a,screwdriver04b,grape01,brownsugar,battery02b,iron01b,dice05a,blankImage,blankImage,blankImage,blankImage,martiniglass01b,,,,,,,,,,,,0,37,37,217,,,,,,,,,,,,,,,,,,,,,,,,,,,,,,,,,,,450.6305428999476,451.6426154000219,451.6260116000194,452.21599419997074,452.21599419997074,None,453.8669160999125,None,left,0.8011673999717459,453.8669160999125,None,454.696417799918,None,right,0.3327052000677213,454.696417799918,None,,,,,,,,,,,,,,,,,,,,,,,PPT07,001,2022-06-28_16h39.33.399,ABstudy,2022.1.4,59.893832165615855,
AB,Lag5_T1P_T2A,5,P,A,5,10,4,3,13,Totem Pole,Did you see the Totem Pole?,0.12,0.016,JPG\,canoftennisballs,banana01,scissors01,pig,totempole,leaf02a,pear01,sponge01,fork03c,tableknife02,balloon01b,match,toothbrush03b,blankImage,blankImage,blankImage,blankImage,totempole,,,,,,,,,,,,0,38,38,202,,,,,,,,,,,,,,,,,,,,,,,,,,,,,,,,,,,455.0494254999794,456.0639319999609,456.0472045999486,456.6811339999549,456.60925530001987,None,458.2321437000064,None,left,0.8117413999279961,458.2321437000064,None,459.06687159999274,None,right,0.31289810000453144,459.06687159999274,None,,,,,,,,,,,,,,,,,,,,,,,PPT07,001,2022-06-28_16h39.33.399,ABstudy,2022.1.4,59.893832165615855,
AB,Lag1_T1P_T2P,1,P,P,6,7,5,3,10,cupcake,Did you see the cupcake?,0.12,0.016,JPG\,printer02,leaf02a,cauliflower01,sock01a,brownsugar,cupcake,stapler01,orange,belt02a,shirt02,blankImage,blankImage,blankImage,blankImage,blankImage,blankImage,blankImage,cupcake,,,,,,,,,,,,0,39,39,38,,,,,,,,,,,,,,,,,,,,,,,,,,,,,,,,,,,459.40453449997585,460.4184178999858,460.385168400011,460.96511549991556,460.96511549991556,None,462.1719818999991,None,left,0.7997903999639675,462.1719818999991,None,463.00458269997034,None,right,0.2958917999640107,463.00458269997034,None,,,,,,,,,,,,,,,,,,,,,,,PPT07,001,2022-06-28_16h39.33.399,ABstudy,2022.1.4,59.893832165615855,
AB,Lag1_T1P_T2P,1,P,P,6,7,5,5,12,Snowboard,Did you see the Snowboard?,0.12,0.016,JPG\,belt02a,measuringcup01,spoon01,chain01,greenolive,snowboard,stapler01,onion,fan,strawberry,candle01,broom01,blankImage,blankImage,blankImage,blankImage,blankImage,snowboard,,,,,,,,,,,,0,40,40,49,,,,,,,,,,,,,,,,,,,,,,,,,,,,,,,,,,,463.3271136999829,464.33898310002405,464.32228869991377,464.9071515999967,464.9071515999967,None,466.3746573999524,None,left,0.7022772999480367,466.3746573999524,None,467.1087860999396,None,left,0.27117069996893406,467.1087860999396,None,,,,,,,,,,,,,,,,,,,,,,,PPT07,001,2022-06-28_16h39.33.399,ABstudy,2022.1.4,59.893832165615855,
AB,Lag1_T1P_T2A,1,P,A,5,6,4,4,10,bird,Did you see the bird?,0.12,0.016,JPG\,toaster01,scarf,toiletpaper01a,calculator01,swallow,sewingmachine01a,fan,teabag,strawberry,balloon01b,blankImage,blankImage,blankImage,blankImage,blankImage,blankImage,blankImage,swallow,,,,,,,,,,,,0,41,41,195,,,,,,,,,,,,,,,,,,,,,,,,,,,,,,,,,,,467.41206729994155,468.4264282999793,468.3930460999254,468.9949180999538,468.9949180999538,None,470.27371649991255,None,left,0.754988000029698,470.27371649991255,None,471.0454811999807,None,right,0.2861782000400126,471.0454811999807,None,,,,,,,,,,,,,,,,,,,,,,,PPT07,001,2022-06-28_16h39.33.399,ABstudy,2022.1.4,59.893832165615855,
AB,Lag1_T1P_T2P,1,P,P,5,6,4,3,9,mail box,Did you see the mail box?,0.12,0.016,JPG\,watermelon01,banana01,ring01,pencil01,mailbox02,stapler04b,cucumber,thermometer02b,key01,blankImage,blankImage,blankImage,blankImage,blankImage,blankImage,blankImage,blankImage,mailbox02,,,,,,,,,,,,0,42,42,21,,,,,,,,,,,,,,,,,,,,,,,,,,,,,,,,,,,471.3674386999337,472.3801433999324,472.3635490000015,472.9586009000195,472.9586009000195,None,474.0728293999564,None,left,0.7312836999772117,474.0728293999564,None,474.83255399996415,None,right,0.2034799000248313,474.83255399996415,None,,,,,,,,,,,,,,,,,,,,,,,PPT07,001,2022-06-28_16h39.33.399,ABstudy,2022.1.4,59.893832165615855,
AB,Lag1_T1P_T2A,1,P,A,5,6,4,5,11,Moon,Did you see the Moon?,0.12,0.016,JPG\,lamp04a,broccoli01a,alligator,garlic01a,moon,brownsugar,avocado01,ring01,leaf02a,cellphone,medal02b,blankImage,blankImage,blankImage,blankImage,blankImage,blankImage,moon,,,,,,,,,,,,0,43,43,190,,,,,,,,,,,,,,,,,,,,,,,,,,,,,,,,,,,475.0684504000237,476.0838254999835,476.0505265999818,476.6268357000081,476.6268357000081,None,477.9895642999327,None,right,1.3906797000672668,477.9895642999327,None,479.4041997999884,None,right,0.24811289994977415,479.4041997999884,None,,,,,,,,,,,,,,,,,,,,,,,PPT07,001,2022-06-28_16h39.33.399,ABstudy,2022.1.4,59.893832165615855,
AB,Lag1_T1P_T2P,1,P,P,6,7,5,5,12,snowman,Did you see the snowman?,0.12,0.016,JPG\,comb02a,watch02a,scissors01,dice05a,tableknife02,snowman,stapler03a,printer02,dandelion,spoon01,ashtray01,battery02b,blankImage,blankImage,blankImage,blankImage,blankImage,snowman,,,,,,,,,,,,0,44,44,4,,,,,,,,,,,,,,,,,,,,,,,,,,,,,,,,,,,479.67581779998727,480.6886254999554,480.67190750001464,481.25652679998893,481.25652679998893,None,482.7547310999362,None,left,0.77710000006482,482.7547310999362,None,483.5585830999771,None,right,0.27757329994346946,483.5585830999771,None,,,,,,,,,,,,,,,,,,,,,,,PPT07,001,2022-06-28_16h39.33.399,ABstudy,2022.1.4,59.893832165615855,
AB,Lag5_T1P_T2P,5,P,P,7,12,6,3,15,marble,Did you see the marble?,0.12,0.016,JPG\,cigarette,ashtray01,envelope03a,sandal,chain01,cucumber,marble,tomato01,dandelion,candle01,lemon02,stapler03b,potato02b,cymbal,clock01a,blankImage,blankImage,marble,,,,,,,,,,,,0,45,45,146,,,,,,,,,,,,,,,,,,,,,,,,,,,,,,,,,,,483.862507199985,484.8763052999275,484.85970609996,485.4397715999512,485.4397715999512,None,487.2890235999366,None,left,1.2905972000444308,487.2890235999366,None,488.5969781000167,None,right,0.28740530007053167,488.5969781000167,None,,,,,,,,,,,,,,,,,,,,,,,PPT07,001,2022-06-28_16h39.33.399,ABstudy,2022.1.4,59.893832165615855,
AB,Lag5_T1P_T2A,5,P,A,8,13,7,4,17,fountain,Did you see the fountain?,0.12,0.016,JPG\,printer02,envelope03a,potato02b,calculator01,tableknife02,cigarette,ashtray01,parkfountain,broom01,greenolive,candle08b,battery02b,strawberry,candle01,foosballtable,tennisball01b,blankImage,parkfountain,,,,,,,,,,,,0,46,46,219,,,,,,,,,,,,,,,,,,,,,,,,,,,,,,,,,,,488.91422929998953,489.9145757999504,489.8979177000001,490.4873024999397,490.4873024999397,None,492.48255369998515,None,left,0.7215395999373868,492.48255369998515,None,493.2341463000048,None,right,0.26699859998188913,493.2341463000048,None,,,,,,,,,,,,,,,,,,,,,,,PPT07,001,2022-06-28_16h39.33.399,ABstudy,2022.1.4,59.893832165615855,
AB,Lag5_T1P_T2P,5,P,P,6,11,5,4,15,fish,Did you see the fish?,0.12,0.016,JPG\,sock01a,spoon01,alligator,comb02a,printer02,rockbass,lamp04a,cymbal,greenolive,computerkeyboard02,stapler03a,scarf,teabag,watermelon01,battery02b,blankImage,blankImage,rockbass,,,,,,,,,,,,0,47,47,115,,,,,,,,,,,,,,,,,,,,,,,,,,,,,,,,,,,493.56786529999226,494.56912869994994,494.5530644999817,495.14474559994414,495.14474559994414,None,496.9500523000024,None,left,1.5825076999608427,496.9500523000024,None,498.55680429993663,None,left,0.27870140003506094,498.55680429993663,None,,,,,,,,,,,,,,,,,,,,,,,PPT07,001,2022-06-28_16h39.33.399,ABstudy,2022.1.4,59.893832165615855,
AB,Lag1_T1P_T2P,1,P,P,6,7,5,4,11,Bow,Did you see the Bow?,0.12,0.016,JPG\,broom01,plate01b,scissors01,garlic01a,paintbrush01,bow,stapler03a,shirt02,speaker04,celery,sandal,blankImage,blankImage,blankImage,blankImage,blankImage,blankImage,bow,,,,,,,,,,,,0,48,48,53,,,,,,,,,,,,,,,,,,,,,,,,,,,,,,,,,,,498.8659685999155,499.87455740000587,499.8576636000071,500.4194008000195,500.4194008000195,None,501.7961634999374,None,left,0.8243850000435486,501.7961634999374,None,502.64447309996467,None,right,0.2551156999543309,502.64447309996467,None,,,,,,,,,,,,,,,,,,,,,,,PPT07,001,2022-06-28_16h39.33.399,ABstudy,2022.1.4,59.893832165615855,
AB,Lag5_T1P_T2P,5,P,P,8,13,7,4,17,lamp,Did you see the lamp?,0.12,0.016,JPG\,globe,broccoli01a,binoculars01b,iron01b,avocado01,dandelion,pineapple01a,floorlamp,fan,pizza,celery,blueberry01,stapler01,dice05a,watermelon01,candy,blankImage,floorlamp,,,,,,,,,,,,0,49,49,99,,,,,,,,,,,,,,,,,,,,,,,,,,,,,,,,,,,502.92949359992053,503.94483990001027,503.91150349995587,504.50122979993466,504.50122979993466,None,506.44068789994344,None,left,0.6194539000280201,506.44068789994344,None,507.08199570002034,None,left,0.28236690000630915,507.08199570002034,None,,,,,,,,,,,,,,,,,,,,,,,PPT07,001,2022-06-28_16h39.33.399,ABstudy,2022.1.4,59.893832165615855,
AB,Lag5_T1A_T2A,5,A,A,5,10,4,5,15,sword,Did you see the sword?,0.12,0.016,JPG\,pencil01,broccoli01a,button01,sponge01,watermelon01,lipstick02a,comb02a,fan,lighter01,sock01a,spoon01,blueberry01,belt02a,onion,grape01,blankImage,blankImage,parachute,,,,,,,,,,,,0,50,50,298,,,,,,,,,,,,,,,,,,,,,,,,,,,,,,,,,,,507.3859137999825,508.3995729999151,508.3827550999122,508.95498219993897,508.95498219993897,None,510.8577777999453,None,right,0.8185999999986961,510.8577777999453,None,511.7024778999621,None,right,1.204918700037524,511.7024778999621,None,,,,,,,,,,,,,,,,,,,,,,,PPT07,001,2022-06-28_16h39.33.399,ABstudy,2022.1.4,59.893832165615855,
AB,Lag5_T1A_T2P,5,A,P,7,12,6,4,16,flower,Did you see the flower?,0.12,0.016,JPG\,printer02,envelope03a,potato02b,calculator01,tableknife02,cigarette,ashtray01,pig,broom01,greenolive,candle08b,stapler03a,strawberry,candle01,foosballtable,tennisball01b,blankImage,calendar,,,,,,,,,,,,0,51,51,282,,,,,,,,,,,,,,,,,,,,,,,,,,,,,,,,,,,512.9394193999469,513.954770399956,513.9213488999521,514.5450344999554,514.5450344999554,None,516.5030970999505,None,right,0.7413321000058204,516.5030970999505,None,517.2747863000259,None,right,0.4251914999913424,517.2747863000259,None,,,,,,,,,,,,,,,,,,,,,,,PPT07,001,2022-06-28_16h39.33.399,ABstudy,2022.1.4,59.893832165615855,
AB,Lag5_T1A_T2P,5,A,P,5,10,4,5,15,Eye patch,Did you see the Eye patch?,0.12,0.016,JPG\,scissors01,balloon01b,eraser,feather03a,banana01,candle01,measuringcup01,calculator01,thermometer02b,stapler03b,pear01,carrot01,globe,baseball01a,leaf02a,blankImage,blankImage,cross01,,,,,,,,,,,,0,52,52,258,,,,,,,,,,,,,,,,,,,,,,,,,,,,,,,,,,,517.7286808999488,518.7431118999375,518.7100758999586,519.2904213999864,519.2904213999864,None,521.1080572999781,None,right,2.504229999962263,521.1080572999781,None,523.6317090999801,None,right,0.32470439991448075,523.6317090999801,None,,,,,,,,,,,,,,,,,,,,,,,PPT07,001,2022-06-28_16h39.33.399,ABstudy,2022.1.4,59.893832165615855,
AB,Lag5_T1P_T2P,5,P,P,8,13,7,3,16,Chefs hat,Did you see the Chefs hat?,0.12,0.016,JPG\,rice,watermelon01,tableknife02,scarf,computerkeyboard02,cauliflower01,battery02b,chefshat,book01b,sandal,sponge01,microscope,stapler01,fork03c,thermometer02b,apple07,blankImage,chefshat,,,,,,,,,,,,0,53,53,128,,,,,,,,,,,,,,,,,,,,,,,,,,,,,,,,,,,523.9871119000018,524.9993674999569,524.9825509999646,525.5743148999754,525.5743148999754,None,527.5541496999795,None,right,1.2972883000038564,527.5541496999795,None,528.8701109000249,None,left,0.29326549998950213,528.8701109000249,None,,,,,,,,,,,,,,,,,,,,,,,PPT07,001,2022-06-28_16h39.33.399,ABstudy,2022.1.4,59.893832165615855,
AB,Lag5_T1P_T2P,5,P,P,5,10,4,5,15,mouse,Did you see the mouse?,0.12,0.016,JPG\,pineapple01a,leaf02a,grape01,toiletpaper01a,mouse,tennisball01b,spoon01,chain01,pig,stapler03a,ring01,lemon02,dice05a,pizza,potato02b,blankImage,blankImage,mouse,,,,,,,,,,,,0,54,54,94,,,,,,,,,,,,,,,,,,,,,,,,,,,,,,,,,,,529.1894721999997,530.2047038999153,530.1713925999356,530.7522125999676,530.7522125999676,None,532.6381994999247,None,left,1.7733994000591338,532.6381994999247,None,534.4417037999956,None,left,0.24187530006747693,534.4417037999956,None,,,,,,,,,,,,,,,,,,,,,,,PPT07,001,2022-06-28_16h39.33.399,ABstudy,2022.1.4,59.893832165615855,
AB,Lag5_T1P_T2P,5,P,P,7,12,6,5,17,tie,Did you see the tie?,0.12,0.016,JPG\,iron01b,orange,birthdaycandle,potato02b,cauliflower01,pencil01,tie02,candle08b,celery,tableknife02,pen04b,stapler06,ring01,rice,lemon02,tomato01,blankImage,tie02,,,,,,,,,,,,0,55,55,161,,,,,,,,,,,,,,,,,,,,,,,,,,,,,,,,,,,534.71091169992,535.710716499947,535.6949501999188,536.3033076999709,536.3033076999709,None,538.2280160000082,None,left,0.8559034001082182,538.2280160000082,None,539.113987699966,None,right,0.28982750000432134,539.113987699966,None,,,,,,,,,,,,,,,,,,,,,,,PPT07,001,2022-06-28_16h39.33.399,ABstudy,2022.1.4,59.893832165615855,
AB,Lag5_T1P_T2P,5,P,P,6,11,5,5,16,Parking meter,Did you see the Parking meter?,0.12,0.016,JPG\,dice05a,watch02a,pig,lighter01,button01,parkingmeter,paintbrush01,microscope,plate01b,pen04b,stapler03b,weight04a,carrot01,shirt02,globe,garlic01a,blankImage,parkingmeter,,,,,,,,,,,,0,56,56,172,,,,,,,,,,,,,,,,,,,,,,,,,,,,,,,,,,,539.5107029000064,540.5146093999501,540.4979515000014,541.0766806999454,541.0766806999454,None,542.9563982000109,None,left,0.5430835998849943,542.9563982000109,None,543.5189214999555,None,left,1.0691887999419123,543.5189214999555,None,,,,,,,,,,,,,,,,,,,,,,,PPT07,001,2022-06-28_16h39.33.399,ABstudy,2022.1.4,59.893832165615855,
AB,Lag5_T1P_T2A,5,P,A,6,11,5,3,14,Balcony,Did you see the Balcony?,0.12,0.016,JPG\,tomato01,pen04b,shirt02,carrot01,lamp04a,balcony02,pizza,avocado01,sewingmachine01a,apple07,iron01b,book01b,chain01,sock01a,blankImage,blankImage,blankImage,balcony02,,,,,,,,,,,,0,57,57,207,,,,,,,,,,,,,,,,,,,,,,,,,,,,,,,,,,,544.6239796999143,545.6365481999237,545.6198325000005,546.2157924999483,546.2157924999483,None,547.9906526999548,None,left,0.6613853999879211,547.9906526999548,None,548.6722802999429,None,right,0.24341500003356487,548.6722802999429,None,,,,,,,,,,,,,,,,,,,,,,,PPT07,001,2022-06-28_16h39.33.399,ABstudy,2022.1.4,59.893832165615855,
AB,Lag1_T1A_T2A,1,A,A,5,6,4,4,10,rose,Did you see the rose?,0.12,0.016,JPG\,sock01a,spoon01,alligator,comb02a,printer02,medal02b,lamp04a,cymbal,greenolive,computerkeyboard02,blankImage,blankImage,blankImage,blankImage,blankImage,blankImage,blankImage,cruiseship,,,,,,,,,,,,0,58,58,293,,,,,,,,,,,,,,,,,,,,,,,,,,,,,,,,,,,548.9419482999947,549.9573357999325,549.9238972999156,550.5560625999933,550.5560625999933,None,551.7251080999849,None,right,1.430093599949032,551.7251080999849,None,553.1778949999716,None,right,0.21817749994806945,553.1778949999716,None,,,,,,,,,,,,,,,,,,,,,,,PPT07,001,2022-06-28_16h39.33.399,ABstudy,2022.1.4,59.893832165615855,
AB,Lag1_T1A_T2P,1,A,P,7,8,6,3,11,Fox,Did you see the Fox?,0.12,0.016,JPG\,toaster01,chain01,sponge01,baseball01a,carrot01,belt02a,book01b,stapler03b,grape01,brick,celery,blankImage,blankImage,blankImage,blankImage,blankImage,blankImage,fingerprint,,,,,,,,,,,,0,59,59,234,,,,,,,,,,,,,,,,,,,,,,,,,,,,,,,,,,,553.4354052999988,554.4452740999404,554.4286543999333,555.0174693999579,555.0174693999579,None,556.4081208999269,None,right,0.8680475000292063,556.4081208999269,None,557.2978740999242,None,right,1.2413950000191107,557.2978740999242,None,,,,,,,,,,,,,,,,,,,,,,,PPT07,001,2022-06-28_16h39.33.399,ABstudy,2022.1.4,59.893832165615855,
AB,Lag5_T1P_T2A,5,P,A,8,13,7,4,17,knife,Did you see the knife?,0.12,0.016,JPG\,lighter01,hammer01,spoon01,chain01,cymbal,sponge01,lipstick02a,knife03,pig,watermelon01,cauliflower01,lemon02,broccoli01a,tableknife02,tennisball01b,toothbrush03b,blankImage,knife03,,,,,,,,,,,,0,60,60,214,,,,,,,,,,,,,,,,,,,,,,,,,,,,,,,,,,,558.568154699984,559.5835475999629,559.5501290999819,560.1406067999778,560.1406067999778,None,562.0783232999966,None,right,1.022802900057286,562.0783232999966,None,563.1209903999697,None,right,2.7064526999602094,563.1209903999697,None,,,,,,,,,,,,,,,,,,,,,,,PPT07,001,2022-06-28_16h39.33.399,ABstudy,2022.1.4,59.893832165615855,
AB,Lag5_T1P_T2A,5,P,A,8,13,7,4,17,Tarantula,Did you see the Tarantula?,0.12,0.016,JPG\,binoculars01b,speaker04,sandal,envelope03a,plate01b,comb02a,battery02b,tarantula,measuringcup01,key01,medal02b,lamp04a,tennisball01b,pizza,cigarette,sunglasses04,blankImage,tarantula,,,,,,,,,,,,0,61,61,201,,,,,,,,,,,,,,,,,,,,,,,,,,,,,,,,,,,565.8595410999842,566.8741404999746,566.8408004000084,567.4237835999811,567.4237835999811,None,569.379104899941,None,left,0.7048215999966487,569.379104899941,None,570.1110481999349,None,right,0.3099080000538379,570.1110481999349,None,,,,,,,,,,,,,,,,,,,,,,,PPT07,001,2022-06-28_16h39.33.399,ABstudy,2022.1.4,59.893832165615855,
AB,Lag5_T1P_T2P,5,P,P,5,10,4,4,14,bell,Did you see the bell?,0.12,0.016,JPG\,teabag,envelope03a,cellphone,apple07,callbell,orange,brownsugar,book01b,hammer01,stapler03b,toaster01,calculator01,globe,battery02b,blankImage,blankImage,blankImage,callbell,,,,,,,,,,,,0,62,62,147,,,,,,,,,,,,,,,,,,,,,,,,,,,,,,,,,,,570.4485881999135,571.4637640999863,571.4304675000021,572.0207632000092,572.0207632000092,None,573.751899200026,None,right,2.141092700068839,573.751899200026,None,575.9168515999336,None,right,0.5281762999948114,575.9168515999336,None,,,,,,,,,,,,,,,,,,,,,,,PPT07,001,2022-06-28_16h39.33.399,ABstudy,2022.1.4,59.893832165615855,
AB,Lag5_T1P_T2P,5,P,P,5,10,4,5,15,funnel,Did you see the funnel?,0.12,0.016,JPG\,pineapple01a,tennisball01b,computerkeyboard02,feather03a,funnel,acorn,violin,blueberry01,medal02b,stapler01,greenolive,screwdriver04b,potato02b,fork03c,cymbal,blankImage,blankImage,funnel,,,,,,,,,,,,0,63,63,109,,,,,,,,,,,,,,,,,,,,,,,,,,,,,,,,,,,576.4712776999222,577.4852504999144,577.4677893000189,578.0377602999797,578.0377602999797,None,579.7884295999538,None,right,1.0391744000371546,579.7884295999538,None,580.8546532000182,None,left,0.34097989997826517,580.8546532000182,None,,,,,,,,,,,,,,,,,,,,,,,PPT07,001,2022-06-28_16h39.33.399,ABstudy,2022.1.4,59.893832165615855,
AB,Lag1_T1P_T2P,1,P,P,7,8,6,5,13,horse,Did you see the horse?,0.12,0.016,JPG\,watermelon01,pencil01,microscope,blueberry01,computerkeyboard02,lamp04a,horse,stapler03b,sock01a,key01,binoculars01b,cauliflower01,ashtray01,blankImage,blankImage,blankImage,blankImage,horse,,,,,,,,,,,,0,64,64,3,,,,,,,,,,,,,,,,,,,,,,,,,,,,,,,,,,,581.2239851999329,582.2393369999481,582.2059748999309,582.7912585999584,582.7912585999584,None,584.3644262999296,None,left,2.1594182000262663,584.3644262999296,None,586.5436822000192,None,left,0.3001523999264464,586.5436822000192,None,,,,,,,,,,,,,,,,,,,,,,,PPT07,001,2022-06-28_16h39.33.399,ABstudy,2022.1.4,59.893832165615855,
AB,Lag5_T1P_T2P,5,P,P,5,10,4,5,15,Bee,Did you see the Bee?,0.12,0.016,JPG\,fork03c,dandelion,dice05a,belt02a,honeybee,watch02a,key01,globe,eraser,stapler03a,greenolive,shirt02,candle08b,cigarette,garlic01a,blankImage,blankImage,honeybee,,,,,,,,,,,,0,65,65,149,,,,,,,,,,,,,,,,,,,,,,,,,,,,,,,,,,,586.8643428999931,587.8783648000099,587.8449898000108,588.4147379000206,588.4147379000206,None,590.3077519999351,None,left,0.48901610006578267,590.3077519999351,None,590.8177317000227,None,left,0.282970399945043,590.8177317000227,None,,,,,,,,,,,,,,,,,,,,,,,PPT07,001,2022-06-28_16h39.33.399,ABstudy,2022.1.4,59.893832165615855,
AB,Lag5_T1P_T2A,5,P,A,6,11,5,4,15,Spear,Did you see the Spear?,0.12,0.016,JPG\,belt02a,measuringcup01,spoon01,chain01,greenolive,spear02,computerkeyboard02,onion,fan,strawberry,candle01,broom01,binoculars01b,ashtray01,pingpongpaddle01c,blankImage,blankImage,spear02,,,,,,,,,,,,0,66,66,227,,,,,,,,,,,,,,,,,,,,,,,,,,,,,,,,,,,591.1341332999291,592.1495816999814,592.1162461999338,592.6867386000231,592.6867386000231,None,594.618123000022,None,left,1.8652094000717625,594.618123000022,None,596.5036039999686,None,right,0.3478364000329748,596.5036039999686,None,,,,,,,,,,,,,,,,,,,,,,,PPT07,001,2022-06-28_16h39.33.399,ABstudy,2022.1.4,59.893832165615855,
AB,Lag1_T1P_T2P,1,P,P,5,6,4,5,11,Light switch,Did you see the Light switch?,0.12,0.016,JPG\,iron01b,orange,birthdaycandle,potato02b,lightswitch01,stapler03b,key01,candle08b,celery,tableknife02,pen04b,blankImage,blankImage,blankImage,blankImage,blankImage,blankImage,lightswitch01,,,,,,,,,,,,0,67,67,18,,,,,,,,,,,,,,,,,,,,,,,,,,,,,,,,,,,596.8769114000024,597.8892972000176,597.8739041999215,598.5419933999656,598.4641728999559,None,599.8142173999222,None,left,0.8701346999732777,599.8142173999222,None,600.7082136999816,None,right,0.42286139994394034,600.7082136999816,None,,,,,,,,,,,,,,,,,,,,,,,PPT07,001,2022-06-28_16h39.33.399,ABstudy,2022.1.4,59.893832165615855,
AB,Lag5_T1A_T2P,5,A,P,8,13,7,4,17,wrench,Did you see the wrench?,0.12,0.016,JPG\,clock01a,grape01,plate01b,key01,screwdriver04b,feather03a,pineapple01a,iron01b,toothbrush03b,comb02a,broom01,toaster01,stapler05,garlic01a,match,ashtray01,blankImage,seal,,,,,,,,,,,,0,68,68,272,,,,,,,,,,,,,,,,,,,,,,,,,,,,,,,,,,,601.1623364000116,602.1760984999128,602.1596060999436,602.8311158999568,602.7506688999711,None,604.7139958000043,None,right,2.1778171999612823,604.7139958000043,None,606.9137722000014,None,right,0.8018803000450134,606.9137722000014,None,,,,,,,,,,,,,,,,,,,,,,,PPT07,001,2022-06-28_16h39.33.399,ABstudy,2022.1.4,59.893832165615855,
AB,Lag1_T1P_T2P,1,P,P,7,8,6,3,11,swing,Did you see the swing?,0.12,0.016,JPG\,sewingmachine01a,thermometer02b,sponge01,eraser,broccoli01a,fork03c,swing,stapler03b,belt02a,medal02b,pineapple01a,blankImage,blankImage,blankImage,blankImage,blankImage,blankImage,swing,,,,,,,,,,,,0,69,69,30,,,,,,,,,,,,,,,,,,,,,,,,,,,,,,,,,,,607.750251499936,608.7656299999217,608.7323647999438,609.3154292999534,609.3154292999534,None,610.6660903999582,None,left,1.2577161999652162,610.6660903999582,None,611.9535725999158,None,right,0.32252240006346256,611.9535725999158,None,,,,,,,,,,,,,,,,,,,,,,,PPT07,001,2022-06-28_16h39.33.399,ABstudy,2022.1.4,59.893832165615855,
AB,Lag5_T1A_T2A,5,A,A,5,10,4,4,14,music sheet,Did you see the music sheet?,0.12,0.016,JPG\,celery,pencil01,fan,foosballtable,iron01b,shirt02,potato02b,fork03c,button01,pineapple01a,baseball01a,printer02,cauliflower01,dandelion,blankImage,blankImage,blankImage,licenseplate,,,,,,,,,,,,0,70,70,304,,,,,,,,,,,,,,,,,,,,,,,,,,,,,,,,,,,612.3095667000161,613.3206212000223,613.3041615999537,613.8966557999374,613.8966557999374,None,615.5398454000242,None,right,0.8475472000427544,615.5398454000242,None,616.4068391999463,None,right,0.41237989999353886,616.4068391999463,None,,,,,,,,,,,,,,,,,,,,,,,PPT07,001,2022-06-28_16h39.33.399,ABstudy,2022.1.4,59.893832165615855,
AB,Lag5_T1A_T2P,5,A,P,7,12,6,4,16,church,Did you see the church?,0.12,0.016,JPG\,printer02,leaf02a,cauliflower01,sock01a,brownsugar,paintbrush01,pig,orange,belt02a,shirt02,key01,stapler06,cigarette,scissors01,envelope03a,blueberry01,blankImage,ant,,,,,,,,,,,,0,71,71,279,,,,,,,,,,,,,,,,,,,,,,,,,,,,,,,,,,,616.8427679999731,617.8582491999259,617.8248992000008,618.4056818999816,618.4056818999816,None,620.3904291000217,None,right,1.4611527000088245,620.3904291000217,None,621.8792309999699,None,left,0.41223189991433173,621.8792309999699,None,,,,,,,,,,,,,,,,,,,,,,,PPT07,001,2022-06-28_16h39.33.399,ABstudy,2022.1.4,59.893832165615855,
AB,Lag5_T1P_T2P,5,P,P,7,12,6,4,16,Fireplace,Did you see the Fireplace?,0.12,0.016,JPG\,printer02,leaf02a,cauliflower01,sock01a,brownsugar,paintbrush01,fireplace,orange,belt02a,shirt02,key01,stapler01,cigarette,scissors01,envelope03a,blueberry01,blankImage,fireplace,,,,,,,,,,,,0,72,72,88,,,,,,,,,,,,,,,,,,,,,,,,,,,,,,,,,,,622.3184402999468,623.3311295999447,623.3154584999429,623.9244799999287,623.9244799999287,None,625.8415257999441,None,right,0.7056915999855846,625.8415257999441,None,626.5682882999536,None,left,0.3633794999914244,626.5682882999536,None,,,,,,,,,,,,,,,,,,,,,,,PPT07,001,2022-06-28_16h39.33.399,ABstudy,2022.1.4,59.893832165615855,
AB,Lag5_T1P_T2P,5,P,P,5,10,4,5,15,hockey puck,Did you see the hockey puck?,0.12,0.016,JPG\,chain01,pen04b,birthdaycandle,watermelon01,hockeypuck,scissors01,measuringcup01,candle01,hammer01,stapler06,ashtray01,feather03a,sewingmachine01a,thermometer02b,alligator,blankImage,blankImage,hockeypuck,,,,,,,,,,,,0,73,73,110,,,,,,,,,,,,,,,,,,,,,,,,,,,,,,,,,,,626.9582827999257,627.9685326999752,627.952021199977,628.5380215999903,628.5380215999903,None,630.3364485999336,None,left,0.9068633000133559,630.3364485999336,None,631.274448000011,None,left,0.3768537000287324,631.274448000011,None,,,,,,,,,,,,,,,,,,,,,,,PPT07,001,2022-06-28_16h39.33.399,ABstudy,2022.1.4,59.893832165615855,
AB,Lag5_T1P_T2A,5,P,A,8,13,7,3,16,leaf blower,Did you see the leaf blower?,0.12,0.016,JPG\,printer02,leaf02a,cauliflower01,sock01a,brownsugar,paintbrush01,pig,leafblower01,belt02a,shirt02,key01,match,cigarette,scissors01,envelope03a,blueberry01,blankImage,leafblower01,,,,,,,,,,,,0,74,74,216,,,,,,,,,,,,,,,,,,,,,,,,,,,,,,,,,,,631.6742302000057,632.6895741999615,632.6561748000095,633.2381148999557,633.2381148999557,None,635.1672052999493,None,left,1.4764455000404269,635.1672052999493,None,636.6607389999554,None,right,0.39111009996850044,636.6607389999554,None,,,,,,,,,,,,,,,,,,,,,,,PPT07,001,2022-06-28_16h39.33.399,ABstudy,2022.1.4,59.893832165615855,
AB,Lag5_T1A_T2P,5,A,P,8,13,7,5,18,lollipop,Did you see the lollipop?,0.12,0.016,JPG\,watermelon01,banana01,ring01,pencil01,tomato01,speaker04,cucumber,thermometer02b,key01,foosballtable,violin,spoon01,stapler04b,dice05a,pen04b,mushroom01,blankImage,jeans01,,,,,,,,,,,,0,75,75,262,,,,,,,,,,,,,,,,,,,,,,,,,,,,,,,,,,,637.0831409000093,638.0951118000085,638.078474399983,638.6632057999959,638.6632057999959,None,640.6635891000042,None,right,0.7638829000061378,640.6635891000042,None,641.4484117999673,None,left,0.3553500999696553,641.4484117999673,None,,,,,,,,,,,,,,,,,,,,,,,PPT07,001,2022-06-28_16h39.33.399,ABstudy,2022.1.4,59.893832165615855,
AB,Lag5_T1P_T2P,5,P,P,6,11,5,5,16,table,Did you see the table?,0.12,0.016,JPG\,birthdaycandle,mushroom01,strawberry,match,cherry01,table01,hammer01,thermometer02b,sock01a,ring01,stapler06,banana01,toiletpaper01a,key01,sponge01,teabag,blankImage,table01,,,,,,,,,,,,0,76,76,144,,,,,,,,,,,,,,,,,,,,,,,,,,,,,,,,,,,641.8343239999376,642.8497429999989,642.8163308999501,643.3169084999245,643.3169084999245,None,645.3416255000047,None,left,1.9501168999122456,645.3416255000047,None,647.3207487999462,None,left,0.30722229997627437,647.3207487999462,None,,,,,,,,,,,,,,,,,,,,,,,PPT07,001,2022-06-28_16h39.33.399,ABstudy,2022.1.4,59.893832165615855,
AB,Lag1_T1P_T2A,1,P,A,7,8,6,5,13,Well,Did you see the Well?,0.12,0.016,JPG\,leaf02a,apple07,cd,pineapple01a,envelope03a,paintbrush01,well,acorn,rice,feather03a,lemon02,balloon01b,avocado01,blankImage,blankImage,blankImage,blankImage,well,,,,,,,,,,,,0,77,77,178,,,,,,,,,,,,,,,,,,,,,,,,,,,,,,,,,,,647.6567679999862,648.6724076999817,648.6389146000147,649.2280933000147,649.2280933000147,None,650.7839495999506,None,left,1.3475863999919966,650.7839495999506,None,652.1589333999436,None,right,0.33269289997406304,652.1589333999436,None,,,,,,,,,,,,,,,,,,,,,,,PPT07,001,2022-06-28_16h39.33.399,ABstudy,2022.1.4,59.893832165615855,
AB,Lag5_T1A_T2P,5,A,P,5,10,4,3,13,License Plate,Did you see the License Plate?,0.12,0.016,JPG\,tomato01,pen04b,shirt02,carrot01,lamp04a,key01,pizza,avocado01,sewingmachine01a,stapler06,iron01b,book01b,chain01,blankImage,blankImage,blankImage,blankImage,porcupine,,,,,,,,,,,,0,78,78,270,,,,,,,,,,,,,,,,,,,,,,,,,,,,,,,,,,,652.514241799945,653.5270863999613,653.5104544999776,654.1000796000008,654.1000796000008,None,655.6388258999214,None,right,1.3722974000265822,655.6388258999214,None,657.0308147999458,None,left,0.2845221000025049,657.0308147999458,None,,,,,,,,,,,,,,,,,,,,,,,PPT07,001,2022-06-28_16h39.33.399,ABstudy,2022.1.4,59.893832165615855,
AB,Lag5_T1P_T2A,5,P,A,5,10,4,4,14,Ship in a bottle,Did you see the Ship in a bottle?,0.12,0.016,JPG\,sewingmachine01a,thermometer02b,sponge01,eraser,shipinabottle,fork03c,pizza,violin,belt02a,medal02b,pineapple01a,tennisball01b,dandelion,cauliflower01,blankImage,blankImage,blankImage,shipinabottle,,,,,,,,,,,,0,79,79,208,,,,,,,,,,,,,,,,,,,,,,,,,,,,,,,,,,,657.4026690999744,658.4151258999482,658.3984782999614,658.9862761999248,658.9862761999248,None,660.6607333999127,None,left,1.118918600026518,660.6607333999127,None,661.8022528999718,None,right,0.30486439995002,661.8022528999718,None,,,,,,,,,,,,,,,,,,,,,,,PPT07,001,2022-06-28_16h39.33.399,ABstudy,2022.1.4,59.893832165615855,
AB,Lag5_T1P_T2P,5,P,P,6,11,5,4,15,punching bag,Did you see the punching bag?,0.12,0.016,JPG\,foosballtable,cigarette,pen04b,birthdaycandle,hammer01,punchingbag,binoculars01b,chain01,potato02b,cauliflower01,stapler04b,ashtray01,scarf,cellphone,calculator01,blankImage,blankImage,punchingbag,,,,,,,,,,,,0,80,80,156,,,,,,,,,,,,,,,,,,,,,,,,,,,,,,,,,,,662.1386416999158,663.1533540999517,663.1200067999307,663.621349300025,663.621349300025,None,665.5058761999244,None,left,0.5376211000839248,665.5058761999244,None,666.0725843999535,None,left,0.5222795999143273,666.0725843999535,None,,,,,,,,,,,,,,,,,,,,,,,PPT07,001,2022-06-28_16h39.33.399,ABstudy,2022.1.4,59.893832165615855,
AB,Lag1_T1P_T2P,1,P,P,6,7,5,3,10,elephant,Did you see the elephant?,0.12,0.016,JPG\,clock01a,grape01,plate01b,key01,screwdriver04b,africanelephant,stapler03b,iron01b,toothbrush03b,comb02a,blankImage,blankImage,blankImage,blankImage,blankImage,blankImage,blankImage,africanelephant,,,,,,,,,,,,0,81,81,31,,,,,,,,,,,,,,,,,,,,,,,,,,,,,,,,,,,666.625349799986,667.6408836999908,667.6074787999969,668.1851183000254,668.1851183000254,None,669.4506184000056,None,left,0.9928576999809593,669.4506184000056,None,670.460431399988,None,right,0.30288660002406687,670.460431399988,None,,,,,,,,,,,,,,,,,,,,,,,PPT07,001,2022-06-28_16h39.33.399,ABstudy,2022.1.4,59.893832165615855,
AB,Lag1_T1P_T2P,1,P,P,6,7,5,3,10,windmill,Did you see the windmill?,0.12,0.016,JPG\,pizza,printer02,medal02b,spoon01,grape01,windmill,stapler04b,watermelon01,celery,battery02b,blankImage,blankImage,blankImage,blankImage,blankImage,blankImage,blankImage,windmill,,,,,,,,,,,,0,82,82,75,,,,,,,,,,,,,,,,,,,,,,,,,,,,,,,,,,,670.796381299966,671.811795799993,671.7784618999576,672.3632118999958,672.3632118999958,None,673.5756098999409,None,left,1.532917600008659,673.5756098999409,None,675.1317506999476,None,right,0.6155551000265405,675.1317506999476,None,,,,,,,,,,,,,,,,,,,,,,,PPT07,001,2022-06-28_16h39.33.399,ABstudy,2022.1.4,59.893832165615855,
AB,Lag5_T1P_T2A,5,P,A,7,12,6,3,15,Toy soldier,Did you see the Toy soldier?,0.12,0.016,JPG\,binoculars01b,cymbal,pizza,candy,paintbrush01,sponge01,toysoldier01b,thermometer02b,speaker04,lemon02,lipstick02a,strawberry,candle01,acorn,plate01b,blankImage,blankImage,toysoldier01b,,,,,,,,,,,,0,83,83,203,,,,,,,,,,,,,,,,,,,,,,,,,,,,,,,,,,,675.7688545000274,676.7678788999328,676.7524464000016,677.4485169999534,677.3675060999813,None,679.1514475999866,None,left,0.7236384999705479,679.1514475999866,None,679.9032119999174,None,right,0.3168640999356285,679.9032119999174,None,,,,,,,,,,,,,,,,,,,,,,,PPT07,001,2022-06-28_16h39.33.399,ABstudy,2022.1.4,59.893832165615855,
AB,Lag1_T1P_T2A,1,P,A,7,8,6,3,11,Seagull,Did you see the Seagull?,0.12,0.016,JPG\,toiletpaper01a,mushroom01,medal02b,sandal,rice,cd,seagull,pizza,candle08b,garlic01a,toaster01,blankImage,blankImage,blankImage,blankImage,blankImage,blankImage,seagull,,,,,,,,,,,,0,84,84,176,,,,,,,,,,,,,,,,,,,,,,,,,,,,,,,,,,,680.2406991999596,681.2545088999905,681.2212275000056,681.8089551000157,681.8089551000157,None,683.1510895999381,None,left,1.9253165000118315,683.1510895999381,None,685.1084240999771,None,right,0.32634499995037913,685.1084240999771,None,,,,,,,,,,,,,,,,,,,,,,,PPT07,001,2022-06-28_16h39.33.399,ABstudy,2022.1.4,59.893832165615855,
AB,Lag1_T1P_T2P,1,P,P,5,6,4,5,11,candy cane,Did you see the candy cane?,0.12,0.016,JPG\,shirt02,match,screw02,foosballtable,candycane01a,stapler04b,sewingmachine01a,watch02a,button01,comb02a,dice05a,blankImage,blankImage,blankImage,blankImage,blankImage,blankImage,candycane01a,,,,,,,,,,,,0,85,85,9,,,,,,,,,,,,,,,,,,,,,,,,,,,,,,,,,,,685.4616758999182,686.4764565000078,686.4429970999481,687.0282275999198,687.0282275999198,None,688.4235417000018,None,left,0.939194199978374,688.4235417000018,None,689.3798961999128,None,left,1.2397685999749228,689.3798961999128,None,,,,,,,,,,,,,,,,,,,,,,,PPT07,001,2022-06-28_16h39.33.399,ABstudy,2022.1.4,59.893832165615855,
AB,Lag1_T1P_T2P,1,P,P,6,7,5,5,12,exit sign,Did you see the exit sign?,0.12,0.016,JPG\,printer02,envelope03a,potato02b,calculator01,tableknife02,exitsign,stapler01,pig,broom01,greenolive,candle08b,battery02b,blankImage,blankImage,blankImage,blankImage,blankImage,exitsign,,,,,,,,,,,,0,86,86,41,,,,,,,,,,,,,,,,,,,,,,,,,,,,,,,,,,,690.6501957,691.6648730000015,691.6315627999138,692.2208029999165,692.2208029999165,None,693.7047602999955,None,left,0.8658465999178588,693.7047602999955,None,694.6011037999997,None,right,0.2737900000065565,694.6011037999997,None,,,,,,,,,,,,,,,,,,,,,,,PPT07,001,2022-06-28_16h39.33.399,ABstudy,2022.1.4,59.893832165615855,
AB,Lag1_T1A_T2P,1,A,P,8,9,7,3,12,seal,Did you see the seal?,0.12,0.016,JPG\,dice05a,watch02a,pig,lighter01,button01,strawberry,paintbrush01,microscope,stapler03a,pen04b,feather03a,8ball,blankImage,blankImage,blankImage,blankImage,blankImage,hockeystick,,,,,,,,,,,,0,87,87,235,,,,,,,,,,,,,,,,,,,,,,,,,,,,,,,,,,,694.9019623999484,695.902659400017,695.8858989999862,696.4770450999495,696.4770450999495,None,697.9263826999813,None,right,1.6842666999436915,697.9263826999813,None,699.6395081999945,None,left,0.30713689990807325,699.6395081999945,None,,,,,,,,,,,,,,,,,,,,,,,PPT07,001,2022-06-28_16h39.33.399,ABstudy,2022.1.4,59.893832165615855,
AB,Lag1_T1P_T2P,1,P,P,6,7,5,4,11,cash register,Did you see the cash register?,0.12,0.016,JPG\,leaf02a,apple07,cd,pineapple01a,envelope03a,cashregister01,stapler03b,8ball,rice,feather03a,lemon02,blankImage,blankImage,blankImage,blankImage,blankImage,blankImage,cashregister01,,,,,,,,,,,,0,88,88,79,,,,,,,,,,,,,,,,,,,,,,,,,,,,,,,,,,,699.9761832000222,700.9911121999612,700.9578524000244,701.553897399921,701.553897399921,None,702.9214464999968,None,left,0.6098978999070823,702.9214464999968,None,703.56329369999,None,left,0.2877642000094056,703.56329369999,None,,,,,,,,,,,,,,,,,,,,,,,PPT07,001,2022-06-28_16h39.33.399,ABstudy,2022.1.4,59.893832165615855,
AB,Lag1_T1P_T2P,1,P,P,8,9,7,3,12,snow globe,Did you see the Snow globe?,0.12,0.016,JPG\,eraser,measuringcup01,chain01,birthdaycandle,ring01,rice,8ball,stapler04b,stapler01,celery,microscope,sunglasses04,blankImage,blankImage,blankImage,blankImage,blankImage,snowglobe,,,,,,,,,,,,0,89,89,56,,,,,,,,,,,,,,,,,,,,,,,,,,,,,,,,,,,703.8844841999235,704.8951440999517,704.8785664999159,705.4505081999814,705.4505081999814,None,706.9385697999969,None,right,1.488352399901487,706.9385697999969,None,708.4483275000239,None,left,0.31458269990980625,708.4483275000239,None,,,,,,,,,,,,,,,,,,,,,,,PPT07,001,2022-06-28_16h39.33.399,ABstudy,2022.1.4,59.893832165615855,
AB,Lag5_T1A_T2P,5,A,P,8,13,7,5,18,fish,Did you see the fish?,0.12,0.016,JPG\,scissors01,grape01,mushroom01,toiletpaper01a,greenolive,pizza,cigarette,ashtray01,carrot01,pineapple01a,foosballtable,lipstick02a,stapler04b,tambourine02,potato02b,violin,blankImage,chimney,,,,,,,,,,,,0,90,90,283,,,,,,,,,,,,,,,,,,,,,,,,,,,,,,,,,,,708.784153799992,709.7997106999392,709.7663030999247,710.3614121000282,710.3614121000282,None,712.3259073999943,None,right,0.7098194999853149,712.3259073999943,None,713.0535047999583,None,left,0.3341384999221191,713.0535047999583,None,,,,,,,,,,,,,,,,,,,,,,,PPT07,001,2022-06-28_16h39.33.399,ABstudy,2022.1.4,59.893832165615855,
AB,Lag1_T1A_T2A,1,A,A,8,9,7,4,13,Recycling bin,Did you see the Recycling bin?,0.12,0.016,JPG\,brick,plate01b,pen04b,toaster01,screwdriver04b,candle01,envelope03a,feather03a,pig,ring01,orange,clock01a,lighter01,blankImage,blankImage,blankImage,blankImage,bumpercar,,,,,,,,,,,,0,91,91,292,,,,,,,,,,,,,,,,,,,,,,,,,,,,,,,,,,,713.426323599997,714.4378072000109,714.4211787999375,714.9932286000112,714.9932286000112,None,716.571551400004,None,right,1.1287683000555262,716.571551400004,None,717.7245534999529,None,right,1.0305238999426365,717.7245534999529,None,,,,,,,,,,,,,,,,,,,,,,,PPT07,001,2022-06-28_16h39.33.399,ABstudy,2022.1.4,59.893832165615855,
AB,Lag1_T1P_T2P,1,P,P,8,9,7,5,14,lawn mower,Did you see the lawn mower?,0.12,0.016,JPG\,battery02b,sunglasses04,pear01,tennisball01b,clock01a,speaker04,binoculars01b,lawnmower,stapler05,pineapple01a,avocado01,grape01,blueberry01,violin,blankImage,blankImage,blankImage,lawnmower,,,,,,,,,,,,0,92,92,46,,,,,,,,,,,,,,,,,,,,,,,,,,,,,,,,,,,718.7824005999137,719.7932557999156,719.7766027000034,720.3651676999871,720.3651676999871,None,722.0846842000028,None,left,1.199471400002949,722.0846842000028,None,723.3160451999865,None,right,0.2869543000124395,723.3160451999865,None,,,,,,,,,,,,,,,,,,,,,,,PPT07,001,2022-06-28_16h39.33.399,ABstudy,2022.1.4,59.893832165615855,
AB,Lag1_T1P_T2P,1,P,P,7,8,6,3,11,Daddy Long Legs,Did you see the Daddy Long Legs?,0.12,0.016,JPG\,lighter01,hammer01,spoon01,chain01,cymbal,sponge01,daddylonglegs,stapler03b,pig,watermelon01,cauliflower01,blankImage,blankImage,blankImage,blankImage,blankImage,blankImage,daddylonglegs,,,,,,,,,,,,0,93,93,86,,,,,,,,,,,,,,,,,,,,,,,,,,,,,,,,,,,723.6324301999994,724.6475457999622,724.6141236999538,725.1829858999699,725.1829858999699,None,726.543359000003,None,left,2.7392529000062495,726.543359000003,None,729.302348199999,None,right,1.1241047999355942,729.302348199999,None,,,,,,,,,,,,,,,,,,,,,,,PPT07,001,2022-06-28_16h39.33.399,ABstudy,2022.1.4,59.893832165615855,
AB,Lag1_T1P_T2P,1,P,P,8,9,7,4,13,Doughnut,Did you see the Doughnut?,0.12,0.016,JPG\,brick,eraser,cucumber,ashtray01,thermometer02b,binoculars01b,lipstick02a,donut,stapler01,brownsugar,battery02b,iron01b,dice05a,blankImage,blankImage,blankImage,blankImage,donut,,,,,,,,,,,,0,94,94,39,,,,,,,,,,,,,,,,,,,,,,,,,,,,,,,,,,,730.4955486999825,731.5045108000049,731.4712223999668,732.0617912999587,732.0617912999587,None,733.6559965999331,None,left,1.0035451999865472,733.6559965999331,None,734.6912694999482,None,left,0.27946370001882315,734.6912694999482,None,,,,,,,,,,,,,,,,,,,,,,,PPT07,001,2022-06-28_16h39.33.399,ABstudy,2022.1.4,59.893832165615855,
AB,Lag1_T1P_T2P,1,P,P,5,6,4,3,9,dolphin,Did you see the dolphin?,0.12,0.016,JPG\,pig,belt02a,rice,screwdriver04b,dolphin01,stapler05,candle08b,pear01,feather03a,blankImage,blankImage,blankImage,blankImage,blankImage,blankImage,blankImage,blankImage,dolphin01,,,,,,,,,,,,0,95,95,10,,,,,,,,,,,,,,,,,,,,,,,,,,,,,,,,,,,735.0013105999678,736.0090071000159,735.9922944999998,736.4929323999677,736.4929323999677,None,737.7088113999926,None,left,0.765608899993822,737.7088113999926,None,738.4952189999167,None,left,0.2995181999867782,738.4952189999167,None,,,,,,,,,,,,,,,,,,,,,,,PPT07,001,2022-06-28_16h39.33.399,ABstudy,2022.1.4,59.893832165615855,
AB,Lag1_T1P_T2A,1,P,A,5,6,4,4,10,flower,Did you see the flower?,0.12,0.016,JPG\,broom01,globe,cellphone,tableknife02,daffodil,scissors01,ring01,alligator,rice,toaster01,blankImage,blankImage,blankImage,blankImage,blankImage,blankImage,blankImage,daffodil,,,,,,,,,,,,0,96,96,184,,,,,,,,,,,,,,,,,,,,,,,,,,,,,,,,,,,738.8141024999786,739.8295370999258,739.7961513999617,740.3741673999466,740.3741673999466,None,741.6052987999283,None,left,0.8948553999653086,741.6052987999283,None,742.5321686000098,None,right,0.7187214998994023,742.5321686000098,None,,,,,,,,,,,,,,,,,,,,,,,PPT07,001,2022-06-28_16h39.33.399,ABstudy,2022.1.4,59.893832165615855,
AB,Lag1_T1P_T2P,1,P,P,7,8,6,3,11,locker,Did you see the locker?,0.12,0.016,JPG\,toiletpaper01a,lipstick02a,potato02b,speaker04,globe,strawberry,locker,stapler04b,sock01a,candle08b,pen04b,blankImage,blankImage,blankImage,blankImage,blankImage,blankImage,locker,,,,,,,,,,,,0,97,97,19,,,,,,,,,,,,,,,,,,,,,,,,,,,,,,,,,,,743.2859932000283,744.3006241000257,744.2672663999256,744.8548295999644,744.8548295999644,None,746.2826478999341,None,left,0.600871599977836,746.2826478999341,None,746.9031788000138,None,left,0.21917319996282458,746.9031788000138,None,,,,,,,,,,,,,,,,,,,,,,,PPT07,001,2022-06-28_16h39.33.399,ABstudy,2022.1.4,59.893832165615855,
AB,Lag1_T1A_T2A,1,A,A,6,7,5,5,12,flamingo,Did you see the flamingo?,0.12,0.016,JPG\,chain01,pen04b,birthdaycandle,watermelon01,broom01,scissors01,measuringcup01,candle01,hammer01,calculator01,ashtray01,feather03a,blankImage,blankImage,blankImage,blankImage,blankImage,witchhat,,,,,,,,,,,,0,98,98,288,,,,,,,,,,,,,,,,,,,,,,,,,,,,,,,,,,,747.1557096999604,748.1710840999149,748.1376869999804,748.7099319000263,748.7099319000263,None,750.1553526999196,None,right,4.032032200018875,750.1553526999196,None,754.2104513000231,None,right,0.7126807000022382,754.2104513000231,None,,,,,,,,,,,,,,,,,,,,,,,PPT07,001,2022-06-28_16h39.33.399,ABstudy,2022.1.4,59.893832165615855,
AB,Lag5_T1P_T2P,5,P,P,8,13,7,4,17,surf board,Did you see the surf board?,0.12,0.016,JPG\,candy,brownsugar,dice05a,cd,sock01a,blueberry01,button01,surfboard,feather03a,grape01,dandelion,scissors01,stapler03b,candle08b,book01b,globe,blankImage,surfboard,,,,,,,,,,,,0,99,99,142,,,,,,,,,,,,,,,,,,,,,,,,,,,,,,,,,,,754.9468025999377,755.9621516999323,755.9287487999536,756.5002494999208,756.5002494999208,None,758.4625724999933,None,right,0.9246311000315472,758.4625724999933,None,759.4155159000074,None,left,0.29157020000275224,759.4155159000074,None,,,,,,,,,,,,,,,,,,,,,,,PPT07,001,2022-06-28_16h39.33.399,ABstudy,2022.1.4,59.893832165615855,
AB,Lag1_T1P_T2P,1,P,P,7,8,6,4,12,trophy,Did you see the trophy?,0.12,0.016,JPG\,cherry01,cymbal,envelope03a,foosballtable,shirt02,cellphone,trophy01,stapler04b,battery02b,apple07,pencil01,screwdriver04b,blankImage,blankImage,blankImage,blankImage,blankImage,trophy01,,,,,,,,,,,,0,100,100,74,,,,,,,,,,,,,,,,,,,,,,,,,,,,,,,,,,,759.7354114999762,760.7506278000074,760.7172105999198,761.3050367999822,761.3050367999822,None,762.7474427999696,None,left,0.7671588999219239,762.7474427999696,None,763.5363266000059,None,right,0.26638089993502945,763.5363266000059,None,,,,,,,,,,,,,,,,,,,,,,,PPT07,001,2022-06-28_16h39.33.399,ABstudy,2022.1.4,59.893832165615855,
AB,Lag1_T1P_T2A,1,P,A,8,9,7,5,14,Parrot,Did you see the Parrot?,0.12,0.016,JPG\,candy,brownsugar,dice05a,cd,sock01a,blueberry01,button01,parrot01,feather03a,grape01,dandelion,scissors01,watch02a,candle08b,blankImage,blankImage,blankImage,parrot01,,,,,,,,,,,,0,101,101,192,,,,,,,,,,,,,,,,,,,,,,,,,,,,,,,,,,,763.8257373999804,764.8379374999786,764.8211178999627,765.3995267000282,765.3995267000282,None,767.0971788999159,None,left,2.2893410000251606,767.0971788999159,None,769.4100250999909,None,right,0.48888820002321154,769.4100250999909,None,,,,,,,,,,,,,,,,,,,,,,,PPT07,001,2022-06-28_16h39.33.399,ABstudy,2022.1.4,59.893832165615855,
AB,Lag1_T1P_T2A,1,P,A,8,9,7,5,14,Sausage,Did you see the Sausage?,0.12,0.016,JPG\,pencil01,broccoli01a,button01,sponge01,watermelon01,lipstick02a,comb02a,sausage,lighter01,sock01a,spoon01,blueberry01,belt02a,onion,blankImage,blankImage,blankImage,sausage,,,,,,,,,,,,0,102,102,175,,,,,,,,,,,,,,,,,,,,,,,,,,,,,,,,,,,769.9337022999534,770.9439972999971,770.9270929999184,771.5079793999903,771.5079793999903,None,773.18805170001,None,left,1.0392933000111952,773.18805170001,None,774.2470346000046,None,right,0.4035063999472186,774.2470346000046,None,,,,,,,,,,,,,,,,,,,,,,,PPT07,001,2022-06-28_16h39.33.399,ABstudy,2022.1.4,59.893832165615855,
AB,Lag5_T1P_T2P,5,P,P,7,12,6,5,17,Badminton Racket,Did you see the Badminton Racket?,0.12,0.016,JPG\,paintbrush01,dice05a,watermelon01,broccoli01a,hammer01,leaf02a,badmintonracket,tennisball01b,lemon02,fan,lipstick02a,stapler04b,envelope03a,sponge01,foosballtable,orange,blankImage,badmintonracket,,,,,,,,,,,,0,103,103,163,,,,,,,,,,,,,,,,,,,,,,,,,,,,,,,,,,,774.7335138999624,775.7485432999674,775.7320554999169,776.3138401999604,776.3138401999604,None,778.2507381999167,None,left,0.6253165000816807,778.2507381999167,None,778.9019971999805,None,left,0.30994469998404384,778.9019971999805,None,,,,,,,,,,,,,,,,,,,,,,,PPT07,001,2022-06-28_16h39.33.399,ABstudy,2022.1.4,59.893832165615855,
AB,Lag1_T1A_T2A,1,A,A,5,6,4,3,9,Pigeon,Did you see the Pigeon?,0.12,0.016,JPG\,candle01,paintbrush01,scissors01,fan,microscope,toothbrush03b,candle08b,watermelon01,teabag,blankImage,blankImage,blankImage,blankImage,blankImage,blankImage,blankImage,blankImage,floorlamp,,,,,,,,,,,,0,104,104,286,,,,,,,,,,,,,,,,,,,,,,,,,,,,,,,,,,,779.2411205000244,780.2532615999226,780.2367041999241,780.797243900015,780.797243900015,None,782.0039411999751,None,right,0.8544982000021264,782.0039411999751,None,782.8889507999411,None,right,0.3052890000399202,782.8889507999411,None,,,,,,,,,,,,,,,,,,,,,,,PPT07,001,2022-06-28_16h39.33.399,ABstudy,2022.1.4,59.893832165615855,
AB,Lag1_T1P_T2P,1,P,P,8,9,7,3,12,mail box,Did you see the mail box?,0.12,0.016,JPG\,paintbrush01,dice05a,watermelon01,broccoli01a,hammer01,leaf02a,match,mailbox01,stapler05,fan,lipstick02a,grape01,blankImage,blankImage,blankImage,blankImage,blankImage,mailbox01,,,,,,,,,,,,0,105,105,20,,,,,,,,,,,,,,,,,,,,,,,,,,,,,,,,,,,783.224844399956,784.2403138999362,784.2069297999842,784.8207975999685,784.8207975999685,None,786.2935069999658,None,right,0.9896172999870032,786.2935069999658,None,787.3100231999997,None,left,0.31709859997499734,787.3100231999997,None,,,,,,,,,,,,,,,,,,,,,,,PPT07,001,2022-06-28_16h39.33.399,ABstudy,2022.1.4,59.893832165615855,
AB,Lag5_T1P_T2A,5,P,A,8,13,7,4,17,Drum set,Did you see the Drum set?,0.12,0.016,JPG\,pencil01,microscope,banana01,computerkeyboard02,celery,cellphone,scissors01,drumset,book01b,onion,dice05a,binoculars01b,baseball01a,iron01b,screw02,fork03c,blankImage,drumset,,,,,,,,,,,,0,106,106,212,,,,,,,,,,,,,,,,,,,,,,,,,,,,,,,,,,,787.6458982999902,788.6446832999354,788.6282354999566,789.1985919999424,789.1985919999424,None,791.2081690999912,None,left,0.8910051999846473,791.2081690999912,None,792.1317094999831,None,right,0.3121517999097705,792.1317094999831,None,,,,,,,,,,,,,,,,,,,,,,,PPT07,001,2022-06-28_16h39.33.399,ABstudy,2022.1.4,59.893832165615855,
AB,Lag1_T1A_T2P,1,A,P,6,7,5,3,10,curtain,Did you see the curtain?,0.12,0.016,JPG\,carrot01,greenolive,fork03c,chain01,ashtray01,watermelon01,stapler06,printer02,comb02a,toaster01,blankImage,blankImage,blankImage,blankImage,blankImage,blankImage,blankImage,birdhouse,,,,,,,,,,,,0,107,107,249,,,,,,,,,,,,,,,,,,,,,,,,,,,,,,,,,,,792.4698067000136,793.4828273999738,793.4678397999378,794.1168737999396,794.0430207999889,None,795.2863031999441,None,right,1.3726346999173984,795.2863031999441,None,796.6866410999792,None,left,0.28445719997398555,796.6866410999792,None,,,,,,,,,,,,,,,,,,,,,,,PPT07,001,2022-06-28_16h39.33.399,ABstudy,2022.1.4,59.893832165615855,
AB,Lag1_T1A_T2P,1,A,P,5,6,4,3,9,microphone,Did you see the microphone?,0.12,0.016,JPG\,hammer01,sponge01,toaster01,cherry01,feather03a,stapler06,measuringcup01,pencil01,tennisball01b,blankImage,blankImage,blankImage,blankImage,blankImage,blankImage,blankImage,blankImage,cactus,,,,,,,,,,,,0,108,108,230,,,,,,,,,,,,,,,,,,,,,,,,,,,,,,,,,,,797.0091415999923,798.0209629000165,798.0044224999147,798.5985159999691,798.5985159999691,None,799.7331013999647,None,right,0.7251669999677688,799.7331013999647,None,800.4906635999214,None,left,0.24934760003816336,800.4906635999214,None,,,,,,,,,,,,,,,,,,,,,,,PPT07,001,2022-06-28_16h39.33.399,ABstudy,2022.1.4,59.893832165615855,
AB,Lag1_T1P_T2P,1,P,P,8,9,7,4,13,ladder,Did you see the ladder?,0.12,0.016,JPG\,cigarette,fork03c,greenolive,broccoli01a,avocado01,tennisball01b,balloon01b,ladder,stapler03b,fan,clock01a,strawberry,envelope03a,blankImage,blankImage,blankImage,blankImage,ladder,,,,,,,,,,,,0,109,109,45,,,,,,,,,,,,,,,,,,,,,,,,,,,,,,,,,,,800.7995351999998,801.8079755000072,801.7745773999486,802.3498569999356,802.3498569999356,None,803.959592500003,None,left,1.3225678999442607,803.959592500003,None,805.3141265999293,None,right,0.2569323000498116,805.3141265999293,None,,,,,,,,,,,,,,,,,,,,,,,PPT07,001,2022-06-28_16h39.33.399,ABstudy,2022.1.4,59.893832165615855,
AB,Lag5_T1A_T2P,5,A,P,7,12,6,5,17,Rollerblade,Did you see the Rollerblade?,0.12,0.016,JPG\,binoculars01b,cymbal,pizza,candy,paintbrush01,sponge01,grape01,thermometer02b,speaker04,lemon02,lipstick02a,stapler03b,candle01,8ball,plate01b,pen04b,blankImage,lion,,,,,,,,,,,,0,110,110,266,,,,,,,,,,,,,,,,,,,,,,,,,,,,,,,,,,,805.6007297999458,806.612604899914,806.5959064000053,807.1776539999992,807.1776539999992,None,809.2024098000256,None,right,0.8965666000731289,809.2024098000256,None,810.1164906999329,None,left,0.2464083000086248,810.1164906999329,None,,,,,,,,,,,,,,,,,,,,,,,PPT07,001,2022-06-28_16h39.33.399,ABstudy,2022.1.4,59.893832165615855,
AB,Lag5_T1A_T2P,5,A,P,5,10,4,4,14,mail box,Did you see the mail box?,0.12,0.016,JPG\,button01,celery,birthdaycandle,apple07,avocado01,tennisball01b,dice05a,teabag,clock01a,stapler05,tomato01,scarf,orange,battery02b,blankImage,blankImage,blankImage,jeep,,,,,,,,,,,,0,111,111,263,,,,,,,,,,,,,,,,,,,,,,,,,,,,,,,,,,,810.3894689999288,811.4016537999269,811.3863067999482,812.0729378999677,811.999106299947,None,813.6877474000212,None,right,0.6986930000130087,813.6877474000212,None,814.403641599929,None,left,0.23080210003536195,814.403641599929,None,,,,,,,,,,,,,,,,,,,,,,,PPT07,001,2022-06-28_16h39.33.399,ABstudy,2022.1.4,59.893832165615855,
AB,Lag5_T1A_T2P,5,A,P,5,10,4,4,14,duck,Did you see the duck?,0.12,0.016,JPG\,brick,eraser,cucumber,ashtray01,thermometer02b,binoculars01b,lipstick02a,screwdriver04b,grape01,stapler04b,battery02b,iron01b,dice05a,avocado01,blankImage,blankImage,blankImage,barrel01,,,,,,,,,,,,0,112,112,280,,,,,,,,,,,,,,,,,,,,,,,,,,,,,,,,,,,814.6566748999758,815.671624999959,815.6382450999226,816.2403393000131,816.2403393000131,None,817.9665201000171,None,right,1.3155815000645816,817.9665201000171,None,819.3089753999375,None,left,0.23712760000489652,819.3089753999375,None,,,,,,,,,,,,,,,,,,,,,,,PPT07,001,2022-06-28_16h39.33.399,ABstudy,2022.1.4,59.893832165615855,
AB,Lag1_T1P_T2P,1,P,P,5,6,4,5,11,beaver,Did you see the beaver?,0.12,0.016,JPG\,belt02a,sunglasses04,computerkeyboard02,cherry01,beaver,stapler03a,watch02a,dice05a,blueberry01,spoon01,match,blankImage,blankImage,blankImage,blankImage,blankImage,blankImage,beaver,,,,,,,,,,,,0,113,113,55,,,,,,,,,,,,,,,,,,,,,,,,,,,,,,,,,,,819.5796504999744,820.5940185999498,820.5783715000143,821.2408188999398,821.162477399921,None,822.4888852000004,None,left,1.2979259999701753,822.4888852000004,None,823.8130026999861,None,right,0.22974750003777444,823.8130026999861,None,,,,,,,,,,,,,,,,,,,,,,,PPT07,001,2022-06-28_16h39.33.399,ABstudy,2022.1.4,59.893832165615855,
AB,Lag1_T1P_T2P,1,P,P,7,8,6,3,11,tree,Did you see the tree?,0.12,0.016,JPG\,pear01,clock01a,cymbal,match,ashtray01,globe,tree,stapler03b,lemon02,pen04b,dice05a,blankImage,blankImage,blankImage,blankImage,blankImage,blankImage,tree,,,,,,,,,,,,0,114,114,51,,,,,,,,,,,,,,,,,,,,,,,,,,,,,,,,,,,824.0654932999751,825.0808610999957,825.0475106999511,825.6268431999488,825.6268431999488,None,827.0712113999762,None,left,1.372762699960731,827.0712113999762,None,828.4680806000251,None,right,0.26281520002521574,828.4680806000251,None,,,,,,,,,,,,,,,,,,,,,,,PPT07,001,2022-06-28_16h39.33.399,ABstudy,2022.1.4,59.893832165615855,
AB,Lag5_T1P_T2P,5,P,P,5,10,4,5,15,penguin,Did you see the penguin?,0.12,0.016,JPG\,watermelon01,cigarette,pintofbeer,cymbal,penguin,feather03a,cherry01,broom01,battery02b,stapler05,baseball01a,iron01b,garlic01a,computerkeyboard02,pig,blankImage,blankImage,penguin,,,,,,,,,,,,0,115,115,137,,,,,,,,,,,,,,,,,,,,,,,,,,,,,,,,,,,828.7538979999954,829.7692700999323,829.7360771999229,830.3160776000004,830.3160776000004,None,832.0603169000242,None,left,1.5743203000165522,832.0603169000242,None,833.6569144999376,None,left,0.32148409995716065,833.6569144999376,None,,,,,,,,,,,,,,,,,,,,,,,PPT07,001,2022-06-28_16h39.33.399,ABstudy,2022.1.4,59.893832165615855,
AB,Lag1_T1P_T2P,1,P,P,8,9,7,4,13,Bird House,Did you see the Bird House?,0.12,0.016,JPG\,toiletpaper01a,mushroom01,medal02b,sandal,rice,cd,feather03a,birdhouse,stapler01,garlic01a,toaster01,belt02a,cigarette,blankImage,blankImage,blankImage,blankImage,birdhouse,,,,,,,,,,,,0,116,116,77,,,,,,,,,,,,,,,,,,,,,,,,,,,,,,,,,,,834.0439867000096,835.05775919999,835.0410047000041,835.6362427999265,835.6362427999265,None,837.1785706999945,None,left,0.9522304999409243,837.1785706999945,None,838.1609070999548,None,left,0.2177330000558868,838.1609070999548,None,,,,,,,,,,,,,,,,,,,,,,,PPT07,001,2022-06-28_16h39.33.399,ABstudy,2022.1.4,59.893832165615855,
AB,Lag1_T1P_T2P,1,P,P,6,7,5,3,10,drum sticks,Did you see the drum sticks?,0.12,0.016,JPG\,pineapple01a,tennisball01b,computerkeyboard02,feather03a,belt02a,drumstick,stapler03b,blueberry01,medal02b,alligator,blankImage,blankImage,blankImage,blankImage,blankImage,blankImage,blankImage,drumstick,,,,,,,,,,,,0,117,117,61,,,,,,,,,,,,,,,,,,,,,,,,,,,,,,,,,,,838.4175418999512,839.4287595999194,839.4120304000098,840.0021152999252,840.0021152999252,None,841.1669130999362,None,left,0.8200088000157848,841.1669130999362,None,842.0144565999508,None,left,0.23627039999701083,842.0144565999508,None,,,,,,,,,,,,,,,,,,,,,,,PPT07,001,2022-06-28_16h39.33.399,ABstudy,2022.1.4,59.893832165615855,
AB,Lag5_T1P_T2P,5,P,P,5,10,4,3,13,rose,Did you see the rose?,0.12,0.016,JPG\,lipstick02a,cucumber,candle08b,printer02,rose,violin,paintbrush01,lighter01,belt02a,stapler03b,thermometer02b,microscope,cigarette,blankImage,blankImage,blankImage,blankImage,rose,,,,,,,,,,,,0,118,118,158,,,,,,,,,,,,,,,,,,,,,,,,,,,,,,,,,,,842.2836684000213,843.29915909993,843.2657376999268,843.8633908999618,843.8633908999618,None,845.4778327000095,None,left,0.7084098999621347,845.4778327000095,None,846.2189805000089,None,left,0.26316690002568066,846.2189805000089,None,,,,,,,,,,,,,,,,,,,,,,,PPT07,001,2022-06-28_16h39.33.399,ABstudy,2022.1.4,59.893832165615855,
AB,Lag5_T1P_T2A,5,P,A,7,12,6,3,15,helmet,Did you see the helmet?,0.12,0.016,JPG\,fork03c,belt02a,grape01,computerkeyboard02,lemon02,printer02,skihelmet01,toiletpaper01a,toaster01,lipstick02a,book01b,blueberry01,spoon01,apple07,avocado01,blankImage,blankImage,skihelmet01,,,,,,,,,,,,0,119,119,225,,,,,,,,,,,,,,,,,,,,,,,,,,,,,,,,,,,846.50698559999,847.5201745999511,847.5035841999343,848.0854508000193,848.0854508000193,None,849.9339185999706,None,right,0.596582300029695,849.9339185999706,None,850.5566329000285,None,right,0.3101093000732362,850.5566329000285,None,,,,,,,,,,,,,,,,,,,,,,,PPT07,001,2022-06-28_16h39.33.399,ABstudy,2022.1.4,59.893832165615855,
AB,Lag1_T1P_T2P,1,P,P,5,6,4,3,9,kangaroo,Did you see the kangaroo?,0.12,0.016,JPG\,candle01,shirt02,brick,orange,kangaroo,stapler03a,pizza,thermometer02b,book01b,blankImage,blankImage,blankImage,blankImage,blankImage,blankImage,blankImage,blankImage,kangaroo,,,,,,,,,,,,0,120,120,16,,,,,,,,,,,,,,,,,,,,,,,,,,,,,,,,,,,850.9676480999915,851.9743340000277,851.9575504999375,852.5261797999265,852.5261797999265,None,853.5397148999618,None,left,0.8472155999625102,853.5397148999618,None,854.4107118999818,None,right,0.3040019000181928,854.4107118999818,None,,,,,,,,,,,,,,,,,,,,,,,PPT07,001,2022-06-28_16h39.33.399,ABstudy,2022.1.4,59.893832165615855,
AB,Lag1_T1P_T2P,1,P,P,5,6,4,4,10,Ladybug,Did you see the Ladybug?,0.12,0.016,JPG\,key01,apple07,ring01,leaf02a,ladybug03,stapler04b,violin,sponge01,baseball01a,thermometer02b,blankImage,blankImage,blankImage,blankImage,blankImage,blankImage,blankImage,ladybug03,,,,,,,,,,,,0,121,121,65,,,,,,,,,,,,,,,,,,,,,,,,,,,,,,,,,,,854.750048100017,855.761565499939,855.7450378999347,856.3430143999867,856.3430143999867,None,857.5505066999467,None,left,1.2203576000174507,857.5505066999467,None,858.7978129999246,None,right,0.2369344000471756,858.7978129999246,None,,,,,,,,,,,,,,,,,,,,,,,PPT07,001,2022-06-28_16h39.33.399,ABstudy,2022.1.4,59.893832165615855,
AB,Lag1_T1A_T2A,1,A,A,8,9,7,3,12,punching bag,Did you see the punching bag?,0.12,0.016,JPG\,key01,apple07,ring01,leaf02a,hammer01,tableknife02,violin,sponge01,baseball01a,thermometer02b,celery,calculator01,blankImage,blankImage,blankImage,blankImage,blankImage,bathtub,,,,,,,,,,,,0,122,122,291,,,,,,,,,,,,,,,,,,,,,,,,,,,,,,,,,,,859.0693144999677,860.0826755999587,860.0660333000124,860.6322466999991,860.6322466999991,None,862.1212363999803,None,right,1.0264793999958783,862.1212363999803,None,863.1687507999595,None,right,0.6171952000586316,863.1687507999595,None,,,,,,,,,,,,,,,,,,,,,,,PPT07,001,2022-06-28_16h39.33.399,ABstudy,2022.1.4,59.893832165615855,
AB,Lag1_T1P_T2P,1,P,P,6,7,5,5,12,bat,Did you see the bat?,0.12,0.016,JPG\,comb02a,key01,medal02b,battery02b,lighter01,bat,stapler05,sandal,pig,cellphone,computerkeyboard02,calculator01,blankImage,blankImage,blankImage,blankImage,blankImage,bat,,,,,,,,,,,,0,123,123,35,,,,,,,,,,,,,,,,,,,,,,,,,,,,,,,,,,,863.804982499918,864.8046402999898,864.788910800009,865.402673900011,865.402673900011,None,866.9102920999285,None,left,0.9159118999959901,866.9102920999285,None,867.8566559000174,None,left,0.2894655999261886,867.8566559000174,None,,,,,,,,,,,,,,,,,,,,,,,PPT07,001,2022-06-28_16h39.33.399,ABstudy,2022.1.4,59.893832165615855,
AB,Lag1_T1P_T2P,1,P,P,5,6,4,5,11,shark,Did you see the shark?,0.12,0.016,JPG\,cucumber,sponge01,alligator,pear01,greatwhiteshark,stapler06,clock04,battery02b,fork03c,binoculars01b,mushroom01,blankImage,blankImage,blankImage,blankImage,blankImage,blankImage,greatwhiteshark,,,,,,,,,,,,0,124,124,84,,,,,,,,,,,,,,,,,,,,,,,,,,,,,,,,,,,868.1760631999932,869.191427999991,869.1580630999524,869.7523082999978,869.7523082999978,None,871.0869256999576,None,left,1.0672506999690086,871.0869256999576,None,872.1777235999471,None,left,0.6884561000624672,872.1777235999471,None,,,,,,,,,,,,,,,,,,,,,,,PPT07,001,2022-06-28_16h39.33.399,ABstudy,2022.1.4,59.893832165615855,
AB,Lag1_T1P_T2P,1,P,P,7,8,6,5,13,dream catcher,Did you see the dream catcher?,0.12,0.016,JPG\,clock01a,cellphone,toaster01,toothbrush03b,cauliflower01,microscope,dreamcatcher,stapler05,scarf,clock04,sponge01,iron01b,watch02a,blankImage,blankImage,blankImage,blankImage,dreamcatcher,,,,,,,,,,,,0,125,125,81,,,,,,,,,,,,,,,,,,,,,,,,,,,,,,,,,,,872.897395899985,873.9128522999818,873.8795173999388,874.4735997000244,874.4735997000244,None,876.0935205999995,None,left,0.8288397999713197,876.0935205999995,None,876.9495455999859,None,right,0.26861149992328137,876.9495455999859,None,,,,,,,,,,,,,,,,,,,,,,,PPT07,001,2022-06-28_16h39.33.399,ABstudy,2022.1.4,59.893832165615855,
AB,Lag1_T1P_T2P,1,P,P,8,9,7,4,13,peacock,Did you see the peacock?,0.12,0.016,JPG\,hammer01,sponge01,toaster01,cherry01,feather03a,mushroom01,measuringcup01,peacock,stapler03a,brick,clock04,medal02b,teabag,blankImage,blankImage,blankImage,blankImage,peacock,,,,,,,,,,,,0,126,126,68,,,,,,,,,,,,,,,,,,,,,,,,,,,,,,,,,,,877.255382000003,878.2675538000185,878.2508837999776,878.8304251999361,878.8304251999361,None,880.4303909000009,None,left,0.7320058998884633,880.4303909000009,None,881.1873950000154,None,right,0.2710471000755206,881.1873950000154,None,,,,,,,,,,,,,,,,,,,,,,,PPT07,001,2022-06-28_16h39.33.399,ABstudy,2022.1.4,59.893832165615855,
AB,Lag1_T1A_T2P,1,A,P,5,6,4,3,9,Crown,Did you see the Crown?,0.12,0.016,JPG\,leaf02a,pear01,measuringcup01,cigarette,fan,stapler04b,teabag,tableknife02,ring01,blankImage,blankImage,blankImage,blankImage,blankImage,blankImage,blankImage,blankImage,arrow02,,,,,,,,,,,,0,127,127,248,,,,,,,,,,,,,,,,,,,,,,,,,,,,,,,,,,,881.492277399986,882.5049066999927,882.4881409999216,883.0751126999967,883.0751126999967,None,884.2122196999844,None,right,1.7987152999266982,884.2122196999844,None,886.041550999973,None,right,0.43348460004199296,886.041550999973,None,,,,,,,,,,,,,,,,,,,,,,,PPT07,001,2022-06-28_16h39.33.399,ABstudy,2022.1.4,59.893832165615855,
AB,Lag5_T1P_T2P,5,P,P,5,10,4,3,13,bathtub,Did you see the bathtub?,0.12,0.016,JPG\,belt02a,sunglasses04,computerkeyboard02,cherry01,bathtub,eraser,watch02a,dice05a,blueberry01,stapler04b,match,leaf02a,iron01b,blankImage,blankImage,blankImage,blankImage,bathtub,,,,,,,,,,,,0,128,128,103,,,,,,,,,,,,,,,,,,,,,,,,,,,,,,,,,,,886.4944361000089,887.5096842999337,887.4763155999826,888.0558789999923,888.0558789999923,None,889.6390320999781,None,left,0.5392041999148205,889.6390320999781,None,890.1960520999273,None,left,0.27854690002277493,890.1960520999273,None,,,,,,,,,,,,,,,,,,,,,,,PPT07,001,2022-06-28_16h39.33.399,ABstudy,2022.1.4,59.893832165615855,
AB,Lag5_T1P_T2P,5,P,P,7,12,6,4,16,window,Did you see the window?,0.12,0.016,JPG\,cigarette,pig,banana01,strawberry,clock01a,plate01b,dormer,blueberry01,battery02b,pineapple01a,chain01,stapler01,candy,pen04b,teabag,birthdaycandle,blankImage,dormer,,,,,,,,,,,,0,129,129,170,,,,,,,,,,,,,,,,,,,,,,,,,,,,,,,,,,,890.5003547000233,891.514525000006,891.498780899914,892.0851790999295,892.0851790999295,None,893.9804485000204,None,left,0.5575587000930682,893.9804485000204,None,894.5666685999604,None,left,0.2929149999981746,894.5666685999604,None,,,,,,,,,,,,,,,,,,,,,,,PPT07,001,2022-06-28_16h39.33.399,ABstudy,2022.1.4,59.893832165615855,
AB,Lag5_T1A_T2P,5,A,P,5,10,4,3,13,flower,Did you see the flower?,0.12,0.016,JPG\,cucumber,ring01,lipstick02a,microscope,violin,garlic01a,celery,lighter01,cherry01,stapler03a,belt02a,key01,binoculars01b,blankImage,blankImage,blankImage,blankImage,christmastree,,,,,,,,,,,,0,130,130,284,,,,,,,,,,,,,,,,,,,,,,,,,,,,,,,,,,,894.8875203999924,895.9015779999318,895.8848109999672,896.4677289000247,896.4677289000247,None,898.0125428999308,None,right,1.7586777999531478,898.0125428999308,None,899.7885169999208,None,right,0.4698430000571534,899.7885169999208,None,,,,,,,,,,,,,,,,,,,,,,,PPT07,001,2022-06-28_16h39.33.399,ABstudy,2022.1.4,59.893832165615855,
AB,Lag5_T1P_T2P,5,P,P,7,12,6,4,16,Recycling bin,Did you see the Recycling bin?,0.12,0.016,JPG\,broccoli01a,scissors01,toothbrush03b,foosballtable,iron01b,brick,recyclingbin,toiletpaper01a,cd,garlic01a,carrot01,stapler03a,envelope03a,battery02b,balloon01b,broom01,blankImage,recyclingbin,,,,,,,,,,,,0,131,131,157,,,,,,,,,,,,,,,,,,,,,,,,,,,,,,,,,,,900.2927677999251,901.3068021999206,901.2899693999207,901.9341126999352,901.857973099919,None,903.8365588999586,None,left,0.5334474999690428,903.8365588999586,None,904.3930616999278,None,left,0.28896010003518313,904.3930616999278,None,,,,,,,,,,,,,,,,,,,,,,,PPT07,001,2022-06-28_16h39.33.399,ABstudy,2022.1.4,59.893832165615855,
AB,Lag1_T1A_T2P,1,A,P,8,9,7,3,12,elbow,Did you see the elbow?,0.12,0.016,JPG\,watermelon01,cigarette,faucet,cymbal,cauliflower01,feather03a,cherry01,broom01,stapler01,key01,baseball01a,iron01b,blankImage,blankImage,blankImage,blankImage,blankImage,cashregister01,,,,,,,,,,,,0,132,132,251,,,,,,,,,,,,,,,,,,,,,,,,,,,,,,,,,,,904.7105875000125,905.7111730999313,905.694493799936,906.2836488999892,906.2836488999892,None,907.7808899999363,None,right,1.2691418000031263,907.7808899999363,None,909.0813627999742,None,left,0.2644994999282062,909.0813627999742,None,,,,,,,,,,,,,,,,,,,,,,,PPT07,001,2022-06-28_16h39.33.399,ABstudy,2022.1.4,59.893832165615855,
AB,Lag5_T1P_T2P,5,P,P,8,13,7,5,18,pipe,Did you see the pipe?,0.12,0.016,JPG\,scissors01,ashtray01,garlic01a,medal02b,cigarette,candle08b,leaf02a,smokingpipe,cucumber,rice,toiletpaper01a,greenolive,stapler01,cellphone,tableknife02,spoon01,blankImage,smokingpipe,,,,,,,,,,,,0,133,133,138,,,,,,,,,,,,,,,,,,,,,,,,,,,,,,,,,,,909.3706530999625,910.3828392999712,910.3660703999922,910.9326298999367,910.9326298999367,None,912.8963425999973,None,left,0.5778948999941349,912.8963425999973,None,913.50340279995,None,left,0.31552419997751713,913.50340279995,None,,,,,,,,,,,,,,,,,,,,,,,PPT07,001,2022-06-28_16h39.33.399,ABstudy,2022.1.4,59.893832165615855,
AB,Lag1_T1P_T2P,1,P,P,6,7,5,3,10,jelly beans,Did you see the jelly beans?,0.12,0.016,JPG\,lipstick02a,cucumber,candle08b,printer02,grape01,jellybean,stapler01,lighter01,belt02a,balloon01b,blankImage,blankImage,blankImage,blankImage,blankImage,blankImage,blankImage,jellybean,,,,,,,,,,,,0,134,134,15,,,,,,,,,,,,,,,,,,,,,,,,,,,,,,,,,,,913.8433971999912,914.854557899991,914.8390292000258,915.497892400017,915.4269530000165,None,916.7131982999854,None,left,1.1220446999650449,916.7131982999854,None,917.8570715999231,None,left,0.24130600003991276,917.8570715999231,None,,,,,,,,,,,,,,,,,,,,,,,PPT07,001,2022-06-28_16h39.33.399,ABstudy,2022.1.4,59.893832165615855,
AB,Lag5_T1P_T2A,5,P,A,6,11,5,5,16,fish,Did you see the fish?,0.12,0.016,JPG\,cucumber,ring01,lipstick02a,microscope,violin,redlionfish,celery,lighter01,cherry01,sewingmachine01a,belt02a,key01,binoculars01b,medal02b,watermelon01,dice05a,blankImage,redlionfish,,,,,,,,,,,,0,135,135,221,,,,,,,,,,,,,,,,,,,,,,,,,,,,,,,,,,,918.1268623999786,919.1412395000225,919.1079262000276,919.6875709999586,919.6875709999586,None,921.6844626999227,None,left,0.8700984000461176,921.6844626999227,None,922.5778871999355,None,right,0.27264870004728436,922.5778871999355,None,,,,,,,,,,,,,,,,,,,,,,,PPT07,001,2022-06-28_16h39.33.399,ABstudy,2022.1.4,59.893832165615855,
AB,Lag5_T1P_T2A,5,P,A,7,12,6,4,16,Bear,Did you see the Bear?,0.12,0.016,JPG\,comb02a,key01,medal02b,battery02b,lighter01,microscope,grizzly,sandal,pig,cellphone,computerkeyboard02,calculator01,cymbal,clock04,cucumber,avocado01,blankImage,grizzly,,,,,,,,,,,,0,136,136,213,,,,,,,,,,,,,,,,,,,,,,,,,,,,,,,,,,,922.8804370999569,923.8959361999296,923.862601700006,924.4437568000285,924.4437568000285,None,926.482546199928,None,left,0.6791912000626326,926.482546199928,None,927.1824538999936,None,right,0.27628350001759827,927.1824538999936,None,,,,,,,,,,,,,,,,,,,,,,,PPT07,001,2022-06-28_16h39.33.399,ABstudy,2022.1.4,59.893832165615855,
AB,Lag1_T1P_T2P,1,P,P,5,6,4,5,11,football,Did you see the football?,0.12,0.016,JPG\,globe,belt02a,sponge01,violin,soccerball,stapler01,clock01a,microscope,balloon01b,scarf,teabag,blankImage,blankImage,blankImage,blankImage,blankImage,blankImage,soccerball,,,,,,,,,,,,0,137,137,26,,,,,,,,,,,,,,,,,,,,,,,,,,,,,,,,,,,927.4851360999746,928.5004337999271,928.4671502999263,929.0591742999386,929.0591742999386,None,930.376133600017,None,left,0.7464678999967873,930.376133600017,None,931.1538945999928,None,left,0.27252160001080483,931.1538945999928,None,,,,,,,,,,,,,,,,,,,,,,,PPT07,001,2022-06-28_16h39.33.399,ABstudy,2022.1.4,59.893832165615855,
