TrialType,CondType,Lag,T1_PA,T2_PA,T1Loc,T2Loc,PreDistractor,PostDistractor,TotalImg,cueWord,T1cue,StimLength,isi,PicFolder,Img1,Img2,Img3,Img4,Img5,Img6,Img7,Img8,Img9,Img10,Img11,Img12,Img13,Img14,Img15,Img16,Img17,T1_Identity,ImageType,T1PA,T2PA,Picture,Image,FullPathName,FilePath,Practice_Trials.thisRepN,Practice_Trials.thisTrialN,Practice_Trials.thisN,Practice_Trials.thisIndex,trials.thisRepN,trials.thisTrialN,trials.thisN,trials.thisIndex,trials_2.thisRepN,trials_2.thisTrialN,trials_2.thisN,trials_2.thisIndex,Practice_Ins.started,Practice_Ins.stopped,End_Prac_Ins.keys,End_Prac_Ins.rt,End_Prac_Ins.started,End_Prac_Ins.stopped,text_2.started,text_2.stopped,Fixation_Cross_2.started,Fixation_Cross_2.stopped,Rapid_Image_Present_2.started,Rapid_Image_Present_2.stopped,key_resp.keys,key_resp.rt,key_resp.started,key_resp.stopped,T1Response_2.started,T1Response_2.stopped,T2Response_2.started,T2Response_2.stopped,key_resp_4.keys,key_resp_4.rt,key_resp_4.started,key_resp_4.stopped,text.started,text.stopped,End_Instructions.keys,End_Instructions.rt,End_Instructions.started,End_Instructions.stopped,text_5.started,text_5.stopped,FC.started,FC.stopped,Rapid_Image_Present.started,Rapid_Image_Present.stopped,T1Response.started,T1Response.stopped,key_resp_2.keys,key_resp_2.rt,key_resp_2.started,key_resp_2.stopped,T2Response.started,T2Response.stopped,key_resp_3.keys,key_resp_3.rt,key_resp_3.started,key_resp_3.stopped,text_6.started,text_6.stopped,Fin_ins.keys,Fin_ins.rt,Fin_ins.started,Fin_ins.stopped,MemTest.started,MemTest.stopped,MemResponse.keys,MemResponse.rt,MemResponse.started,MemResponse.stopped,Display.started,Display.stopped,text_7.started,text_7.stopped,endOfExperiment.started,endOfExperiment.stopped,key_resp_5.keys,key_resp_5.rt,key_resp_5.started,key_resp_5.stopped,participant,session,date,expName,psychopyVersion,frameRate,
,,,,,,,,,,,,,,,,,,,,,,,,,,,,,,,,,,,,,,,,,,,,,,,,,,,,15.31012030004058,None,space,25.739973600022495,15.31012030004058,None,,,,,,,,,,,,,,,,,,,,,,,,,,,,,,,,,,,,,,,,,,,,,,,,,,,,,,,,,,,,,,,,,PPT06,001,2022-06-28_15h27.56.947,ABstudy,2022.1.4,59.85217712398257,
AB_Prac,Lag1_T1P_T2P,1,P,P,8,9,7,5,14,Tennis racket,Did you see the Tennis racket?,0.5,0.016,JPG\,coconut,computermouse06,croissant01,deodorant02a,pillow01a,peanut01,boot02b,tennisracket,stapler03b,crayon,eggplant,marker01a,plant01,radish01,blankImage,blankImage,blankImage,tennisracket,,,,,,,,0,0,0,0,,,,,,,,,,,,,,,41.130319499992765,42.13653090002481,42.120026100077666,42.743467100081034,42.743467100081034,None,left,1.4727393999928609,49.78476900001988,None,49.78476900001988,None,51.2792943000095,None,right,2.5868326999479905,51.2792943000095,None,,,,,,,,,,,,,,,,,,,,,,,,,,,,,,,,,,,,,,,,,,,,,,,PPT06,001,2022-06-28_15h27.56.947,ABstudy,2022.1.4,59.85217712398257,
AB_Prac,Lag5_T1P_T2P,5,P,P,7,12,6,3,15,vacuum,Did you see the vacuum?,0.5,0.016,JPG\,fork07b,lightbulb01,manshoe,saw02b,shoelace,soap03a,vacuumcleaner01,floortile01,necklace,doll,cabbage,stapler03a,hanger02a,laptop01a,nailpolish03b,blankImage,blankImage,vacuumcleaner01,,,,,,,,0,1,1,2,,,,,,,,,,,,,,,53.90234190004412,54.91579640004784,54.89914780005347,55.474858900066465,55.474858900066465,None,left,0.931832000031136,62.99006650003139,None,62.99006650003139,None,63.944290500017814,None,left,1.2889735999051481,63.944290500017814,None,,,,,,,,,,,,,,,,,,,,,,,,,,,,,,,,,,,,,,,,,,,,,,,PPT06,001,2022-06-28_15h27.56.947,ABstudy,2022.1.4,59.85217712398257,
AB_Prac,Lag5_T1P_T2A,5,P,A,6,11,5,5,16,Wheat,Did you see the Wheat?,0.5,0.016,JPG\,bottleopener01,dentalfloss03b,cooler01,icecreamcone01a,paperclip01b,wheat,pencilsharpener02a,plasticbasket01a,toycar04,apricot,hairclip02,rock01a,honeydewmelon,antenna,blackberry,cardboardbox,blankImage,wheat,,,,,,,,0,2,2,7,,,,,,,,,,,,,,,65.33107240009122,66.34351440006867,66.32678140001372,66.89033650001511,66.89033650001511,None,left,1.3110666000284255,74.90653460007161,None,74.90653460007161,None,76.23769910004921,None,right,0.8850515000522137,76.23769910004921,None,,,,,,,,,,,,,,,,,,,,,,,,,,,,,,,,,,,,,,,,,,,,,,,PPT06,001,2022-06-28_15h27.56.947,ABstudy,2022.1.4,59.85217712398257,
AB_Prac,Lag1_T1P_T2A,1,P,A,5,6,4,5,11,Webcam,Did you see the Webcam?,0.5,0.016,JPG\,pictureframe04,binder03b,straw,adjustablewrench01b,webcam,cane,hairdryer02a,icepack,kitchenscale01a,lifejacket,piggybank,blankImage,blankImage,blankImage,blankImage,blankImage,blankImage,webcam,,,,,,,,0,3,3,6,,,,,,,,,,,,,,,77.16112980002072,78.17244130000472,78.15600830002222,78.74006460001692,78.74006460001692,None,left,0.8346622000681236,84.4073258000426,None,84.4073258000426,None,85.26395130006131,None,right,1.1780939999734983,85.26395130006131,None,,,,,,,,,,,,,,,,,,,,,,,,,,,,,,,,,,,,,,,,,,,,,,,PPT06,001,2022-06-28_15h27.56.947,ABstudy,2022.1.4,59.85217712398257,
AB_Prac,Lag5_T1P_T2A,5,P,A,6,11,5,5,16,bread,Did you see the bread?,0.5,0.016,JPG\,cleaver01,clipboard,dustpan,hikingshoe01,notebook03a,baguette01,playingcard,pliers02b,styrofoamcup,rollingpin01a,swimgoggles,wineglass01,fryingpan02a,safetypin,syringe01,thimble,blankImage,baguette01,,,,,,,,0,4,4,8,,,,,,,,,,,,,,,86.46937930001877,87.48179650004022,87.46514640003443,88.03281850006897,88.03281850006897,None,left,0.6488308999687433,96.0486729000695,None,96.0486729000695,None,96.72653000010177,None,right,0.9879146000603214,96.72653000010177,None,,,,,,,,,,,,,,,,,,,,,,,,,,,,,,,,,,,,,,,,,,,,,,,PPT06,001,2022-06-28_15h27.56.947,ABstudy,2022.1.4,59.85217712398257,
AB_Prac,Lag5_T1A_T2P,5,A,P,6,11,5,3,14,dog,Did you see the dog?,0.5,0.016,JPG\,bucket01a,doorlock,cookiecutter,fireextinguisher01,gluestick,highlighter02b,sportbag,spraybottle01,suitcase,thread02,stapler05,walnut01c,icecubetray01a,vikingmask01b,blankImage,blankImage,blankImage,None,,,,,,,,0,5,5,9,,,,,,,,,,,,,,,97.74610450002365,98.75945460004732,98.74275530001614,99.33403650007676,99.33403650007676,None,right,0.9953451999463141,106.37525520008057,None,106.37525520008057,None,107.40122820006218,None,right,4.36056760000065,107.40122820006218,None,,,,,,,,,,,,,,,,,,,,,,,,,,,,,,,,,,,,,,,,,,,,,,,PPT06,001,2022-06-28_15h27.56.947,ABstudy,2022.1.4,59.85217712398257,
AB_Prac,Lag5_T1P_T2P,5,P,P,5,10,4,5,15,washing machine,Did you see the washing machine?,0.5,0.016,JPG\,waterbottle03,wheel01,flashlight02b,zucchini01,washingmachine,headphones02b,nutcracker01,paintroller01,paperclip03,stapler06,ribbon04,electricrazor,bottleofredwine01,pitabread,pot02a,blankImage,blankImage,washingmachine,,,,,,,,0,6,6,4,,,,,,,,,,,,,,,111.81019380001817,112.82375840004534,112.79044210002758,113.36623280006461,113.36623280006461,None,left,2.2105038000736386,120.88714400003664,None,120.88714400003664,None,123.11757770006079,None,left,0.8199846999486908,123.11757770006079,None,,,,,,,,,,,,,,,,,,,,,,,,,,,,,,,,,,,,,,,,,,,,,,,PPT06,001,2022-06-28_15h27.56.947,ABstudy,2022.1.4,59.85217712398257,
AB_Prac,Lag5_T1P_T2P,5,P,P,5,10,4,5,15,Vulture,Did you see the Vulture?,0.5,0.016,JPG\,shorts01,toast,ramekin01,bib,vulture,cracker02,date,glasses01a,hat03b,stapler01,measuringtape01,nail,pill,drum01,starfish01,blankImage,blankImage,vulture,,,,,,,,0,7,7,3,,,,,,,,,,,,,,,123.97740840003826,124.98575970006641,124.96909840009175,125.54256090009585,125.54256090009585,None,right,0.7349500999553129,133.07429570006207,None,133.07429570006207,None,133.82758230005857,None,left,3.2864684000378475,133.82758230005857,None,,,,,,,,,,,,,,,,,,,,,,,,,,,,,,,,,,,,,,,,,,,,,,,PPT06,001,2022-06-28_15h27.56.947,ABstudy,2022.1.4,59.85217712398257,
AB_Prac,Lag1_T1A_T2A,1,A,A,8,9,7,3,12,Moose,Did you see the Moose?,0.5,0.016,JPG\,clothespin03b,corkscrew03a,drillbit03a,fusilli03a,needlenosepliers01,perfume01a,pistachio,scrubbingbrush05b,spatula03,toothpastetube,hinge,toydinosaur,blankImage,blankImage,blankImage,blankImage,blankImage,None,,,,,,,,0,8,8,10,,,,,,,,,,,,,,,137.13732050010003,138.14863730000798,138.13190030003898,138.70605530007742,138.70605530007742,None,right,4.123417799943127,144.7742155001033,None,144.7742155001033,None,148.92656380007975,None,right,1.1463567999890074,148.92656380007975,None,,,,,,,,,,,,,,,,,,,,,,,,,,,,,,,,,,,,,,,,,,,,,,,PPT06,001,2022-06-28_15h27.56.947,ABstudy,2022.1.4,59.85217712398257,
AB_Prac,Lag1_T1P_T2P,1,P,P,6,7,5,5,12,triangle,Did you see the triangle?,0.5,0.016,JPG\,ginger,mousetrap,plum01,slipper01b,dropper01,triangle,stapler04b,pants,raspberry01,rope03,scale01a,vase01,blankImage,blankImage,blankImage,blankImage,blankImage,triangle,,,,,,,,0,9,9,1,,,,,,,,,,,,,,,150.10026900004596,151.11159480002243,151.09497030009516,151.67883640003856,151.67883640003856,None,left,1.3243687000358477,157.70099969999865,None,157.70099969999865,None,159.05328580003697,None,right,0.30128390004392713,159.05328580003697,None,,,,,,,,,,,,,,,,,,,,,,,,,,,,,,,,,,,,,,,,,,,,,,,PPT06,001,2022-06-28_15h27.56.947,ABstudy,2022.1.4,59.85217712398257,
AB_Prac,Lag1_T1P_T2A,1,P,A,8,9,7,5,14,flower,Did you see the flower?,0.5,0.016,JPG\,razor01,axe01,binder03b,bowl01,kettle01,lettuce,lime,plasticflower01b,mitten04,pencilcase01,plunger02,strawbasket01,toothpick02,wallet02a,blankImage,blankImage,blankImage,plasticflower01b,,,,,,,,0,10,10,5,,,,,,,,,,,,,,,159.3917849001009,160.40439100004733,160.38778049999382,160.95749830000568,160.95749830000568,None,left,0.8124417000217363,167.98056000005454,None,167.98056000005454,None,168.81280960002914,None,right,0.5961458999663591,168.81280960002914,None,,,,,,,,,,,,,,,,,,,,,,,,,,,,,,,,,,,,,,,,,,,,,,,PPT06,001,2022-06-28_15h27.56.947,ABstudy,2022.1.4,59.85217712398257,
AB_Prac,Lag5_T1A_T2A,5,A,A,6,11,5,5,16,castle,Did you see the castle?,0.5,0.016,JPG\,tape02a,englishmuffin,flask,ladle02a,monitor,peach01,keychain,squeegee01b,telephone01b,whisk,walkman,syringe02,baguette01,coaster,box01a,coffeepot03a,blankImage,None,,,,,,,,0,11,11,11,,,,,,,,,,,,,,,169.43627180007752,170.44738730008248,170.4306748000672,171.03296240000054,171.03296240000054,None,right,2.5598627999424934,179.0981512001017,None,179.0981512001017,None,181.67509920010343,None,right,0.3668068000115454,181.67509920010343,None,,,,,,,,,,,,,,,,,,,,,,,,,,,,,,,,,,,,,,,,,,,,,,,PPT06,001,2022-06-28_15h27.56.947,ABstudy,2022.1.4,59.85217712398257,
,,,,,,,,,,,,,,,,,,,,,,,,,,,,,,,,,,,,,,,,,,,,,,,,,,,,,,,,,,,,,,,,,,,,,,,,,,,,182.05911260005087,None,space,19.19019680004567,182.05911260005087,None,,,,,,,,,,,,,,,,,,,,,,,,,,,,,,,,,,,,,,,,,PPT06,001,2022-06-28_15h27.56.947,ABstudy,2022.1.4,59.85217712398257,
AB,Lag1_T1A_T2P,1,A,P,5,6,4,3,9,barrel,Did you see the barrel?,0.12,0.016,JPG\,clock01a,cellphone,toaster01,toothbrush03b,cauliflower01,stapler01,comb02a,paintbrush01,scarf,blankImage,blankImage,blankImage,blankImage,blankImage,blankImage,blankImage,blankImage,sheep,,,,,,,,,,,,0,0,0,243,,,,,,,,,,,,,,,,,,,,,,,,,,,,,,,,,,,201.91417020000517,202.9297669000225,202.91338410007302,203.53898970002774,203.53898970002774,None,204.59550430008676,None,right,1.9100774999242276,204.59550430008676,None,206.53575140004978,None,right,0.5527676000492647,206.53575140004978,None,,,,,,,,,,,,,,,,,,,,,,,PPT06,001,2022-06-28_15h27.56.947,ABstudy,2022.1.4,59.85217712398257,
AB,Lag5_T1P_T2P,5,P,P,5,10,4,4,14,bell,Did you see the bell?,0.12,0.016,JPG\,teabag,envelope03a,cellphone,apple07,callbell,orange,brownsugar,book01b,hammer01,stapler03b,toaster01,calculator01,globe,battery02b,blankImage,blankImage,blankImage,callbell,,,,,,,,,,,,0,1,1,147,,,,,,,,,,,,,,,,,,,,,,,,,,,,,,,,,,,207.12291640008334,208.13502500008326,208.11864610004704,208.69674580008723,208.69674580008723,None,210.36714970006142,None,right,1.9299147999845445,210.36714970006142,None,212.3223236000631,None,left,0.7033890000311658,212.3223236000631,None,,,,,,,,,,,,,,,,,,,,,,,PPT06,001,2022-06-28_15h27.56.947,ABstudy,2022.1.4,59.85217712398257,
AB,Lag5_T1A_T2A,5,A,A,5,10,4,5,15,sword,Did you see the sword?,0.12,0.016,JPG\,pencil01,broccoli01a,button01,sponge01,watermelon01,lipstick02a,comb02a,fan,lighter01,sock01a,spoon01,blueberry01,belt02a,onion,grape01,blankImage,blankImage,parachute,,,,,,,,,,,,0,2,2,298,,,,,,,,,,,,,,,,,,,,,,,,,,,,,,,,,,,213.0594605000224,214.0740692000836,214.0407952000387,214.60781020007562,214.60781020007562,None,216.46377740008757,None,right,0.5927688999800012,216.46377740008757,None,217.07756760006305,None,right,0.3638393000001088,217.07756760006305,None,,,,,,,,,,,,,,,,,,,,,,,PPT06,001,2022-06-28_15h27.56.947,ABstudy,2022.1.4,59.85217712398257,
AB,Lag5_T1A_T2P,5,A,P,5,10,4,5,15,parachute,Did you see the parachute?,0.12,0.016,JPG\,binoculars01b,speaker04,sandal,envelope03a,plate01b,comb02a,battery02b,chain01,measuringcup01,stapler03b,medal02b,lamp04a,tennisball01b,pizza,cigarette,blankImage,blankImage,knee,,,,,,,,,,,,0,3,3,264,,,,,,,,,,,,,,,,,,,,,,,,,,,,,,,,,,,217.4693588000955,218.4788965000771,218.46210560004693,219.03506190003827,219.03506190003827,None,220.84796710009687,None,right,1.2965504999738187,220.84796710009687,None,222.16588460002095,None,right,0.49091429996769875,222.16588460002095,None,,,,,,,,,,,,,,,,,,,,,,,PPT06,001,2022-06-28_15h27.56.947,ABstudy,2022.1.4,59.85217712398257,
AB,Lag1_T1P_T2P,1,P,P,8,9,7,5,14,helicopter,Did you see the helicopter?,0.12,0.016,JPG\,broom01,globe,cellphone,tableknife02,cauliflower01,scissors01,ring01,helicopter,stapler01,toaster01,cigarette,grape01,microscope,cucumber,blankImage,blankImage,blankImage,helicopter,,,,,,,,,,,,0,4,4,85,,,,,,,,,,,,,,,,,,,,,,,,,,,,,,,,,,,222.6896485000616,223.7014053000603,223.68597079999745,224.3566160000628,224.28335130005144,None,225.9922477999935,None,left,0.616579599911347,225.9922477999935,None,226.63689250010066,None,left,0.17154769995249808,226.63689250010066,None,,,,,,,,,,,,,,,,,,,,,,,PPT06,001,2022-06-28_15h27.56.947,ABstudy,2022.1.4,59.85217712398257,
AB,Lag5_T1P_T2P,5,P,P,8,13,7,5,18,bed,Did you see the bed?,0.12,0.016,JPG\,pencil01,broccoli01a,button01,sponge01,watermelon01,lipstick02a,comb02a,bed,lighter01,sock01a,spoon01,blueberry01,stapler04b,onion,grape01,avocado01,blankImage,bed,,,,,,,,,,,,0,5,5,124,,,,,,,,,,,,,,,,,,,,,,,,,,,,,,,,,,,226.83918310003355,227.854527000105,227.82113540009595,228.39466119999997,228.39466119999997,None,230.34428720001597,None,right,1.0485445000231266,230.34428720001597,None,231.42471490008757,None,left,0.5118576999520883,231.42471490008757,None,,,,,,,,,,,,,,,,,,,,,,,PPT06,001,2022-06-28_15h27.56.947,ABstudy,2022.1.4,59.85217712398257,
AB,Lag5_T1P_T2P,5,P,P,8,13,7,3,16,shrimp,Did you see the shrimp?,0.12,0.016,JPG\,globe,belt02a,sponge01,violin,fork03c,tomato01,clock01a,cocktailshrimp02,balloon01b,scarf,teabag,pen04b,stapler03a,brownsugar,speaker04,screwdriver04b,blankImage,cocktailshrimp02,,,,,,,,,,,,0,6,6,169,,,,,,,,,,,,,,,,,,,,,,,,,,,,,,,,,,,231.96178680006415,232.97627360001206,232.9428417000454,233.5306904000463,233.5306904000463,None,235.46769190009218,None,right,2.8130452999612316,235.46769190009218,None,238.29859260004014,None,left,0.4061729999957606,238.29859260004014,None,,,,,,,,,,,,,,,,,,,,,,,PPT06,001,2022-06-28_15h27.56.947,ABstudy,2022.1.4,59.85217712398257,
AB,Lag1_T1P_T2P,1,P,P,7,8,6,3,11,tree,Did you see the tree?,0.12,0.016,JPG\,pear01,clock01a,cymbal,match,ashtray01,globe,tree,stapler03b,lemon02,pen04b,dice05a,blankImage,blankImage,blankImage,blankImage,blankImage,blankImage,tree,,,,,,,,,,,,0,7,7,51,,,,,,,,,,,,,,,,,,,,,,,,,,,,,,,,,,,238.79369780002162,239.80048960004933,239.7842404000694,240.38433300005272,240.38433300005272,None,241.67346730001736,None,right,0.8556634000269696,241.67346730001736,None,242.5523983000312,None,left,2.7366428999230266,242.5523983000312,None,,,,,,,,,,,,,,,,,,,,,,,PPT06,001,2022-06-28_15h27.56.947,ABstudy,2022.1.4,59.85217712398257,
AB,Lag1_T1P_T2P,1,P,P,7,8,6,3,11,locker,Did you see the locker?,0.12,0.016,JPG\,toiletpaper01a,lipstick02a,potato02b,speaker04,globe,strawberry,locker,stapler04b,sock01a,candle08b,pen04b,blankImage,blankImage,blankImage,blankImage,blankImage,blankImage,locker,,,,,,,,,,,,0,8,8,19,,,,,,,,,,,,,,,,,,,,,,,,,,,,,,,,,,,245.32406270003412,246.3394109000219,246.30615670001134,246.88809370005038,246.88809370005038,None,248.25432780000847,None,right,2.754404600011185,248.25432780000847,None,251.0284713000292,None,left,0.5319819999858737,251.0284713000292,None,,,,,,,,,,,,,,,,,,,,,,,PPT06,001,2022-06-28_15h27.56.947,ABstudy,2022.1.4,59.85217712398257,
AB,Lag1_T1P_T2P,1,P,P,6,7,5,4,11,cash register,Did you see the cash register?,0.12,0.016,JPG\,leaf02a,apple07,cd,pineapple01a,envelope03a,cashregister01,stapler03b,8ball,rice,feather03a,lemon02,blankImage,blankImage,blankImage,blankImage,blankImage,blankImage,cashregister01,,,,,,,,,,,,0,9,9,79,,,,,,,,,,,,,,,,,,,,,,,,,,,,,,,,,,,251.58230700006243,252.5961158000864,252.57944670005236,253.15503120003268,253.15503120003268,None,254.48396380001213,None,left,0.8042394000804052,254.48396380001213,None,255.3154443000676,None,left,0.38107480003964156,255.3154443000676,None,,,,,,,,,,,,,,,,,,,,,,,PPT06,001,2022-06-28_15h27.56.947,ABstudy,2022.1.4,59.85217712398257,
AB,Lag1_T1P_T2A,1,P,A,7,8,6,3,11,Armadillo,Did you see the Armadillo?,0.12,0.016,JPG\,clock01a,cellphone,toaster01,toothbrush03b,cauliflower01,microscope,armadillo,paintbrush01,scarf,clock04,sponge01,blankImage,blankImage,blankImage,blankImage,blankImage,blankImage,armadillo,,,,,,,,,,,,0,10,10,180,,,,,,,,,,,,,,,,,,,,,,,,,,,,,,,,,,,255.7203911000397,256.73353020008653,256.7168347000843,257.2895150000695,257.2895150000695,None,258.6468906000955,None,left,1.5855702999979258,258.6468906000955,None,260.25371850002557,None,right,0.7229726000223309,260.25371850002557,None,,,,,,,,,,,,,,,,,,,,,,,PPT06,001,2022-06-28_15h27.56.947,ABstudy,2022.1.4,59.85217712398257,
AB,Lag1_T1P_T2P,1,P,P,7,8,6,4,12,Christmas Tree,Did you see the Christmas Tree?,0.12,0.016,JPG\,sandal,fan,printer02,cellphone,mushroom01,candle08b,firtree,stapler03a,lamp04a,hammer01,teabag,aceofdiamond,blankImage,blankImage,blankImage,blankImage,blankImage,firtree,,,,,,,,,,,,0,11,11,6,,,,,,,,,,,,,,,,,,,,,,,,,,,,,,,,,,,261.01391159999184,262.0220937000122,262.00542870000936,262.5855844001053,262.5855844001053,None,264.01930400007404,None,left,0.9174446000251919,264.01930400007404,None,264.972474200069,None,right,0.4760834000771865,264.972474200069,None,,,,,,,,,,,,,,,,,,,,,,,PPT06,001,2022-06-28_15h27.56.947,ABstudy,2022.1.4,59.85217712398257,
AB,Lag5_T1P_T2P,5,P,P,5,10,4,3,13,bathtub,Did you see the bathtub?,0.12,0.016,JPG\,belt02a,sunglasses04,computerkeyboard02,cherry01,bathtub,eraser,watch02a,dice05a,blueberry01,stapler04b,match,leaf02a,iron01b,blankImage,blankImage,blankImage,blankImage,bathtub,,,,,,,,,,,,0,12,12,103,,,,,,,,,,,,,,,,,,,,,,,,,,,,,,,,,,,265.48554480005987,266.4926796000218,266.47600640007295,267.06662170006894,267.06662170006894,None,268.72439350001514,None,left,0.7809793000342324,268.72439350001514,None,269.5292027000105,None,left,0.4392621999140829,269.5292027000105,None,,,,,,,,,,,,,,,,,,,,,,,PPT06,001,2022-06-28_15h27.56.947,ABstudy,2022.1.4,59.85217712398257,
AB,Lag5_T1A_T2P,5,A,P,7,12,6,4,16,flower,Did you see the flower?,0.12,0.016,JPG\,printer02,envelope03a,potato02b,calculator01,tableknife02,cigarette,ashtray01,pig,broom01,greenolive,candle08b,stapler03a,strawberry,candle01,foosballtable,tennisball01b,blankImage,calendar,,,,,,,,,,,,0,13,13,282,,,,,,,,,,,,,,,,,,,,,,,,,,,,,,,,,,,269.999235700001,271.01406549999956,270.980684600072,271.5618276000023,271.5618276000023,None,273.54044320003595,None,right,0.9079739999724552,273.54044320003595,None,274.46752710000146,None,right,0.5809733999194577,274.46752710000146,None,,,,,,,,,,,,,,,,,,,,,,,PPT06,001,2022-06-28_15h27.56.947,ABstudy,2022.1.4,59.85217712398257,
AB,Lag1_T1A_T2A,1,A,A,5,6,4,4,10,rose,Did you see the rose?,0.12,0.016,JPG\,sock01a,spoon01,alligator,comb02a,printer02,medal02b,lamp04a,cymbal,greenolive,computerkeyboard02,blankImage,blankImage,blankImage,blankImage,blankImage,blankImage,blankImage,cruiseship,,,,,,,,,,,,0,14,14,293,,,,,,,,,,,,,,,,,,,,,,,,,,,,,,,,,,,275.06905580009334,276.06931190006435,276.0525124000851,276.6551429000683,276.6551429000683,None,277.8719085000921,None,right,2.0086953999707475,277.8719085000921,None,279.9069462000625,None,right,1.2377421000273898,279.9069462000625,None,,,,,,,,,,,,,,,,,,,,,,,PPT06,001,2022-06-28_15h27.56.947,ABstudy,2022.1.4,59.85217712398257,
AB,Lag1_T1P_T2P,1,P,P,6,7,5,3,10,jelly beans,Did you see the jelly beans?,0.12,0.016,JPG\,lipstick02a,cucumber,candle08b,printer02,grape01,jellybean,stapler01,lighter01,belt02a,balloon01b,blankImage,blankImage,blankImage,blankImage,blankImage,blankImage,blankImage,jellybean,,,,,,,,,,,,0,15,15,15,,,,,,,,,,,,,,,,,,,,,,,,,,,,,,,,,,,281.18445620010607,282.1919987000292,282.1754354001023,282.7562772000674,282.7562772000674,None,283.97530910000205,None,left,1.241444000042975,283.97530910000205,None,285.2452814000426,None,left,0.3164504000451416,285.2452814000426,None,,,,,,,,,,,,,,,,,,,,,,,PPT06,001,2022-06-28_15h27.56.947,ABstudy,2022.1.4,59.85217712398257,
AB,Lag1_T1P_T2P,1,P,P,7,8,6,3,11,trampoline,Did you see the trampoline?,0.12,0.016,JPG\,dice05a,watch02a,pig,lighter01,button01,strawberry,trampoline,stapler03a,plate01b,pen04b,feather03a,blankImage,blankImage,blankImage,blankImage,blankImage,blankImage,trampoline,,,,,,,,,,,,0,16,16,73,,,,,,,,,,,,,,,,,,,,,,,,,,,,,,,,,,,285.62627570005134,286.62976330006495,286.6130142000038,287.20727230003104,287.20727230003104,None,288.4967947000405,None,right,1.359331600018777,288.4967947000405,None,289.88314950000495,None,left,0.4458646000130102,289.88314950000495,None,,,,,,,,,,,,,,,,,,,,,,,PPT06,001,2022-06-28_15h27.56.947,ABstudy,2022.1.4,59.85217712398257,
AB,Lag5_T1P_T2P,5,P,P,5,10,4,3,13,rose,Did you see the rose?,0.12,0.016,JPG\,lipstick02a,cucumber,candle08b,printer02,rose,violin,paintbrush01,lighter01,belt02a,stapler03b,thermometer02b,microscope,cigarette,blankImage,blankImage,blankImage,blankImage,rose,,,,,,,,,,,,0,17,17,158,,,,,,,,,,,,,,,,,,,,,,,,,,,,,,,,,,,290.3532450000057,291.36809810006525,291.33436280000024,291.9099156000884,291.9099156000884,None,293.5390469999984,None,left,0.7012969000497833,293.5390469999984,None,294.2707791000139,None,left,0.25765180005691946,294.2707791000139,None,,,,,,,,,,,,,,,,,,,,,,,PPT06,001,2022-06-28_15h27.56.947,ABstudy,2022.1.4,59.85217712398257,
AB,Lag5_T1P_T2P,5,P,P,6,11,5,4,15,Bumper car,Did you see the Bumper car?,0.12,0.016,JPG\,eraser,measuringcup01,chain01,birthdaycandle,ring01,bumpercar,weight04a,pig,cauliflower01,celery,stapler01,sunglasses04,greenolive,candy,strawberry,blankImage,blankImage,bumpercar,,,,,,,,,,,,0,18,18,104,,,,,,,,,,,,,,,,,,,,,,,,,,,,,,,,,,,294.61720320000313,295.6220353000099,295.60533930000383,296.1901885000989,296.1901885000989,None,297.967548500048,None,right,0.9685007999651134,297.967548500048,None,298.95849630003795,None,left,0.44967870006803423,298.95849630003795,None,,,,,,,,,,,,,,,,,,,,,,,PPT06,001,2022-06-28_15h27.56.947,ABstudy,2022.1.4,59.85217712398257,
AB,Lag5_T1P_T2P,5,P,P,8,13,7,4,17,trumpet,Did you see the trumpet?,0.12,0.016,JPG\,toaster01,scarf,toiletpaper01a,calculator01,violin,sewingmachine01a,fan,trumpet,strawberry,balloon01b,brownsugar,eraser,stapler01,rice,ring01,shirt02,blankImage,trumpet,,,,,,,,,,,,0,19,19,145,,,,,,,,,,,,,,,,,,,,,,,,,,,,,,,,,,,299.42835450009443,300.4275390000548,300.41195630002767,301.0789926000871,300.9969720999943,None,302.9825774000492,None,left,0.8743054999504238,302.9825774000492,None,303.880726100062,None,left,0.2011310999514535,303.880726100062,None,,,,,,,,,,,,,,,,,,,,,,,PPT06,001,2022-06-28_15h27.56.947,ABstudy,2022.1.4,59.85217712398257,
AB,Lag5_T1P_T2P,5,P,P,6,11,5,4,15,fish,Did you see the fish?,0.12,0.016,JPG\,sock01a,spoon01,alligator,comb02a,printer02,rockbass,lamp04a,cymbal,greenolive,computerkeyboard02,stapler03a,scarf,teabag,watermelon01,battery02b,blankImage,blankImage,rockbass,,,,,,,,,,,,0,20,20,115,,,,,,,,,,,,,,,,,,,,,,,,,,,,,,,,,,,304.1188481000718,305.131469200016,305.11476110003423,305.7110182000324,305.7110182000324,None,307.5421639000997,None,left,0.9707959000952542,307.5421639000997,None,308.5349226000253,None,left,0.21729010005947202,308.5349226000253,None,,,,,,,,,,,,,,,,,,,,,,,PPT06,001,2022-06-28_15h27.56.947,ABstudy,2022.1.4,59.85217712398257,
AB,Lag1_T1P_T2P,1,P,P,8,9,7,4,13,Bird House,Did you see the Bird House?,0.12,0.016,JPG\,toiletpaper01a,mushroom01,medal02b,sandal,rice,cd,feather03a,birdhouse,stapler01,garlic01a,toaster01,belt02a,cigarette,blankImage,blankImage,blankImage,blankImage,birdhouse,,,,,,,,,,,,0,21,21,77,,,,,,,,,,,,,,,,,,,,,,,,,,,,,,,,,,,308.84357240004465,309.8523478000425,309.8200786000816,310.419407300069,310.419407300069,None,311.968445800012,None,left,0.3683310999767855,311.968445800012,None,312.358194700093,None,left,0.1939442999428138,312.358194700093,None,,,,,,,,,,,,,,,,,,,,,,,PPT06,001,2022-06-28_15h27.56.947,ABstudy,2022.1.4,59.85217712398257,
AB,Lag1_T1P_T2P,1,P,P,5,6,4,5,11,squirrel,Did you see the squirrel?,0.12,0.016,JPG\,pencil01,orange,clock01a,sponge01,squirrel,stapler05,lipstick02a,strawberry,book01b,mushroom01,envelope03a,blankImage,blankImage,blankImage,blankImage,blankImage,blankImage,squirrel,,,,,,,,,,,,0,22,22,5,,,,,,,,,,,,,,,,,,,,,,,,,,,,,,,,,,,312.59036600007676,313.59003770002164,313.5734397000633,314.1552886000136,314.1552886000136,None,315.5150752000045,None,left,0.381649500108324,315.5150752000045,None,315.92723960010335,None,left,0.17769040004350245,315.92723960010335,None,,,,,,,,,,,,,,,,,,,,,,,PPT06,001,2022-06-28_15h27.56.947,ABstudy,2022.1.4,59.85217712398257,
AB,Lag5_T1A_T2P,5,A,P,5,10,4,4,14,mail box,Did you see the mail box?,0.12,0.016,JPG\,button01,celery,birthdaycandle,apple07,avocado01,tennisball01b,dice05a,teabag,clock01a,stapler05,tomato01,scarf,orange,battery02b,blankImage,blankImage,blankImage,jeep,,,,,,,,,,,,0,23,23,263,,,,,,,,,,,,,,,,,,,,,,,,,,,,,,,,,,,316.13571170007344,317.1434126000386,317.12672380008735,317.70111230004113,317.70111230004113,None,319.453789500054,None,right,1.3782156999222934,319.453789500054,None,320.8640789000783,None,left,0.41594430000986904,320.8640789000783,None,,,,,,,,,,,,,,,,,,,,,,,PPT06,001,2022-06-28_15h27.56.947,ABstudy,2022.1.4,59.85217712398257,
AB,Lag5_T1P_T2A,5,P,A,8,13,7,3,16,leaf blower,Did you see the leaf blower?,0.12,0.016,JPG\,printer02,leaf02a,cauliflower01,sock01a,brownsugar,paintbrush01,pig,leafblower01,belt02a,shirt02,key01,match,cigarette,scissors01,envelope03a,blueberry01,blankImage,leafblower01,,,,,,,,,,,,0,24,24,216,,,,,,,,,,,,,,,,,,,,,,,,,,,,,,,,,,,321.30684670002665,322.3154039999936,322.29881460010074,322.88591499999166,322.88591499999166,None,324.84487560007256,None,left,0.7395555999828503,324.84487560007256,None,325.60175070003606,None,left,0.3664475000696257,325.60175070003606,None,,,,,,,,,,,,,,,,,,,,,,,PPT06,001,2022-06-28_15h27.56.947,ABstudy,2022.1.4,59.85217712398257,
AB,Lag1_T1A_T2P,1,A,P,7,8,6,5,13,Horseshoe,Did you see the Horseshoe?,0.12,0.016,JPG\,leaf02a,apple07,cd,pineapple01a,envelope03a,paintbrush01,pig,stapler06,rice,feather03a,lemon02,balloon01b,avocado01,blankImage,blankImage,blankImage,blankImage,rooster,,,,,,,,,,,,0,25,25,241,,,,,,,,,,,,,,,,,,,,,,,,,,,,,,,,,,,325.98904460004997,327.00305620010477,326.98637200007215,327.6318651000038,327.558163800044,None,329.14013380010147,None,right,0.7091185000026599,329.14013380010147,None,329.8727750000544,None,left,0.3272883000317961,329.8727750000544,None,,,,,,,,,,,,,,,,,,,,,,,PPT06,001,2022-06-28_15h27.56.947,ABstudy,2022.1.4,59.85217712398257,
AB,Lag1_T1A_T2A,1,A,A,8,9,7,5,14,Ping pong Table,Did you see the Ping pong Table?,0.12,0.016,JPG\,pineapple01a,tennisball01b,computerkeyboard02,feather03a,belt02a,acorn,violin,blueberry01,medal02b,alligator,greenolive,screwdriver04b,potato02b,fork03c,blankImage,blankImage,blankImage,statue,,,,,,,,,,,,0,26,26,287,,,,,,,,,,,,,,,,,,,,,,,,,,,,,,,,,,,330.278635900002,331.2916197000304,331.27596540004015,331.87509900005534,331.87509900005534,None,333.46263750002254,None,right,1.098131800070405,333.46263750002254,None,334.5775891999947,None,right,0.8710630999412388,334.5775891999947,None,,,,,,,,,,,,,,,,,,,,,,,PPT06,001,2022-06-28_15h27.56.947,ABstudy,2022.1.4,59.85217712398257,
AB,Lag5_T1P_T2P,5,P,P,5,10,4,4,14,duck,Did you see the duck?,0.12,0.016,JPG\,celery,pencil01,fan,foosballtable,duck01,shirt02,potato02b,fork03c,button01,stapler03a,baseball01a,printer02,cauliflower01,dandelion,blankImage,blankImage,blankImage,duck01,,,,,,,,,,,,0,27,27,130,,,,,,,,,,,,,,,,,,,,,,,,,,,,,,,,,,,335.4794986000052,336.47946220007725,336.462839200045,337.05459090007935,337.05459090007935,None,338.68104360008147,None,left,0.43112739990465343,338.68104360008147,None,339.13178550009616,None,left,0.28432630002498627,339.13178550009616,None,,,,,,,,,,,,,,,,,,,,,,,PPT06,001,2022-06-28_15h27.56.947,ABstudy,2022.1.4,59.85217712398257,
AB,Lag5_T1P_T2A,5,P,A,5,10,4,5,15,Shield,Did you see the Shield?,0.12,0.016,JPG\,cigarette,fork03c,greenolive,broccoli01a,shield02,tennisball01b,balloon01b,leaf02a,pig,fan,clock01a,strawberry,envelope03a,birthdaycandle,teabag,blankImage,blankImage,shield02,,,,,,,,,,,,0,28,28,223,,,,,,,,,,,,,,,,,,,,,,,,,,,,,,,,,,,339.45456830004696,340.4664657000685,340.4498353000963,341.03036970004905,341.03036970004905,None,342.87951860006433,None,right,1.3843460000352934,342.87951860006433,None,344.2868338000262,None,left,0.4819038000423461,344.2868338000262,None,,,,,,,,,,,,,,,,,,,,,,,PPT06,001,2022-06-28_15h27.56.947,ABstudy,2022.1.4,59.85217712398257,
AB,Lag5_T1P_T2P,5,P,P,6,11,5,5,16,Car,Did you see the Car?,0.12,0.016,JPG\,leaf02a,apple07,cd,pineapple01a,envelope03a,car,pig,canoftennisballs,rice,feather03a,stapler03a,balloon01b,avocado01,calculator01,watermelon01,teabag,blankImage,car,,,,,,,,,,,,0,29,29,127,,,,,,,,,,,,,,,,,,,,,,,,,,,,,,,,,,,344.8303462000331,345.83811400004197,345.8065589000471,346.4484980000416,346.4484980000416,None,348.32096210005693,None,left,0.42372690001502633,348.32096210005693,None,348.7764431000687,None,left,0.3356419999618083,348.7764431000687,None,,,,,,,,,,,,,,,,,,,,,,,PPT06,001,2022-06-28_15h27.56.947,ABstudy,2022.1.4,59.85217712398257,
AB,Lag5_T1P_T2P,5,P,P,8,13,7,4,17,Accordion,Did you see the Accordion?,0.12,0.016,JPG\,toiletpaper01a,lipstick02a,potato02b,speaker04,globe,strawberry,carrot01,accordion01,sock01a,candle08b,pen04b,calculator01,stapler01,brick,pear01,fork03c,blankImage,accordion01,,,,,,,,,,,,0,30,30,162,,,,,,,,,,,,,,,,,,,,,,,,,,,,,,,,,,,349.1472697000718,350.1596862000879,350.1428553001024,350.7623638000805,350.7623638000805,None,352.684209600091,None,right,0.44406249991152436,352.684209600091,None,353.14611170010176,None,left,0.3739014999009669,353.14611170010176,None,,,,,,,,,,,,,,,,,,,,,,,PPT06,001,2022-06-28_15h27.56.947,ABstudy,2022.1.4,59.85217712398257,
AB,Lag1_T1P_T2P,1,P,P,8,9,7,4,13,Doughnut,Did you see the Doughnut?,0.12,0.016,JPG\,brick,eraser,cucumber,ashtray01,thermometer02b,binoculars01b,lipstick02a,donut,stapler01,brownsugar,battery02b,iron01b,dice05a,blankImage,blankImage,blankImage,blankImage,donut,,,,,,,,,,,,0,31,31,39,,,,,,,,,,,,,,,,,,,,,,,,,,,,,,,,,,,353.55016280000564,354.56412180000916,354.5475681000389,355.12925570004154,355.12925570004154,None,356.71584780002013,None,left,0.6285875000758097,356.71584780002013,None,357.3678041000385,None,left,0.20896860002540052,357.3678041000385,None,,,,,,,,,,,,,,,,,,,,,,,PPT06,001,2022-06-28_15h27.56.947,ABstudy,2022.1.4,59.85217712398257,
AB,Lag1_T1A_T2A,1,A,A,8,9,7,3,12,punching bag,Did you see the punching bag?,0.12,0.016,JPG\,key01,apple07,ring01,leaf02a,hammer01,tableknife02,violin,sponge01,baseball01a,thermometer02b,celery,calculator01,blankImage,blankImage,blankImage,blankImage,blankImage,bathtub,,,,,,,,,,,,0,32,32,291,,,,,,,,,,,,,,,,,,,,,,,,,,,,,,,,,,,357.6088619000511,358.6178437001072,358.60093570000026,359.17730970005505,359.17730970005505,None,360.62304080009926,None,right,1.193522399989888,360.62304080009926,None,361.8376989000244,None,right,0.26678029994945973,361.8376989000244,None,,,,,,,,,,,,,,,,,,,,,,,PPT06,001,2022-06-28_15h27.56.947,ABstudy,2022.1.4,59.85217712398257,
AB,Lag5_T1P_T2A,5,P,A,7,12,6,4,16,Bear,Did you see the Bear?,0.12,0.016,JPG\,comb02a,key01,medal02b,battery02b,lighter01,microscope,grizzly,sandal,pig,cellphone,computerkeyboard02,calculator01,cymbal,clock04,cucumber,avocado01,blankImage,grizzly,,,,,,,,,,,,0,33,33,213,,,,,,,,,,,,,,,,,,,,,,,,,,,,,,,,,,,362.12349820008967,363.13896980008576,363.10557010001503,363.68494860001374,363.68494860001374,None,365.6638876000652,None,right,1.6487013000296429,365.6638876000652,None,367.3434514000546,None,right,0.48123819997999817,367.3434514000546,None,,,,,,,,,,,,,,,,,,,,,,,PPT06,001,2022-06-28_15h27.56.947,ABstudy,2022.1.4,59.85217712398257,
AB,Lag1_T1P_T2P,1,P,P,8,9,7,3,12,Eiffel tower,Did you see the Eiffel tower?,0.12,0.016,JPG\,celery,tennisball01b,calculator01,pear01,screw02,orange,button01,eiffeltower,stapler03b,apple07,iron01b,brownsugar,blankImage,blankImage,blankImage,blankImage,blankImage,eiffeltower,,,,,,,,,,,,0,34,34,40,,,,,,,,,,,,,,,,,,,,,,,,,,,,,,,,,,,367.8916850000387,368.8947465000674,368.87781330000143,369.455233200104,369.455233200104,None,370.80234410008416,None,left,0.4860728000057861,370.80234410008416,None,371.3136733000865,None,left,0.18253769993316382,371.3136733000865,None,,,,,,,,,,,,,,,,,,,,,,,PPT06,001,2022-06-28_15h27.56.947,ABstudy,2022.1.4,59.85217712398257,
AB,Lag1_T1P_T2P,1,P,P,6,7,5,3,10,spider web,Did you see the spider web?,0.12,0.016,JPG\,toaster01,chain01,sponge01,baseball01a,carrot01,spiderweb,stapler03b,iron01b,grape01,brick,blankImage,blankImage,blankImage,blankImage,blankImage,blankImage,blankImage,spiderweb,,,,,,,,,,,,0,35,35,72,,,,,,,,,,,,,,,,,,,,,,,,,,,,,,,,,,,371.5191315000411,372.5319253000198,372.51530180010013,373.12626720010303,373.12626720010303,None,374.34654769999906,None,left,0.47791050001978874,374.34654769999906,None,374.85346770007163,None,left,0.2587762998882681,374.85346770007163,None,,,,,,,,,,,,,,,,,,,,,,,PPT06,001,2022-06-28_15h27.56.947,ABstudy,2022.1.4,59.85217712398257,
AB,Lag1_T1P_T2P,1,P,P,6,7,5,3,10,windmill,Did you see the windmill?,0.12,0.016,JPG\,pizza,printer02,medal02b,spoon01,grape01,windmill,stapler04b,watermelon01,celery,battery02b,blankImage,blankImage,blankImage,blankImage,blankImage,blankImage,blankImage,windmill,,,,,,,,,,,,0,36,36,75,,,,,,,,,,,,,,,,,,,,,,,,,,,,,,,,,,,375.1397378999973,376.1522051000502,376.13564860005863,376.7407752000727,376.7407752000727,None,377.93614730006084,None,left,0.5117987999692559,377.93614730006084,None,378.470874199993,None,left,0.217074399930425,378.470874199993,None,,,,,,,,,,,,,,,,,,,,,,,PPT06,001,2022-06-28_15h27.56.947,ABstudy,2022.1.4,59.85217712398257,
AB,Lag5_T1A_T2P,5,A,P,8,13,7,5,18,lollipop,Did you see the lollipop?,0.12,0.016,JPG\,watermelon01,banana01,ring01,pencil01,tomato01,speaker04,cucumber,thermometer02b,key01,foosballtable,violin,spoon01,stapler04b,dice05a,pen04b,mushroom01,blankImage,jeans01,,,,,,,,,,,,0,37,37,262,,,,,,,,,,,,,,,,,,,,,,,,,,,,,,,,,,,378.7075909000123,379.72243750002235,379.6892390000867,380.2703051000135,380.2703051000135,None,382.224275900051,None,right,0.8398286999436095,382.224275900051,None,383.0926435000729,None,left,0.5161633000243455,383.0926435000729,None,,,,,,,,,,,,,,,,,,,,,,,PPT06,001,2022-06-28_15h27.56.947,ABstudy,2022.1.4,59.85217712398257,
AB,Lag1_T1P_T2P,1,P,P,7,8,6,3,11,compass,Did you see the compass?,0.12,0.016,JPG\,brick,plate01b,pen04b,toaster01,screwdriver04b,candle01,magneticcompass,stapler03a,pig,ring01,orange,blankImage,blankImage,blankImage,blankImage,blankImage,blankImage,magneticcompass,,,,,,,,,,,,0,38,38,66,,,,,,,,,,,,,,,,,,,,,,,,,,,,,,,,,,,383.62920750002377,384.6436842000112,384.6103594000451,385.19399130006786,385.19399130006786,None,386.59402930003125,None,right,1.1021623000269756,386.59402930003125,None,387.7134319000179,None,right,0.22259389993268996,387.7134319000179,None,,,,,,,,,,,,,,,,,,,,,,,PPT06,001,2022-06-28_15h27.56.947,ABstudy,2022.1.4,59.85217712398257,
AB,Lag1_T1A_T2P,1,A,P,8,9,7,3,12,porcupine,Did you see the porcupine?,0.12,0.016,JPG\,celery,orange,scissors01,balloon01b,avocado01,printer02,mushroom01,sewingmachine01a,stapler01,dice05a,ashtray01,fan,blankImage,blankImage,blankImage,blankImage,blankImage,drumstick,,,,,,,,,,,,0,39,39,233,,,,,,,,,,,,,,,,,,,,,,,,,,,,,,,,,,,387.966632100055,388.98138560005464,388.9479613000294,389.54147550009657,389.54147550009657,None,391.05044060002547,None,right,0.5750773000763729,391.05044060002547,None,391.6510584000498,None,right,0.19725570001173764,391.6510584000498,None,,,,,,,,,,,,,,,,,,,,,,,PPT06,001,2022-06-28_15h27.56.947,ABstudy,2022.1.4,59.85217712398257,
AB,Lag5_T1P_T2P,5,P,P,5,10,4,4,14,Christmas lights,Did you see the Christmas lights?,0.12,0.016,JPG\,binoculars01b,cymbal,pizza,candy,christmaslights,sponge01,grape01,thermometer02b,speaker04,stapler03a,lipstick02a,strawberry,candle01,tambourine02,blankImage,blankImage,blankImage,christmaslights,,,,,,,,,,,,0,40,40,168,,,,,,,,,,,,,,,,,,,,,,,,,,,,,,,,,,,391.87406300008297,392.88532200001646,392.8686110000126,393.5190272000618,393.5190272000618,None,395.1422421000898,None,left,0.5472227999707684,395.1422421000898,None,395.7214045000728,None,left,0.1905280000064522,395.7214045000728,None,,,,,,,,,,,,,,,,,,,,,,,PPT06,001,2022-06-28_15h27.56.947,ABstudy,2022.1.4,59.85217712398257,
AB,Lag5_T1P_T2P,5,P,P,7,12,6,4,16,Bird feeder,Did you see the Bird feeder?,0.12,0.016,JPG\,watermelon01,banana01,ring01,pencil01,tomato01,speaker04,birdfeeder,thermometer02b,key01,foosballtable,violin,stapler06,clock04,dice05a,pen04b,mushroom01,blankImage,birdfeeder,,,,,,,,,,,,0,41,41,164,,,,,,,,,,,,,,,,,,,,,,,,,,,,,,,,,,,395.942594800028,396.9560391000705,396.93934919999447,397.53394920006394,397.53394920006394,None,399.43883780005854,None,left,0.6414340999908745,399.43883780005854,None,400.10906310006976,None,left,0.20303810003679246,400.10906310006976,None,,,,,,,,,,,,,,,,,,,,,,,PPT06,001,2022-06-28_15h27.56.947,ABstudy,2022.1.4,59.85217712398257,
AB,Lag5_T1P_T2P,5,P,P,8,13,7,5,18,pipe,Did you see the pipe?,0.12,0.016,JPG\,scissors01,ashtray01,garlic01a,medal02b,cigarette,candle08b,leaf02a,smokingpipe,cucumber,rice,toiletpaper01a,greenolive,stapler01,cellphone,tableknife02,spoon01,blankImage,smokingpipe,,,,,,,,,,,,0,42,42,138,,,,,,,,,,,,,,,,,,,,,,,,,,,,,,,,,,,400.34491470002104,401.36029490001965,401.3269696000498,401.8966300000902,401.8966300000902,None,403.95281960000284,None,right,0.9110389000270516,403.95281960000284,None,404.8829427000601,None,left,0.40504450001753867,404.8829427000601,None,,,,,,,,,,,,,,,,,,,,,,,PPT06,001,2022-06-28_15h27.56.947,ABstudy,2022.1.4,59.85217712398257,
AB,Lag1_T1A_T2A,1,A,A,8,9,7,4,13,Recycling bin,Did you see the Recycling bin?,0.12,0.016,JPG\,brick,plate01b,pen04b,toaster01,screwdriver04b,candle01,envelope03a,feather03a,pig,ring01,orange,clock01a,lighter01,blankImage,blankImage,blankImage,blankImage,bumpercar,,,,,,,,,,,,0,43,43,292,,,,,,,,,,,,,,,,,,,,,,,,,,,,,,,,,,,405.3255003000377,406.33226010005455,406.31582090002485,406.9062200000044,406.9062200000044,None,408.44691080006305,None,right,0.7691879000049084,408.44691080006305,None,409.2352554000681,None,right,0.20487130002584308,409.2352554000681,None,,,,,,,,,,,,,,,,,,,,,,,PPT06,001,2022-06-28_15h27.56.947,ABstudy,2022.1.4,59.85217712398257,
AB,Lag5_T1P_T2A,5,P,A,7,12,6,3,15,Toy soldier,Did you see the Toy soldier?,0.12,0.016,JPG\,binoculars01b,cymbal,pizza,candy,paintbrush01,sponge01,toysoldier01b,thermometer02b,speaker04,lemon02,lipstick02a,strawberry,candle01,acorn,plate01b,blankImage,blankImage,toysoldier01b,,,,,,,,,,,,0,44,44,203,,,,,,,,,,,,,,,,,,,,,,,,,,,,,,,,,,,409.4760852000909,410.4862190000713,410.46993180003483,411.0651703000767,411.0651703000767,None,412.91139100003056,None,right,0.6168093000305817,412.91139100003056,None,413.55618260009214,None,left,0.8527951999567449,413.55618260009214,None,,,,,,,,,,,,,,,,,,,,,,,PPT06,001,2022-06-28_15h27.56.947,ABstudy,2022.1.4,59.85217712398257,
AB,Lag5_T1P_T2A,5,P,A,8,13,7,5,18,telescope,Did you see the telescope?,0.12,0.016,JPG\,globe,broccoli01a,binoculars01b,iron01b,avocado01,dandelion,pineapple01a,handheldtelescope,fan,pizza,celery,blueberry01,sewingmachine01a,dice05a,watermelon01,candy,blankImage,handheldtelescope,,,,,,,,,,,,0,45,45,228,,,,,,,,,,,,,,,,,,,,,,,,,,,,,,,,,,,414.44290130003355,415.45809420000296,415.42469790007453,416.0189913000213,416.0189913000213,None,417.983721000026,None,left,1.3120529999723658,417.983721000026,None,419.3281131000258,None,right,0.9355728999944404,419.3281131000258,None,,,,,,,,,,,,,,,,,,,,,,,PPT06,001,2022-06-28_15h27.56.947,ABstudy,2022.1.4,59.85217712398257,
AB,Lag1_T1P_T2P,1,P,P,7,8,6,5,13,tiger,Did you see the tiger?,0.12,0.016,JPG\,globe,broccoli01a,binoculars01b,iron01b,avocado01,dandelion,tiger02,stapler03b,fan,pizza,celery,blueberry01,sewingmachine01a,blankImage,blankImage,blankImage,blankImage,tiger02,,,,,,,,,,,,0,46,46,50,,,,,,,,,,,,,,,,,,,,,,,,,,,,,,,,,,,420.300241000019,421.3133696001023,421.29668320005294,421.88705600006506,421.88705600006506,None,423.46164530003443,None,left,0.6907600000267848,423.46164530003443,None,424.18299700005446,None,left,0.25751580006908625,424.18299700005446,None,,,,,,,,,,,,,,,,,,,,,,,PPT06,001,2022-06-28_15h27.56.947,ABstudy,2022.1.4,59.85217712398257,
AB,Lag5_T1P_T2P,5,P,P,8,13,7,4,17,surf board,Did you see the surf board?,0.12,0.016,JPG\,candy,brownsugar,dice05a,cd,sock01a,blueberry01,button01,surfboard,feather03a,grape01,dandelion,scissors01,stapler03b,candle08b,book01b,globe,blankImage,surfboard,,,,,,,,,,,,0,47,47,142,,,,,,,,,,,,,,,,,,,,,,,,,,,,,,,,,,,424.4699763000244,425.4844038001029,425.4509628000669,426.0270268000895,426.0270268000895,None,428.0490268000867,None,left,0.44825099990703166,428.0490268000867,None,428.5211882001022,None,left,0.21591850009281188,428.5211882001022,None,,,,,,,,,,,,,,,,,,,,,,,PPT06,001,2022-06-28_15h27.56.947,ABstudy,2022.1.4,59.85217712398257,
AB,Lag1_T1P_T2P,1,P,P,6,7,5,4,11,American football,Did you see the American football?,0.12,0.016,JPG\,toaster01,garlic01a,faucet,fan,comb02a,football,stapler06,watch02a,onion,blueberry01,toiletpaper01a,blankImage,blankImage,blankImage,blankImage,blankImage,blankImage,football,,,,,,,,,,,,0,48,48,12,,,,,,,,,,,,,,,,,,,,,,,,,,,,,,,,,,,428.76066250004806,429.7719931000611,429.755321500008,430.34159830003045,430.34159830003045,None,431.73476580006536,None,left,0.7770828999346122,431.73476580006536,None,432.541478500003,None,left,0.20238670008257031,432.541478500003,None,,,,,,,,,,,,,,,,,,,,,,,PPT06,001,2022-06-28_15h27.56.947,ABstudy,2022.1.4,59.85217712398257,
AB,Lag5_T1A_T2P,5,A,P,8,13,7,4,17,wrench,Did you see the wrench?,0.12,0.016,JPG\,clock01a,grape01,plate01b,key01,screwdriver04b,feather03a,pineapple01a,iron01b,toothbrush03b,comb02a,broom01,toaster01,stapler05,garlic01a,match,ashtray01,blankImage,seal,,,,,,,,,,,,0,49,49,272,,,,,,,,,,,,,,,,,,,,,,,,,,,,,,,,,,,432.774702200084,433.77589480008464,433.75926130008884,434.3404944000067,434.3404944000067,None,436.3843613000354,None,left,0.4234967000083998,436.3843613000354,None,436.8320033000782,None,left,1.1760830999119207,436.8320033000782,None,,,,,,,,,,,,,,,,,,,,,,,PPT06,001,2022-06-28_15h27.56.947,ABstudy,2022.1.4,59.85217712398257,
AB,Lag1_T1P_T2P,1,P,P,5,6,4,3,9,hockey stick,Did you see the hockey stick?,0.12,0.016,JPG\,violin,pizza,toothbrush03b,pineapple01a,hockeystick,stapler03b,candy,dandelion,clock04,blankImage,blankImage,blankImage,blankImage,blankImage,blankImage,blankImage,blankImage,hockeystick,,,,,,,,,,,,0,50,50,63,,,,,,,,,,,,,,,,,,,,,,,,,,,,,,,,,,,438.0353358000284,439.04833770007826,439.03126960003283,439.6517687001033,439.6517687001033,None,440.7711144000059,None,left,0.9814073001034558,440.7711144000059,None,441.7838425000664,None,right,0.34377819998189807,441.7838425000664,None,,,,,,,,,,,,,,,,,,,,,,,PPT06,001,2022-06-28_15h27.56.947,ABstudy,2022.1.4,59.85217712398257,
AB,Lag5_T1A_T2P,5,A,P,6,11,5,4,15,butterfly,Did you see the butterfly?,0.12,0.016,JPG\,comb02a,key01,medal02b,battery02b,lighter01,microscope,watermelon01,sandal,pig,cellphone,stapler06,calculator01,cymbal,clock04,cucumber,blankImage,blankImage,uprightpiano01,,,,,,,,,,,,0,51,51,276,,,,,,,,,,,,,,,,,,,,,,,,,,,,,,,,,,,442.1532220999943,443.168602699996,443.13519630010705,443.71061110007577,443.71061110007577,None,445.56524730008096,None,right,0.65018290001899,445.56524730008096,None,446.2381904000649,None,left,0.482180800056085,446.2381904000649,None,,,,,,,,,,,,,,,,,,,,,,,PPT06,001,2022-06-28_15h27.56.947,ABstudy,2022.1.4,59.85217712398257,
AB,Lag1_T1A_T2P,1,A,P,8,9,7,4,13,Christmas tree,Did you see the Christmas tree?,0.12,0.016,JPG\,broom01,globe,cellphone,tableknife02,cauliflower01,scissors01,ring01,alligator,stapler03a,toaster01,cigarette,grape01,microscope,blankImage,blankImage,blankImage,blankImage,windmill,,,,,,,,,,,,0,52,52,247,,,,,,,,,,,,,,,,,,,,,,,,,,,,,,,,,,,446.74249530001543,447.75678830000106,447.72352940007113,448.3016046000412,448.3016046000412,None,449.9020895001013,None,right,0.7297178000444546,449.9020895001013,None,450.6597258000402,None,left,0.46812640002463013,450.6597258000402,None,,,,,,,,,,,,,,,,,,,,,,,PPT06,001,2022-06-28_15h27.56.947,ABstudy,2022.1.4,59.85217712398257,
AB,Lag5_T1P_T2P,5,P,P,5,10,4,5,15,rake,Did you see the rake?,0.12,0.016,JPG\,scissors01,grape01,mushroom01,toiletpaper01a,leafrake,pizza,cigarette,ashtray01,carrot01,stapler03b,foosballtable,lipstick02a,teabag,acorn,potato02b,blankImage,blankImage,leafrake,,,,,,,,,,,,0,53,53,92,,,,,,,,,,,,,,,,,,,,,,,,,,,,,,,,,,,451.16277080005966,452.17778680007905,452.14442400005646,452.72576630010735,452.72576630010735,None,454.5823453000048,None,left,1.0331362000433728,454.5823453000048,None,455.6478075000923,None,right,0.4726268999511376,455.6478075000923,None,,,,,,,,,,,,,,,,,,,,,,,PPT06,001,2022-06-28_15h27.56.947,ABstudy,2022.1.4,59.85217712398257,
AB,Lag5_T1A_T2P,5,A,P,5,10,4,5,15,Eye patch,Did you see the Eye patch?,0.12,0.016,JPG\,scissors01,balloon01b,eraser,feather03a,banana01,candle01,measuringcup01,calculator01,thermometer02b,stapler03b,pear01,carrot01,globe,baseball01a,leaf02a,blankImage,blankImage,cross01,,,,,,,,,,,,0,54,54,258,,,,,,,,,,,,,,,,,,,,,,,,,,,,,,,,,,,456.1514553000452,457.1662086000433,457.132712700055,457.75154780002777,457.75154780002777,None,459.574128700071,None,right,1.1382718000095338,459.574128700071,None,460.73601180000696,None,right,0.7674801999237388,460.73601180000696,None,,,,,,,,,,,,,,,,,,,,,,,PPT06,001,2022-06-28_15h27.56.947,ABstudy,2022.1.4,59.85217712398257,
AB,Lag1_T1A_T2P,1,A,P,6,7,5,5,12,Treadmill,Did you see the Treadmill?,0.12,0.016,JPG\,pencil01,broccoli01a,button01,sponge01,watermelon01,lipstick02a,stapler04b,fan,lighter01,sock01a,spoon01,blueberry01,blankImage,blankImage,blankImage,blankImage,blankImage,magneticcompass,,,,,,,,,,,,0,55,55,238,,,,,,,,,,,,,,,,,,,,,,,,,,,,,,,,,,,461.5251523000188,462.5380843000021,462.5212940000929,463.1090456000529,463.1090456000529,None,464.5853119000094,None,right,1.1745998000260442,464.5853119000094,None,465.791085200035,None,left,1.8886471000732854,465.791085200035,None,,,,,,,,,,,,,,,,,,,,,,,PPT06,001,2022-06-28_15h27.56.947,ABstudy,2022.1.4,59.85217712398257,
AB,Lag1_T1P_T2P,1,P,P,6,7,5,4,11,no parking sign,Did you see the no parking sign?,0.12,0.016,JPG\,fork03c,belt02a,grape01,computerkeyboard02,lemon02,parkingsign,stapler05,toiletpaper01a,toaster01,lipstick02a,book01b,blankImage,blankImage,blankImage,blankImage,blankImage,blankImage,parkingsign,,,,,,,,,,,,0,56,56,47,,,,,,,,,,,,,,,,,,,,,,,,,,,,,,,,,,,467.71421080001164,468.72767470008694,468.71086700004525,469.29479060007725,469.29479060007725,None,470.60401620005723,None,left,0.8919619999360293,470.60401620005723,None,471.51337110006716,None,left,0.4544894000282511,471.51337110006716,None,,,,,,,,,,,,,,,,,,,,,,,PPT06,001,2022-06-28_15h27.56.947,ABstudy,2022.1.4,59.85217712398257,
AB,Lag1_T1P_T2P,1,P,P,5,6,4,5,11,Light switch,Did you see the Light switch?,0.12,0.016,JPG\,iron01b,orange,birthdaycandle,potato02b,lightswitch01,stapler03b,key01,candle08b,celery,tableknife02,pen04b,blankImage,blankImage,blankImage,blankImage,blankImage,blankImage,lightswitch01,,,,,,,,,,,,0,57,57,18,,,,,,,,,,,,,,,,,,,,,,,,,,,,,,,,,,,472.04291870002635,473.04850380006246,473.03171220002696,473.6276256000856,473.6276256000856,None,474.9170153000159,None,left,1.2274859000463039,474.9170153000159,None,476.1679914999986,None,left,0.1833763999165967,476.1679914999986,None,,,,,,,,,,,,,,,,,,,,,,,PPT06,001,2022-06-28_15h27.56.947,ABstudy,2022.1.4,59.85217712398257,
AB,Lag5_T1P_T2P,5,P,P,5,10,4,5,15,funnel,Did you see the funnel?,0.12,0.016,JPG\,pineapple01a,tennisball01b,computerkeyboard02,feather03a,funnel,acorn,violin,blueberry01,medal02b,stapler01,greenolive,screwdriver04b,potato02b,fork03c,cymbal,blankImage,blankImage,funnel,,,,,,,,,,,,0,58,58,109,,,,,,,,,,,,,,,,,,,,,,,,,,,,,,,,,,,476.3705593000632,477.3859431000892,477.35254059999716,477.9278539000079,477.9278539000079,None,479.7636170000769,None,right,0.588162099942565,479.7636170000769,None,480.3727152000647,None,left,0.29997890000231564,480.3727152000647,None,,,,,,,,,,,,,,,,,,,,,,,PPT06,001,2022-06-28_15h27.56.947,ABstudy,2022.1.4,59.85217712398257,
AB,Lag1_T1P_T2P,1,P,P,5,6,4,5,11,football,Did you see the football?,0.12,0.016,JPG\,globe,belt02a,sponge01,violin,soccerball,stapler01,clock01a,microscope,balloon01b,scarf,teabag,blankImage,blankImage,blankImage,blankImage,blankImage,blankImage,soccerball,,,,,,,,,,,,0,59,59,26,,,,,,,,,,,,,,,,,,,,,,,,,,,,,,,,,,,480.6917481001001,481.7073472000193,481.6736750000855,482.25554260006174,482.25554260006174,None,483.58210330002476,None,left,0.8974146000109613,483.58210330002476,None,484.50971190002747,None,left,0.18583590001799166,484.50971190002747,None,,,,,,,,,,,,,,,,,,,,,,,PPT06,001,2022-06-28_15h27.56.947,ABstudy,2022.1.4,59.85217712398257,
AB,Lag5_T1A_T2P,5,A,P,6,11,5,3,14,saxophone,Did you see the saxophone?,0.12,0.016,JPG\,globe,belt02a,sponge01,violin,fork03c,tomato01,clock01a,microscope,balloon01b,scarf,stapler03b,pen04b,brick,brownsugar,blankImage,blankImage,blankImage,microphone01,,,,,,,,,,,,0,60,60,267,,,,,,,,,,,,,,,,,,,,,,,,,,,,,,,,,,,484.729095500079,485.7286421000026,485.71315980004147,486.40897530002985,486.3360821000533,None,487.9747910000151,None,left,0.36898150003980845,487.9747910000151,None,488.36355510004796,None,left,0.18009410006925464,488.36355510004796,None,,,,,,,,,,,,,,,,,,,,,,,PPT06,001,2022-06-28_15h27.56.947,ABstudy,2022.1.4,59.85217712398257,
AB,Lag1_T1P_T2P,1,P,P,8,9,7,3,12,Wheelchair,Did you see the Wheelchair?,0.12,0.016,JPG\,cigarette,pig,banana01,strawberry,clock01a,plate01b,spoon01,wheelchair,stapler03b,pineapple01a,chain01,paintbrush01,blankImage,blankImage,blankImage,blankImage,blankImage,wheelchair,,,,,,,,,,,,0,61,61,27,,,,,,,,,,,,,,,,,,,,,,,,,,,,,,,,,,,488.5675609000027,489.58173020009417,489.56496660003904,490.20863500004634,490.13901770010125,None,491.6113400000613,None,right,1.052021799958311,491.6113400000613,None,492.6844812000636,None,left,0.291055400040932,492.6844812000636,None,,,,,,,,,,,,,,,,,,,,,,,PPT06,001,2022-06-28_15h27.56.947,ABstudy,2022.1.4,59.85217712398257,
AB,Lag5_T1P_T2P,5,P,P,8,13,7,5,18,sock,Did you see the sock?,0.12,0.016,JPG\,thermometer02b,avocado01,scissors01,tennisball01b,medal02b,banana01,strawberry,athleticsock,potato02b,pineapple01a,microscope,cymbal,stapler03b,celery,garlic01a,sunglasses04,blankImage,athleticsock,,,,,,,,,,,,0,62,62,141,,,,,,,,,,,,,,,,,,,,,,,,,,,,,,,,,,,493.003824000014,494.01921860000584,493.9857936000917,494.5699961000355,494.5699961000355,None,496.48928650002927,None,left,0.3744526000227779,496.48928650002927,None,496.8902872001054,None,left,0.19764960010070354,496.8902872001054,None,,,,,,,,,,,,,,,,,,,,,,,PPT06,001,2022-06-28_15h27.56.947,ABstudy,2022.1.4,59.85217712398257,
AB,Lag5_T1P_T2P,5,P,P,8,13,7,4,17,cruise ship,Did you see the cruise ship?,0.12,0.016,JPG\,measuringcup01,dice05a,greenolive,lipstick02a,feather03a,balloon01b,lighter01,cruiseship,carrot01,plate01b,microscope,brick,stapler05,screw02,speaker04,spoon01,blankImage,cruiseship,,,,,,,,,,,,0,63,63,105,,,,,,,,,,,,,,,,,,,,,,,,,,,,,,,,,,,497.11026750004385,498.1232963000657,498.10661500005517,498.6898027000716,498.6898027000716,None,500.5861927000806,None,left,0.6938062999397516,500.5861927000806,None,501.3097415000666,None,left,0.30619999999180436,501.3097415000666,None,,,,,,,,,,,,,,,,,,,,,,,PPT06,001,2022-06-28_15h27.56.947,ABstudy,2022.1.4,59.85217712398257,
AB,Lag1_T1P_T2P,1,P,P,5,6,4,3,9,kangaroo,Did you see the kangaroo?,0.12,0.016,JPG\,candle01,shirt02,brick,orange,kangaroo,stapler03a,pizza,thermometer02b,book01b,blankImage,blankImage,blankImage,blankImage,blankImage,blankImage,blankImage,blankImage,kangaroo,,,,,,,,,,,,0,64,64,16,,,,,,,,,,,,,,,,,,,,,,,,,,,,,,,,,,,501.64566250005737,502.6611653000582,502.6277692000149,503.2214336000616,503.2214336000616,None,504.311850600061,None,left,0.5038601999403909,504.311850600061,None,504.8467596000992,None,left,0.2095153999980539,504.8467596000992,None,,,,,,,,,,,,,,,,,,,,,,,PPT06,001,2022-06-28_15h27.56.947,ABstudy,2022.1.4,59.85217712398257,
AB,Lag5_T1P_T2P,5,P,P,5,10,4,5,15,hockey puck,Did you see the hockey puck?,0.12,0.016,JPG\,chain01,pen04b,birthdaycandle,watermelon01,hockeypuck,scissors01,measuringcup01,candle01,hammer01,stapler06,ashtray01,feather03a,sewingmachine01a,thermometer02b,alligator,blankImage,blankImage,hockeypuck,,,,,,,,,,,,0,65,65,110,,,,,,,,,,,,,,,,,,,,,,,,,,,,,,,,,,,505.08389320003334,506.09780750004575,506.08117810008116,506.6560788000934,506.6560788000934,None,508.4060873000417,None,right,0.6978513000067323,508.4060873000417,None,509.1342493999982,None,left,0.3848365999292582,509.1342493999982,None,,,,,,,,,,,,,,,,,,,,,,,PPT06,001,2022-06-28_15h27.56.947,ABstudy,2022.1.4,59.85217712398257,
AB,Lag5_T1A_T2P,5,A,P,7,12,6,3,15,hockey puck,Did you see the hockey puck?,0.12,0.016,JPG\,toiletpaper01a,lipstick02a,potato02b,speaker04,globe,strawberry,carrot01,plate01b,sock01a,candle08b,pen04b,stapler04b,foosballtable,brick,pear01,blankImage,blankImage,frisbee,,,,,,,,,,,,0,66,66,260,,,,,,,,,,,,,,,,,,,,,,,,,,,,,,,,,,,509.55161060008686,510.55227920005564,510.53558120003436,511.12692640000023,511.12692640000023,None,512.948974100058,None,right,0.530963100027293,512.948974100058,None,513.5051365999971,None,left,0.3835613999981433,513.5051365999971,None,,,,,,,,,,,,,,,,,,,,,,,PPT06,001,2022-06-28_15h27.56.947,ABstudy,2022.1.4,59.85217712398257,
AB,Lag5_T1P_T2P,5,P,P,7,12,6,5,17,truck,Did you see the truck?,0.12,0.016,JPG\,binoculars01b,speaker04,sandal,envelope03a,plate01b,comb02a,boxtruck,chain01,measuringcup01,key01,medal02b,stapler05,tennisball01b,pizza,cigarette,sunglasses04,blankImage,boxtruck,,,,,,,,,,,,0,67,67,166,,,,,,,,,,,,,,,,,,,,,,,,,,,,,,,,,,,513.9077717000619,514.9232904000673,514.8898700000718,515.4744806000963,515.4744806000963,None,517.4416820000624,None,left,0.3498132999520749,517.4416820000624,None,517.8094929000363,None,left,0.31896770000457764,517.8094929000363,None,,,,,,,,,,,,,,,,,,,,,,,PPT06,001,2022-06-28_15h27.56.947,ABstudy,2022.1.4,59.85217712398257,
AB,Lag5_T1P_T2A,5,P,A,5,10,4,4,14,Ship in a bottle,Did you see the Ship in a bottle?,0.12,0.016,JPG\,sewingmachine01a,thermometer02b,sponge01,eraser,shipinabottle,fork03c,pizza,violin,belt02a,medal02b,pineapple01a,tennisball01b,dandelion,cauliflower01,blankImage,blankImage,blankImage,shipinabottle,,,,,,,,,,,,0,68,68,208,,,,,,,,,,,,,,,,,,,,,,,,,,,,,,,,,,,518.1627161999932,519.1781353000551,519.162841900019,519.8337419000454,519.7513240000699,None,521.5265524000861,None,left,0.8095027999952435,521.5265524000861,None,522.3644041999942,None,right,0.39559580001514405,522.3644041999942,None,,,,,,,,,,,,,,,,,,,,,,,PPT06,001,2022-06-28_15h27.56.947,ABstudy,2022.1.4,59.85217712398257,
AB,Lag5_T1P_T2P,5,P,P,6,11,5,3,14,fish,Did you see the fish?,0.12,0.016,JPG\,broom01,globe,cellphone,tableknife02,cauliflower01,holdfast,ring01,alligator,rice,toaster01,stapler03b,grape01,microscope,cucumber,blankImage,blankImage,blankImage,holdfast,,,,,,,,,,,,0,69,69,133,,,,,,,,,,,,,,,,,,,,,,,,,,,,,,,,,,,522.786652800045,523.7989644000772,523.782260500011,524.3967664000811,524.3967664000811,None,526.1073548001004,None,left,0.4762045999523252,526.1073548001004,None,526.6015817000298,None,left,0.278128300094977,526.6015817000298,None,,,,,,,,,,,,,,,,,,,,,,,PPT06,001,2022-06-28_15h27.56.947,ABstudy,2022.1.4,59.85217712398257,
AB,Lag5_T1P_T2P,5,P,P,8,13,7,5,18,Kiwi,Did you see the Kiwi?,0.12,0.016,JPG\,violin,pizza,toothbrush03b,pineapple01a,banana01,ashtray01,candy,kiwi03,clock04,sock01a,microscope,speaker04,stapler04b,sunglasses04,lipstick02a,blueberry01,blankImage,kiwi03,,,,,,,,,,,,0,70,70,111,,,,,,,,,,,,,,,,,,,,,,,,,,,,,,,,,,,526.9098111001076,527.9196984000737,527.9030528001022,528.48788660008,528.48788660008,None,530.461633900064,None,left,0.5775863999733701,530.461633900064,None,531.0588713000761,None,left,0.4299301999853924,531.0588713000761,None,,,,,,,,,,,,,,,,,,,,,,,PPT06,001,2022-06-28_15h27.56.947,ABstudy,2022.1.4,59.85217712398257,
AB,Lag1_T1P_T2P,1,P,P,5,6,4,3,9,Escalator,Did you see the Escalator?,0.12,0.016,JPG\,celery,pencil01,fan,foosballtable,escalator,stapler05,potato02b,fork03c,button01,blankImage,blankImage,blankImage,blankImage,blankImage,blankImage,blankImage,blankImage,escalator,,,,,,,,,,,,0,71,71,82,,,,,,,,,,,,,,,,,,,,,,,,,,,,,,,,,,,531.5188936000923,532.524210600066,532.5074612000026,533.1042453000555,533.1042453000555,None,534.2226731000701,None,left,0.6329033999936655,534.2226731000701,None,534.8771027000621,None,left,0.24381010001525283,534.8771027000621,None,,,,,,,,,,,,,,,,,,,,,,,PPT06,001,2022-06-28_15h27.56.947,ABstudy,2022.1.4,59.85217712398257,
AB,Lag5_T1P_T2A,5,P,A,5,10,4,3,13,cork,Did you see the cork?,0.12,0.016,JPG\,clock01a,grape01,plate01b,key01,cork02,feather03a,pineapple01a,iron01b,toothbrush03b,comb02a,broom01,toaster01,pizza,blankImage,blankImage,blankImage,blankImage,cork02,,,,,,,,,,,,0,72,72,209,,,,,,,,,,,,,,,,,,,,,,,,,,,,,,,,,,,535.1456583000254,536.1443361000856,536.1280497000553,536.7113161000889,536.7113161000889,None,538.3501916000387,None,left,0.4820925999665633,538.3501916000387,None,538.8637316999957,None,left,0.19959769991692156,538.8637316999957,None,,,,,,,,,,,,,,,,,,,,,,,PPT06,001,2022-06-28_15h27.56.947,ABstudy,2022.1.4,59.85217712398257,
AB,Lag1_T1A_T2P,1,A,P,5,6,4,3,9,Spider,Did you see the Spider?,0.12,0.016,JPG\,pen04b,speaker04,lighter01,cherry01,8ball,stapler04b,sock01a,toothbrush03b,broom01,blankImage,blankImage,blankImage,blankImage,blankImage,blankImage,blankImage,blankImage,bridge,,,,,,,,,,,,0,73,73,250,,,,,,,,,,,,,,,,,,,,,,,,,,,,,,,,,,,539.0829287000233,540.0983043001033,540.0649172000121,540.6345166000538,540.6345166000538,None,541.7896265001036,None,right,2.065698599908501,541.7896265001036,None,543.8854490000522,None,left,1.537808099994436,543.8854490000522,None,,,,,,,,,,,,,,,,,,,,,,,PPT06,001,2022-06-28_15h27.56.947,ABstudy,2022.1.4,59.85217712398257,
AB,Lag5_T1P_T2A,5,P,A,8,13,7,5,18,Nunchuks,Did you see the Nunchuks?,0.12,0.016,JPG\,celery,tennisball01b,calculator01,pear01,screw02,orange,button01,nunchuk,onion,apple07,iron01b,brownsugar,banana01,paintbrush01,dandelion,toothbrush03b,blankImage,nunchuk,,,,,,,,,,,,0,74,74,218,,,,,,,,,,,,,,,,,,,,,,,,,,,,,,,,,,,545.5117735000094,546.5217375000939,546.5050989000592,547.0910519000608,547.0910519000608,None,549.0136001000647,None,right,1.7938105999492109,549.0136001000647,None,550.8260547000682,None,right,0.32635420002043247,550.8260547000682,None,,,,,,,,,,,,,,,,,,,,,,,PPT06,001,2022-06-28_15h27.56.947,ABstudy,2022.1.4,59.85217712398257,
AB,Lag5_T1A_T2P,5,A,P,5,10,4,4,14,Chefs hat,Did you see the Chefs hat?,0.12,0.016,JPG\,candle01,fork03c,plate01b,violin,computerkeyboard02,candy,calculator01,paintbrush01,cherry01,stapler06,teabag,banana01,cd,lighter01,blankImage,blankImage,blankImage,horseshoe,,,,,,,,,,,,0,75,75,278,,,,,,,,,,,,,,,,,,,,,,,,,,,,,,,,,,,551.1785176000558,552.177419600077,552.161309300107,552.7332314000232,552.7332314000232,None,554.5080182000529,None,right,0.6118264000397176,554.5080182000529,None,555.1463457000209,None,left,0.3811270999722183,555.1463457000209,None,,,,,,,,,,,,,,,,,,,,,,,PPT06,001,2022-06-28_15h27.56.947,ABstudy,2022.1.4,59.85217712398257,
AB,Lag5_T1P_T2P,5,P,P,8,13,7,3,16,church,Did you see the church?,0.12,0.016,JPG\,clock01a,cellphone,toaster01,toothbrush03b,cauliflower01,microscope,comb02a,church,scarf,clock04,sponge01,iron01b,stapler06,celery,ring01,ashtray01,blankImage,church,,,,,,,,,,,,0,76,76,129,,,,,,,,,,,,,,,,,,,,,,,,,,,,,,,,,,,555.5509253001073,556.5649122000905,556.5481536000734,557.1983375001,557.1190914000617,None,559.0483238000888,None,left,0.3672030000016093,559.0483238000888,None,559.434249300044,None,left,0.3971369999926537,559.434249300044,None,,,,,,,,,,,,,,,,,,,,,,,PPT06,001,2022-06-28_15h27.56.947,ABstudy,2022.1.4,59.85217712398257,
AB,Lag1_T1P_T2A,1,P,A,5,6,4,5,11,Moon,Did you see the Moon?,0.12,0.016,JPG\,lamp04a,broccoli01a,alligator,garlic01a,moon,brownsugar,avocado01,ring01,leaf02a,cellphone,medal02b,blankImage,blankImage,blankImage,blankImage,blankImage,blankImage,moon,,,,,,,,,,,,0,77,77,190,,,,,,,,,,,,,,,,,,,,,,,,,,,,,,,,,,,559.8536158000352,560.852869000053,560.837605400011,561.4908645000542,561.4179274000926,None,562.7510810000822,None,right,0.7373334999429062,562.7510810000822,None,563.5050827000523,None,right,0.2141665000235662,563.5050827000523,None,,,,,,,,,,,,,,,,,,,,,,,PPT06,001,2022-06-28_15h27.56.947,ABstudy,2022.1.4,59.85217712398257,
AB,Lag1_T1A_T2P,1,A,P,5,6,4,3,9,Crown,Did you see the Crown?,0.12,0.016,JPG\,leaf02a,pear01,measuringcup01,cigarette,fan,stapler04b,teabag,tableknife02,ring01,blankImage,blankImage,blankImage,blankImage,blankImage,blankImage,blankImage,blankImage,arrow02,,,,,,,,,,,,0,78,78,248,,,,,,,,,,,,,,,,,,,,,,,,,,,,,,,,,,,563.7414926000638,564.7561844000593,564.7228699000552,565.2990457999986,565.2990457999986,None,566.4264218000462,None,right,1.4932143000187352,566.4264218000462,None,567.9434310999932,None,left,1.3686159000499174,567.9434310999932,None,,,,,,,,,,,,,,,,,,,,,,,PPT06,001,2022-06-28_15h27.56.947,ABstudy,2022.1.4,59.85217712398257,
AB,Lag5_T1P_T2P,5,P,P,6,11,5,4,15,saxophone,Did you see the saxophone?,0.12,0.016,JPG\,pizza,strawberry,potato02b,speaker04,battery02b,saxophone,dice05a,cellphone,globe,banana01,stapler03b,baseball01a,toaster01,broom01,ring01,blankImage,blankImage,saxophone,,,,,,,,,,,,0,79,79,117,,,,,,,,,,,,,,,,,,,,,,,,,,,,,,,,,,,569.346724400064,570.3620898000663,570.3288145000115,570.9221937000984,570.9221937000984,None,572.7442252000328,None,left,0.5511623000493273,572.7442252000328,None,573.3151814000448,None,left,0.3080830000108108,573.3151814000448,None,,,,,,,,,,,,,,,,,,,,,,,PPT06,001,2022-06-28_15h27.56.947,ABstudy,2022.1.4,59.85217712398257,
AB,Lag1_T1P_T2P,1,P,P,8,9,7,3,12,mail box,Did you see the mail box?,0.12,0.016,JPG\,paintbrush01,dice05a,watermelon01,broccoli01a,hammer01,leaf02a,match,mailbox01,stapler05,fan,lipstick02a,grape01,blankImage,blankImage,blankImage,blankImage,blankImage,mailbox01,,,,,,,,,,,,0,80,80,20,,,,,,,,,,,,,,,,,,,,,,,,,,,,,,,,,,,573.6549597000703,574.665822400013,574.6512977000093,575.2307365000015,575.2307365000015,None,576.6907159000402,None,right,0.7485606999834999,576.6907159000402,None,577.4691048000241,None,right,0.2981538000749424,577.4691048000241,None,,,,,,,,,,,,,,,,,,,,,,,PPT06,001,2022-06-28_15h27.56.947,ABstudy,2022.1.4,59.85217712398257,
AB,Lag5_T1P_T2P,5,P,P,5,10,4,5,15,scorpion,Did you see the scorpion?,0.12,0.016,JPG\,fan,tomato01,candy,screwdriver04b,scorpion,cd,thermometer02b,apple07,button01,stapler01,brownsugar,lighter01,clock01a,envelope03a,clock04,blankImage,blankImage,scorpion,,,,,,,,,,,,0,81,81,97,,,,,,,,,,,,,,,,,,,,,,,,,,,,,,,,,,,577.7913488000631,578.8039029000793,578.7871459000744,579.3611137000844,579.3611137000844,None,581.1642492000246,None,left,0.460192900034599,581.1642492000246,None,581.6565909000346,None,left,0.17467760003637522,581.6565909000346,None,,,,,,,,,,,,,,,,,,,,,,,PPT06,001,2022-06-28_15h27.56.947,ABstudy,2022.1.4,59.85217712398257,
AB,Lag5_T1P_T2P,5,P,P,7,12,6,5,17,American football helmet,Did you see the American football helmet?,0.12,0.016,JPG\,alligator,banana01,apple07,tomato01,button01,spoon01,footballhelmet,fork03c,slipper03b,potato02b,grape01,stapler03b,teabag,screwdriver04b,hammer01,tennisball01b,blankImage,footballhelmet,,,,,,,,,,,,0,82,82,148,,,,,,,,,,,,,,,,,,,,,,,,,,,,,,,,,,,581.8654439999955,582.8742962999968,582.8574547000462,583.3579977001064,583.3579977001064,None,585.4057694000658,None,left,1.4016414999496192,585.4057694000658,None,586.8281503000762,None,right,0.3313131999457255,586.8281503000762,None,,,,,,,,,,,,,,,,,,,,,,,PPT06,001,2022-06-28_15h27.56.947,ABstudy,2022.1.4,59.85217712398257,
AB,Lag5_T1A_T2P,5,A,P,6,11,5,5,16,bed,Did you see the bed?,0.12,0.016,JPG\,cellphone,tomato01,comb02a,candy,celery,cucumber,toaster01,fan,feather03a,pen04b,stapler03b,blueberry01,plate01b,cherry01,baseball01a,candle08b,blankImage,toolbox02,,,,,,,,,,,,0,83,83,274,,,,,,,,,,,,,,,,,,,,,,,,,,,,,,,,,,,587.1807659000624,588.1962052000454,588.1629515000386,588.745232700021,588.745232700021,None,590.6904269000515,None,right,0.6047772000310943,590.6904269000515,None,591.315955500002,None,left,0.4603833999717608,591.315955500002,None,,,,,,,,,,,,,,,,,,,,,,,PPT06,001,2022-06-28_15h27.56.947,ABstudy,2022.1.4,59.85217712398257,
AB,Lag1_T1P_T2A,1,P,A,8,9,7,5,14,Ceiling fan,Did you see the Ceiling fan?,0.12,0.016,JPG\,cucumber,sponge01,alligator,pear01,ashtray01,hammer01,clock04,ceilingfan01,fork03c,binoculars01b,mushroom01,broccoli01a,leaf02a,acorn,blankImage,blankImage,blankImage,ceilingfan01,,,,,,,,,,,,0,84,84,183,,,,,,,,,,,,,,,,,,,,,,,,,,,,,,,,,,,591.8051154999994,592.8174956000876,592.8008231000276,593.3920026000123,593.3920026000123,None,595.0373201000039,None,left,1.0897712000878528,595.0373201000039,None,596.1540999000426,None,right,0.41276510001625866,596.1540999000426,None,,,,,,,,,,,,,,,,,,,,,,,PPT06,001,2022-06-28_15h27.56.947,ABstudy,2022.1.4,59.85217712398257,
AB,Lag1_T1P_T2A,1,P,A,8,9,7,5,14,Fridge,Did you see the Fridge?,0.12,0.016,JPG\,cherry01,cymbal,envelope03a,foosballtable,shirt02,cellphone,sewingmachine01a,fridge,battery02b,apple07,pencil01,screwdriver04b,strawberry,sunglasses04,blankImage,blankImage,blankImage,fridge,,,,,,,,,,,,0,85,85,173,,,,,,,,,,,,,,,,,,,,,,,,,,,,,,,,,,,596.5935477000894,597.6055238000117,597.5888346000575,598.1832539000316,598.1832539000316,None,599.8775610000594,None,left,1.08275279996451,599.8775610000594,None,600.992504700087,None,right,0.3189167999662459,600.992504700087,None,,,,,,,,,,,,,,,,,,,,,,,PPT06,001,2022-06-28_15h27.56.947,ABstudy,2022.1.4,59.85217712398257,
AB,Lag1_T1P_T2P,1,P,P,6,7,5,5,12,owl,Did you see the owl?,0.12,0.016,JPG\,paintbrush01,eraser,medal02b,hammer01,speaker04,greathornowl,stapler01,comb02a,plate01b,clock01a,button01,globe,blankImage,blankImage,blankImage,blankImage,blankImage,greathornowl,,,,,,,,,,,,0,86,86,1,,,,,,,,,,,,,,,,,,,,,,,,,,,,,,,,,,,601.3489085000474,602.3604325000197,602.3437403000426,602.9407649000641,602.9407649000641,None,604.4000180000439,None,left,0.8231776000466198,604.4000180000439,None,605.2608611000469,None,right,0.3942006001016125,605.2608611000469,None,,,,,,,,,,,,,,,,,,,,,,,PPT06,001,2022-06-28_15h27.56.947,ABstudy,2022.1.4,59.85217712398257,
AB,Lag1_T1P_T2P,1,P,P,7,8,6,3,11,Moose,Did you see the Moose?,0.12,0.016,JPG\,sock01a,spoon01,alligator,comb02a,printer02,medal02b,moose,stapler03a,greenolive,computerkeyboard02,cauliflower01,blankImage,blankImage,blankImage,blankImage,blankImage,blankImage,moose,,,,,,,,,,,,0,87,87,67,,,,,,,,,,,,,,,,,,,,,,,,,,,,,,,,,,,605.6923399000661,606.6977059000637,606.6810122000752,607.2571717000101,607.2571717000101,None,608.6444128000876,None,right,0.8271267999662086,608.6444128000876,None,609.5006195000606,None,left,2.6662314999848604,609.5006195000606,None,,,,,,,,,,,,,,,,,,,,,,,PPT06,001,2022-06-28_15h27.56.947,ABstudy,2022.1.4,59.85217712398257,
AB,Lag5_T1P_T2A,5,P,A,8,13,7,4,17,Drum set,Did you see the Drum set?,0.12,0.016,JPG\,pencil01,microscope,banana01,computerkeyboard02,celery,cellphone,scissors01,drumset,book01b,onion,dice05a,binoculars01b,baseball01a,iron01b,screw02,fork03c,blankImage,drumset,,,,,,,,,,,,0,88,88,212,,,,,,,,,,,,,,,,,,,,,,,,,,,,,,,,,,,612.1889184000902,613.2043590000831,613.1709594000131,613.7415560000809,613.7415560000809,None,615.686698100064,None,left,11.896737299975939,615.686698100064,None,627.6017803000286,None,right,2.5899679999565706,627.6017803000286,None,,,,,,,,,,,,,,,,,,,,,,,PPT06,001,2022-06-28_15h27.56.947,ABstudy,2022.1.4,59.85217712398257,
AB,Lag5_T1P_T2P,5,P,P,7,12,6,3,15,mail box,Did you see the mail box?,0.12,0.016,JPG\,key01,apple07,ring01,leaf02a,hammer01,tableknife02,postalmailbox01,sponge01,baseball01a,thermometer02b,celery,stapler06,grape01,cucumber,tennisball01b,blankImage,blankImage,postalmailbox01,,,,,,,,,,,,0,89,89,113,,,,,,,,,,,,,,,,,,,,,,,,,,,,,,,,,,,630.2233110000379,631.2387919001048,631.2053692000918,631.7828835000983,631.7828835000983,None,633.6106516000582,None,left,1.0365598000353202,633.6106516000582,None,634.6756975000026,None,right,33.443050600006245,634.6756975000026,None,,,,,,,,,,,,,,,,,,,,,,,PPT06,001,2022-06-28_15h27.56.947,ABstudy,2022.1.4,59.85217712398257,
AB,Lag1_T1P_T2A,1,P,A,7,8,6,4,12,gorilla,Did you see the gorilla?,0.12,0.016,JPG\,scissors01,ashtray01,garlic01a,medal02b,cigarette,candle08b,gorilla,envelope03a,cucumber,rice,toiletpaper01a,greenolive,blankImage,blankImage,blankImage,blankImage,blankImage,gorilla,,,,,,,,,,,,0,90,90,189,,,,,,,,,,,,,,,,,,,,,,,,,,,,,,,,,,,668.1983769000508,669.2104811000172,669.1944999000989,669.7875163001008,669.7875163001008,None,671.2208928000182,None,left,0.514394500060007,671.2208928000182,None,671.7625469000777,None,right,0.30867689999286085,671.7625469000777,None,,,,,,,,,,,,,,,,,,,,,,,PPT06,001,2022-06-28_15h27.56.947,ABstudy,2022.1.4,59.85217712398257,
AB,Lag1_T1P_T2A,1,P,A,8,9,7,5,14,Parrot,Did you see the Parrot?,0.12,0.016,JPG\,candy,brownsugar,dice05a,cd,sock01a,blueberry01,button01,parrot01,feather03a,grape01,dandelion,scissors01,watch02a,candle08b,blankImage,blankImage,blankImage,parrot01,,,,,,,,,,,,0,91,91,192,,,,,,,,,,,,,,,,,,,,,,,,,,,,,,,,,,,672.1079433000414,673.1137786000036,673.0970719000325,673.6693269000389,673.6693269000389,None,675.4366018000292,None,left,0.4739786999998614,675.4366018000292,None,675.9343309000833,None,right,0.30462259997148067,675.9343309000833,None,,,,,,,,,,,,,,,,,,,,,,,PPT06,001,2022-06-28_15h27.56.947,ABstudy,2022.1.4,59.85217712398257,
AB,Lag5_T1P_T2P,5,P,P,5,10,4,5,15,Eye,Did you see the Eye?,0.12,0.016,JPG\,apple07,toiletpaper01a,pizza,dandelion,eye,eraser,microscope,violin,orange,stapler01,balloon01b,sandal,lighter01,fan,book01b,blankImage,blankImage,eye,,,,,,,,,,,,0,92,92,171,,,,,,,,,,,,,,,,,,,,,,,,,,,,,,,,,,,676.2703741000732,677.2851061000256,677.2516453000717,677.8262427001027,677.8262427001027,None,679.6506528001046,None,left,0.4681706998962909,679.6506528001046,None,680.1378568999935,None,left,0.5725043000420555,680.1378568999935,None,,,,,,,,,,,,,,,,,,,,,,,PPT06,001,2022-06-28_15h27.56.947,ABstudy,2022.1.4,59.85217712398257,
AB,Lag5_T1P_T2A,5,P,A,7,12,6,3,15,helmet,Did you see the helmet?,0.12,0.016,JPG\,fork03c,belt02a,grape01,computerkeyboard02,lemon02,printer02,skihelmet01,toiletpaper01a,toaster01,lipstick02a,book01b,blueberry01,spoon01,apple07,avocado01,blankImage,blankImage,skihelmet01,,,,,,,,,,,,0,93,93,225,,,,,,,,,,,,,,,,,,,,,,,,,,,,,,,,,,,680.7404850000748,681.7558454000391,681.722465800005,682.2996237000916,682.2996237000916,None,684.1539368000813,None,right,1.38162989995908,684.1539368000813,None,685.5596827000845,None,right,0.5906689999392256,685.5596827000845,None,,,,,,,,,,,,,,,,,,,,,,,PPT06,001,2022-06-28_15h27.56.947,ABstudy,2022.1.4,59.85217712398257,
AB,Lag1_T1A_T2P,1,A,P,8,9,7,5,14,Wolf,Did you see the Wolf?,0.12,0.016,JPG\,carrot01,watch02a,clock04,microscope,toiletpaper01a,potato02b,alligator,ring01,stapler03b,watermelon01,cd,pencil01,measuringcup01,balloon01b,blankImage,blankImage,blankImage,dreamcatcher,,,,,,,,,,,,0,94,94,253,,,,,,,,,,,,,,,,,,,,,,,,,,,,,,,,,,,686.17947740003,687.1946032000706,687.1613307000371,687.7402692000614,687.7402692000614,None,689.4348666000878,None,right,0.7080079999286681,689.4348666000878,None,690.1786574000726,None,right,0.22821600001771003,690.1786574000726,None,,,,,,,,,,,,,,,,,,,,,,,PPT06,001,2022-06-28_15h27.56.947,ABstudy,2022.1.4,59.85217712398257,
AB,Lag5_T1P_T2P,5,P,P,6,11,5,3,14,ladder,Did you see the ladder?,0.12,0.016,JPG\,celery,orange,scissors01,balloon01b,avocado01,stepladder,mushroom01,sewingmachine01a,lighter01,dice05a,stapler01,fan,cd,sock01a,blankImage,blankImage,blankImage,stepladder,,,,,,,,,,,,0,95,95,119,,,,,,,,,,,,,,,,,,,,,,,,,,,,,,,,,,,690.4437290000496,691.4487214999972,691.4319594000699,692.0264115000609,692.0264115000609,None,693.7632210000884,None,left,0.7400452999863774,693.7632210000884,None,694.5352858999977,None,left,0.4470069999806583,694.5352858999977,None,,,,,,,,,,,,,,,,,,,,,,,PPT06,001,2022-06-28_15h27.56.947,ABstudy,2022.1.4,59.85217712398257,
AB,Lag1_T1P_T2A,1,P,A,5,6,4,5,11,Electric toothbrush,Did you see the Electric toothbrush?,0.12,0.016,JPG\,carrot01,greenolive,fork03c,chain01,electrictoothbrush01c,watermelon01,tableknife02,printer02,comb02a,toaster01,orange,blankImage,blankImage,blankImage,blankImage,blankImage,blankImage,electrictoothbrush01c,,,,,,,,,,,,0,96,96,186,,,,,,,,,,,,,,,,,,,,,,,,,,,,,,,,,,,695.0078946000431,696.0203327001072,696.0038574000355,696.5850235000253,696.5850235000253,None,697.9737745000748,None,left,0.9050429000053555,697.9737745000748,None,698.9066347000189,None,right,0.371862499974668,698.9066347000189,None,,,,,,,,,,,,,,,,,,,,,,,PPT06,001,2022-06-28_15h27.56.947,ABstudy,2022.1.4,59.85217712398257,
AB,Lag1_T1P_T2A,1,P,A,5,6,4,4,10,flower,Did you see the flower?,0.12,0.016,JPG\,broom01,globe,cellphone,tableknife02,daffodil,scissors01,ring01,alligator,rice,toaster01,blankImage,blankImage,blankImage,blankImage,blankImage,blankImage,blankImage,daffodil,,,,,,,,,,,,0,97,97,184,,,,,,,,,,,,,,,,,,,,,,,,,,,,,,,,,,,699.3118762000231,700.3250437000534,700.3094725999981,700.8984031000873,700.8984031000873,None,702.168655400048,None,left,0.9815985999302939,702.168655400048,None,703.1772037000628,None,right,0.31724170001689345,703.1772037000628,None,,,,,,,,,,,,,,,,,,,,,,,PPT06,001,2022-06-28_15h27.56.947,ABstudy,2022.1.4,59.85217712398257,
AB,Lag1_T1P_T2P,1,P,P,7,8,6,5,13,school bus,Did you see the school bus?,0.12,0.016,JPG\,aceofdiamond,banana01,scissors01,pig,shirt02,leaf02a,schoolbus,stapler05,fork03c,tableknife02,balloon01b,match,toothbrush03b,blankImage,blankImage,blankImage,blankImage,schoolbus,,,,,,,,,,,,0,98,98,24,,,,,,,,,,,,,,,,,,,,,,,,,,,,,,,,,,,703.5155191000085,704.5285470000235,704.5118922000984,705.0998240000335,705.0998240000335,None,706.690399800078,None,left,0.5402762999292463,706.690399800078,None,707.2490385000128,None,left,0.29341579996980727,707.2490385000128,None,,,,,,,,,,,,,,,,,,,,,,,PPT06,001,2022-06-28_15h27.56.947,ABstudy,2022.1.4,59.85217712398257,
AB,Lag1_T1P_T2A,1,P,A,7,8,6,3,11,Snowshoe,Did you see the Snowshoe?,0.12,0.016,JPG\,birthdaycandle,mushroom01,strawberry,match,cherry01,eraser,snowshoe,thermometer02b,sock01a,ring01,feather03a,blankImage,blankImage,blankImage,blankImage,blankImage,blankImage,snowshoe,,,,,,,,,,,,0,99,99,194,,,,,,,,,,,,,,,,,,,,,,,,,,,,,,,,,,,707.5731786000542,708.5828780001029,708.5663154000649,709.0678296000697,709.0678296000697,None,710.4783131000586,None,right,0.744597899960354,710.4783131000586,None,711.2518329001032,None,right,0.9069823999889195,711.2518329001032,None,,,,,,,,,,,,,,,,,,,,,,,PPT06,001,2022-06-28_15h27.56.947,ABstudy,2022.1.4,59.85217712398257,
AB,Lag1_T1P_T2P,1,P,P,5,6,4,5,11,Basketball,Did you see the Basketball?,0.12,0.016,JPG\,pencil01,microscope,banana01,computerkeyboard02,basketball01,stapler04b,scissors01,sock01a,book01b,onion,dice05a,blankImage,blankImage,blankImage,blankImage,blankImage,blankImage,basketball01,,,,,,,,,,,,0,100,100,34,,,,,,,,,,,,,,,,,,,,,,,,,,,,,,,,,,,712.1890712000895,713.2040559001034,713.1706772000762,713.7366164000705,713.7366164000705,None,715.1548258000985,None,left,0.3481346000917256,715.1548258000985,None,715.5227405000478,None,left,0.22003790002781898,715.5227405000478,None,,,,,,,,,,,,,,,,,,,,,,,PPT06,001,2022-06-28_15h27.56.947,ABstudy,2022.1.4,59.85217712398257,
AB,Lag1_T1A_T2P,1,A,P,8,9,7,4,13,nose,Did you see the nose?,0.12,0.016,JPG\,pizza,strawberry,potato02b,speaker04,battery02b,iron01b,dice05a,cellphone,stapler06,banana01,medal02b,baseball01a,toaster01,blankImage,blankImage,blankImage,blankImage,cow,,,,,,,,,,,,0,101,101,231,,,,,,,,,,,,,,,,,,,,,,,,,,,,,,,,,,,715.7753119000699,716.7907945000334,716.7573915000539,717.3686126000248,717.3686126000248,None,718.9223115000641,None,right,0.6928029999835417,718.9223115000641,None,719.6446186000248,None,right,0.8415503000142053,719.6446186000248,None,,,,,,,,,,,,,,,,,,,,,,,PPT06,001,2022-06-28_15h27.56.947,ABstudy,2022.1.4,59.85217712398257,
AB,Lag1_T1P_T2P,1,P,P,8,9,7,3,12,cactus,Did you see the cactus?,0.12,0.016,JPG\,tennisball01b,paintbrush01,medal02b,apple07,speaker04,iron01b,avocado01,cactus,stapler03b,toiletpaper01a,watermelon01,candle01,blankImage,blankImage,blankImage,blankImage,blankImage,cactus,,,,,,,,,,,,0,102,102,58,,,,,,,,,,,,,,,,,,,,,,,,,,,,,,,,,,,720.5162692000158,721.5290645000059,721.5124215000542,722.1229972000001,722.1229972000001,None,723.5376257000025,None,left,0.3892714000539854,723.5376257000025,None,723.9477872001007,None,left,0.16297299996949732,723.9477872001007,None,,,,,,,,,,,,,,,,,,,,,,,PPT06,001,2022-06-28_15h27.56.947,ABstudy,2022.1.4,59.85217712398257,
AB,Lag5_T1P_T2P,5,P,P,5,10,4,5,15,ear,Did you see the ear?,0.12,0.016,JPG\,fork03c,plate01b,toiletpaper01a,greenolive,ear,blueberry01,onion,calculator01,envelope03a,stapler06,book01b,pencil01,sewingmachine01a,brick,watermelon01,blankImage,blankImage,ear,,,,,,,,,,,,0,103,103,107,,,,,,,,,,,,,,,,,,,,,,,,,,,,,,,,,,,724.1361845000647,725.1490520000225,725.1157186001074,725.6875810000347,725.6875810000347,None,727.5972247000318,None,left,0.41794209997169673,727.5972247000318,None,728.0351970000193,None,left,0.14775949995964766,728.0351970000193,None,,,,,,,,,,,,,,,,,,,,,,,PPT06,001,2022-06-28_15h27.56.947,ABstudy,2022.1.4,59.85217712398257,
AB,Lag5_T1P_T2P,5,P,P,8,13,7,5,18,hand,Did you see the hand?,0.12,0.016,JPG\,foosballtable,candy,envelope03a,microscope,pencil01,leaf02a,scissors01,hand01b,grape01,dandelion,pineapple01a,hammer01,stapler03a,thermometer02b,ring01,sewingmachine01a,blankImage,hand01b,,,,,,,,,,,,0,104,104,131,,,,,,,,,,,,,,,,,,,,,,,,,,,,,,,,,,,728.2066794000566,729.2197552000871,729.1863249000162,729.6870942000533,729.6870942000533,None,731.7043995000422,None,left,0.4857857000315562,731.7043995000422,None,732.2224612000864,None,left,0.11190549994353205,732.2224612000864,None,,,,,,,,,,,,,,,,,,,,,,,PPT06,001,2022-06-28_15h27.56.947,ABstudy,2022.1.4,59.85217712398257,
AB,Lag1_T1P_T2P,1,P,P,7,8,6,5,13,disco ball,Did you see the disco ball?,0.12,0.016,JPG\,candle01,paintbrush01,scissors01,fan,microscope,toothbrush03b,discoball,stapler03b,teabag,pencil01,lemon02,ashtray01,shirt02,blankImage,blankImage,blankImage,blankImage,discoball,,,,,,,,,,,,0,105,105,60,,,,,,,,,,,,,,,,,,,,,,,,,,,,,,,,,,,732.3594685000135,733.3739599999972,733.357226000051,733.9818227000069,733.9120410000905,None,735.5386376000242,None,left,0.3882972999708727,735.5386376000242,None,735.9596308000619,None,left,0.12658829998690635,735.9596308000619,None,,,,,,,,,,,,,,,,,,,,,,,PPT06,001,2022-06-28_15h27.56.947,ABstudy,2022.1.4,59.85217712398257,
AB,Lag1_T1P_T2P,1,P,P,7,8,6,4,12,rooster,Did you see the rooster?,0.12,0.016,JPG\,pizza,strawberry,potato02b,speaker04,battery02b,iron01b,rooster,stapler03b,globe,banana01,medal02b,baseball01a,blankImage,blankImage,blankImage,blankImage,blankImage,rooster,,,,,,,,,,,,0,106,106,69,,,,,,,,,,,,,,,,,,,,,,,,,,,,,,,,,,,736.1137859000592,737.1275817001006,737.0942036000779,737.681466900045,737.681466900045,None,739.2037411000347,None,left,0.3868637999985367,739.2037411000347,None,739.6138401000062,None,left,0.13672280008904636,739.6138401000062,None,,,,,,,,,,,,,,,,,,,,,,,PPT06,001,2022-06-28_15h27.56.947,ABstudy,2022.1.4,59.85217712398257,
AB,Lag1_T1P_T2P,1,P,P,8,9,7,3,12,snow globe,Did you see the Snow globe?,0.12,0.016,JPG\,eraser,measuringcup01,chain01,birthdaycandle,ring01,rice,8ball,stapler04b,stapler01,celery,microscope,sunglasses04,blankImage,blankImage,blankImage,blankImage,blankImage,snowglobe,,,,,,,,,,,,0,107,107,56,,,,,,,,,,,,,,,,,,,,,,,,,,,,,,,,,,,739.7867841999978,740.7982062000083,740.7816361000296,741.36731900007,741.36731900007,None,742.8112906001043,None,right,0.5720595999155194,742.8112906001043,None,743.4004310000455,None,left,0.24639139999635518,743.4004310000455,None,,,,,,,,,,,,,,,,,,,,,,,PPT06,001,2022-06-28_15h27.56.947,ABstudy,2022.1.4,59.85217712398257,
AB,Lag5_T1P_T2P,5,P,P,7,12,6,5,17,Pigeon,Did you see the Pigeon?,0.12,0.016,JPG\,strawberry,leaf02a,clock04,candle01,avocado01,paintbrush01,pigeon,brownsugar,ring01,lemon02,fork03c,stapler01,cauliflower01,tableknife02,tennisball01b,thermometer02b,blankImage,pigeon,,,,,,,,,,,,0,108,108,151,,,,,,,,,,,,,,,,,,,,,,,,,,,,,,,,,,,743.6699396000477,744.6850837999955,744.6517903000349,745.2302391000558,745.2302391000558,None,747.2211848000297,None,left,0.4734106999821961,747.2211848000297,None,747.7214824000839,None,left,0.1330104999942705,747.7214824000839,None,,,,,,,,,,,,,,,,,,,,,,,PPT06,001,2022-06-28_15h27.56.947,ABstudy,2022.1.4,59.85217712398257,
AB,Lag5_T1P_T2P,5,P,P,6,11,5,5,16,sword,Did you see the sword?,0.12,0.016,JPG\,chain01,speaker04,avocado01,watermelon01,scarf,sword01,lamp04a,fork03c,toaster01,slipper03b,stapler03a,cucumber,teabag,ashtray01,computerkeyboard02,book01b,blankImage,sword01,,,,,,,,,,,,0,109,109,143,,,,,,,,,,,,,,,,,,,,,,,,,,,,,,,,,,,747.9359286000254,748.9393434000667,748.9226139000384,749.4974465999985,749.4974465999985,None,751.4262223000405,None,left,0.18042930006049573,751.4262223000405,None,751.625421600067,None,left,0.14119989995379,751.625421600067,None,,,,,,,,,,,,,,,,,,,,,,,PPT06,001,2022-06-28_15h27.56.947,ABstudy,2022.1.4,59.85217712398257,
AB,Lag1_T1P_T2P,1,P,P,5,6,4,3,9,dolphin,Did you see the dolphin?,0.12,0.016,JPG\,pig,belt02a,rice,screwdriver04b,dolphin01,stapler05,candle08b,pear01,feather03a,blankImage,blankImage,blankImage,blankImage,blankImage,blankImage,blankImage,blankImage,dolphin01,,,,,,,,,,,,0,110,110,10,,,,,,,,,,,,,,,,,,,,,,,,,,,,,,,,,,,751.7956085000187,752.8100619000616,752.7768772999989,753.2785366000608,753.2785366000608,None,754.5112620000727,None,left,0.7994292000075802,754.5112620000727,None,755.3292301000329,None,right,0.19765660003758967,755.3292301000329,None,,,,,,,,,,,,,,,,,,,,,,,PPT06,001,2022-06-28_15h27.56.947,ABstudy,2022.1.4,59.85217712398257,
AB,Lag5_T1P_T2P,5,P,P,6,11,5,3,14,Poker chips,Did you see the Poker chips?,0.12,0.016,JPG\,iron01b,brick,broccoli01a,balloon01b,tomato01,pokerchips,sandal,teabag,scissors01,pineapple01a,stapler04b,measuringcup01,sock01a,book01b,blankImage,blankImage,blankImage,pokerchips,,,,,,,,,,,,0,111,111,154,,,,,,,,,,,,,,,,,,,,,,,,,,,,,,,,,,,755.5602056999924,756.563581500086,756.5301577000646,757.0923577999929,757.0923577999929,None,758.7945461000782,None,right,0.9003141999710351,758.7945461000782,None,759.7167713000672,None,left,0.289937200024724,759.7167713000672,None,,,,,,,,,,,,,,,,,,,,,,,PPT06,001,2022-06-28_15h27.56.947,ABstudy,2022.1.4,59.85217712398257,
AB,Lag5_T1A_T2P,5,A,P,5,10,4,5,15,shower,Did you see the shower?,0.12,0.016,JPG\,sewingmachine01a,thermometer02b,sponge01,eraser,broccoli01a,fork03c,pizza,violin,belt02a,stapler04b,pineapple01a,tennisball01b,dandelion,cauliflower01,lemon02,blankImage,blankImage,redfox,,,,,,,,,,,,0,112,112,271,,,,,,,,,,,,,,,,,,,,,,,,,,,,,,,,,,,760.0369774000719,761.0519504999975,761.0183584000915,761.6259287000867,761.6259287000867,None,763.4410475000041,None,right,0.6459324000170454,763.4410475000041,None,764.1051137000322,None,right,0.2216814000857994,764.1051137000322,None,,,,,,,,,,,,,,,,,,,,,,,PPT06,001,2022-06-28_15h27.56.947,ABstudy,2022.1.4,59.85217712398257,
AB,Lag5_T1P_T2P,5,P,P,6,11,5,4,15,punching bag,Did you see the punching bag?,0.12,0.016,JPG\,foosballtable,cigarette,pen04b,birthdaycandle,hammer01,punchingbag,binoculars01b,chain01,potato02b,cauliflower01,stapler04b,ashtray01,scarf,cellphone,calculator01,blankImage,blankImage,punchingbag,,,,,,,,,,,,0,113,113,156,,,,,,,,,,,,,,,,,,,,,,,,,,,,,,,,,,,764.361484699999,765.3728257000912,765.3558934000321,765.8565402000677,765.8565402000677,None,767.745207900065,None,left,0.4532360000303015,767.745207900065,None,768.2248877000529,None,left,0.14120259997434914,768.2248877000529,None,,,,,,,,,,,,,,,,,,,,,,,PPT06,001,2022-06-28_15h27.56.947,ABstudy,2022.1.4,59.85217712398257,
AB,Lag5_T1A_T2P,5,A,P,5,10,4,4,14,duck,Did you see the duck?,0.12,0.016,JPG\,brick,eraser,cucumber,ashtray01,thermometer02b,binoculars01b,lipstick02a,screwdriver04b,grape01,stapler04b,battery02b,iron01b,dice05a,avocado01,blankImage,blankImage,blankImage,barrel01,,,,,,,,,,,,0,114,114,280,,,,,,,,,,,,,,,,,,,,,,,,,,,,,,,,,,,768.3942263000645,769.4096605000086,769.3763108000858,769.9576580000576,769.9576580000576,None,771.6914591999957,None,right,0.8508790999185294,771.6914591999957,None,772.5627576000988,None,right,0.48345950001385063,772.5627576000988,None,,,,,,,,,,,,,,,,,,,,,,,PPT06,001,2022-06-28_15h27.56.947,ABstudy,2022.1.4,59.85217712398257,
AB,Lag1_T1P_T2A,1,P,A,6,7,5,3,10,Dragon fly,Did you see the Dragon fly?,0.12,0.016,JPG\,leaf02a,pear01,measuringcup01,cigarette,fan,dragonfly01,teabag,tableknife02,ring01,pencil01,blankImage,blankImage,blankImage,blankImage,blankImage,blankImage,blankImage,dragonfly01,,,,,,,,,,,,0,115,115,185,,,,,,,,,,,,,,,,,,,,,,,,,,,,,,,,,,,773.066091200104,774.0809709000168,774.0476535001071,774.6248228000477,774.6248228000477,None,775.8478813000256,None,right,0.7666017999872565,775.8478813000256,None,776.6339755000081,None,right,1.6607090000761673,776.6339755000081,None,,,,,,,,,,,,,,,,,,,,,,,PPT06,001,2022-06-28_15h27.56.947,ABstudy,2022.1.4,59.85217712398257,
AB,Lag5_T1P_T2P,5,P,P,5,10,4,5,15,Bee,Did you see the Bee?,0.12,0.016,JPG\,fork03c,dandelion,dice05a,belt02a,honeybee,watch02a,key01,globe,eraser,stapler03a,greenolive,shirt02,candle08b,cigarette,garlic01a,blankImage,blankImage,honeybee,,,,,,,,,,,,0,116,116,149,,,,,,,,,,,,,,,,,,,,,,,,,,,,,,,,,,,778.3235069999937,779.336458100006,779.3196897000307,779.9040421000682,779.9040421000682,None,781.7405950000975,None,left,0.28241589991375804,781.7405950000975,None,782.0556237000274,None,left,0.11924679996445775,782.0556237000274,None,,,,,,,,,,,,,,,,,,,,,,,PPT06,001,2022-06-28_15h27.56.947,ABstudy,2022.1.4,59.85217712398257,
AB,Lag1_T1P_T2P,1,P,P,7,8,6,4,12,cow,Did you see the cow?,0.12,0.016,JPG\,fork03c,plate01b,toiletpaper01a,greenolive,rice,blueberry01,cow,stapler01,envelope03a,orange,book01b,pencil01,blankImage,blankImage,blankImage,blankImage,blankImage,cow,,,,,,,,,,,,0,117,117,59,,,,,,,,,,,,,,,,,,,,,,,,,,,,,,,,,,,782.207093300065,783.2068170000566,783.1900609000586,783.7651662999997,783.7651662999997,None,785.2610050000949,None,left,0.6259324999991804,785.2610050000949,None,785.9094549000729,None,left,0.14518920006230474,785.9094549000729,None,,,,,,,,,,,,,,,,,,,,,,,PPT06,001,2022-06-28_15h27.56.947,ABstudy,2022.1.4,59.85217712398257,
AB,Lag1_T1P_T2A,1,P,A,5,6,4,4,10,bird,Did you see the bird?,0.12,0.016,JPG\,toaster01,scarf,toiletpaper01a,calculator01,swallow,sewingmachine01a,fan,teabag,strawberry,balloon01b,blankImage,blankImage,blankImage,blankImage,blankImage,blankImage,blankImage,swallow,,,,,,,,,,,,0,118,118,195,,,,,,,,,,,,,,,,,,,,,,,,,,,,,,,,,,,786.0784410000779,787.0939591000788,787.0605761000188,787.6575661000097,787.6575661000097,None,788.868710400071,None,left,1.4334600999718532,788.868710400071,None,790.3305151000386,None,left,0.19576870009768754,790.3305151000386,None,,,,,,,,,,,,,,,,,,,,,,,PPT06,001,2022-06-28_15h27.56.947,ABstudy,2022.1.4,59.85217712398257,
AB,Lag5_T1A_T2A,5,A,A,7,12,6,4,16,Eye,Did you see the Eye?,0.12,0.016,JPG\,rice,watermelon01,tableknife02,scarf,computerkeyboard02,cauliflower01,battery02b,binoculars01b,book01b,sandal,sponge01,microscope,tomato01,fork03c,thermometer02b,apple07,blankImage,scooter,,,,,,,,,,,,0,119,119,302,,,,,,,,,,,,,,,,,,,,,,,,,,,,,,,,,,,790.5496822000714,791.5651384000666,791.5317740000319,792.1146167000988,792.1146167000988,None,794.0453252000734,None,right,0.5447521000169218,794.0453252000734,None,794.6184460000368,None,left,0.4517978000221774,794.6184460000368,None,,,,,,,,,,,,,,,,,,,,,,,PPT06,001,2022-06-28_15h27.56.947,ABstudy,2022.1.4,59.85217712398257,
AB,Lag1_T1P_T2P,1,P,P,8,9,7,4,13,dart board,Did you see the dart board?,0.12,0.016,JPG\,rice,watermelon01,tableknife02,scarf,computerkeyboard02,cauliflower01,battery02b,dartboard,stapler01,sandal,sponge01,microscope,tomato01,blankImage,blankImage,blankImage,blankImage,dartboard,,,,,,,,,,,,0,120,120,80,,,,,,,,,,,,,,,,,,,,,,,,,,,,,,,,,,,795.1067896001041,796.1201143000508,796.1031666999916,796.6729279001011,796.6729279001011,None,798.2943368999986,None,left,1.432175499969162,798.2943368999986,None,799.7568684000289,None,right,0.28977380006108433,799.7568684000289,None,,,,,,,,,,,,,,,,,,,,,,,PPT06,001,2022-06-28_15h27.56.947,ABstudy,2022.1.4,59.85217712398257,
AB,Lag5_T1P_T2P,5,P,P,7,12,6,4,16,flower,Did you see the flower?,0.12,0.016,JPG\,cucumber,sponge01,alligator,pear01,ashtray01,hammer01,hibiscusflower02,battery02b,fork03c,binoculars01b,mushroom01,stapler01,leaf02a,acorn,comb02a,screwdriver04b,blankImage,hibiscusflower02,,,,,,,,,,,,0,121,121,132,,,,,,,,,,,,,,,,,,,,,,,,,,,,,,,,,,,800.0845722000813,801.0910434999969,801.0743584000738,801.6615640000673,801.6615640000673,None,803.6146310000913,None,left,0.32760209997650236,803.6146310000913,None,803.9621353000402,None,left,0.14896130003035069,803.9621353000402,None,,,,,,,,,,,,,,,,,,,,,,,PPT06,001,2022-06-28_15h27.56.947,ABstudy,2022.1.4,59.85217712398257,
AB,Lag5_T1P_T2A,5,P,A,5,10,4,3,13,Totem Pole,Did you see the Totem Pole?,0.12,0.016,JPG\,canoftennisballs,banana01,scissors01,pig,totempole,leaf02a,pear01,sponge01,fork03c,tableknife02,balloon01b,match,toothbrush03b,blankImage,blankImage,blankImage,blankImage,totempole,,,,,,,,,,,,0,122,122,202,,,,,,,,,,,,,,,,,,,,,,,,,,,,,,,,,,,804.1972724000225,805.2119851000607,805.1786664000247,805.762996800011,805.762996800011,None,807.3098380001029,None,right,0.5921577999833971,807.3098380001029,None,807.9313854000065,None,right,0.1794588000047952,807.9313854000065,None,,,,,,,,,,,,,,,,,,,,,,,PPT06,001,2022-06-28_15h27.56.947,ABstudy,2022.1.4,59.85217712398257,
AB,Lag5_T1A_T2P,5,A,P,7,12,6,5,17,Rollerblade,Did you see the Rollerblade?,0.12,0.016,JPG\,binoculars01b,cymbal,pizza,candy,paintbrush01,sponge01,grape01,thermometer02b,speaker04,lemon02,lipstick02a,stapler03b,candle01,8ball,plate01b,pen04b,blankImage,lion,,,,,,,,,,,,0,123,123,266,,,,,,,,,,,,,,,,,,,,,,,,,,,,,,,,,,,808.1378389000893,809.1493380001048,809.1329701000359,809.7223027000437,809.7223027000437,None,811.7311945999973,None,right,0.45066179998684675,811.7311945999973,None,812.2047053000424,None,left,0.23407219990622252,812.2047053000424,None,,,,,,,,,,,,,,,,,,,,,,,PPT06,001,2022-06-28_15h27.56.947,ABstudy,2022.1.4,59.85217712398257,
AB,Lag5_T1P_T2P,5,P,P,8,13,7,5,18,skis,Did you see the skis?,0.12,0.016,JPG\,tennisball01b,paintbrush01,medal02b,apple07,speaker04,iron01b,avocado01,downhillski,belt02a,toiletpaper01a,watermelon01,candle01,stapler01,cymbal,ashtray01,screwdriver04b,blankImage,downhillski,,,,,,,,,,,,0,124,124,106,,,,,,,,,,,,,,,,,,,,,,,,,,,,,,,,,,,812.4714762000367,813.4869157000212,813.4535516001051,814.0435862001032,814.0435862001032,None,816.0082952000666,None,right,0.5336725999368355,816.0082952000666,None,816.573590700049,None,left,0.664285600068979,816.573590700049,None,,,,,,,,,,,,,,,,,,,,,,,PPT06,001,2022-06-28_15h27.56.947,ABstudy,2022.1.4,59.85217712398257,
AB,Lag1_T1P_T2P,1,P,P,5,6,4,3,9,mail box,Did you see the mail box?,0.12,0.016,JPG\,watermelon01,banana01,ring01,pencil01,mailbox02,stapler04b,cucumber,thermometer02b,key01,blankImage,blankImage,blankImage,blankImage,blankImage,blankImage,blankImage,blankImage,mailbox02,,,,,,,,,,,,0,125,125,21,,,,,,,,,,,,,,,,,,,,,,,,,,,,,,,,,,,817.2632891000248,818.2752381000901,818.2583959000185,818.9021237000125,818.9021237000125,None,820.0246254000813,None,left,1.7498957000207156,820.0246254000813,None,821.7951599000953,None,right,0.49144829995930195,821.7951599000953,None,,,,,,,,,,,,,,,,,,,,,,,PPT06,001,2022-06-28_15h27.56.947,ABstudy,2022.1.4,59.85217712398257,
AB,Lag1_T1P_T2P,1,P,P,6,7,5,3,10,cupcake,Did you see the cupcake?,0.12,0.016,JPG\,printer02,leaf02a,cauliflower01,sock01a,brownsugar,cupcake,stapler01,orange,belt02a,shirt02,blankImage,blankImage,blankImage,blankImage,blankImage,blankImage,blankImage,cupcake,,,,,,,,,,,,0,126,126,38,,,,,,,,,,,,,,,,,,,,,,,,,,,,,,,,,,,822.3152337000938,823.3304016001057,823.2970533000771,823.9060111000435,823.9060111000435,None,825.1791497000959,None,left,1.0826265000505373,825.1791497000959,None,826.2829273000825,None,right,0.27676709997467697,826.2829273000825,None,,,,,,,,,,,,,,,,,,,,,,,PPT06,001,2022-06-28_15h27.56.947,ABstudy,2022.1.4,59.85217712398257,
AB,Lag1_T1P_T2P,1,P,P,7,8,6,4,12,skunk,Did you see the skunk?,0.12,0.016,JPG\,fan,tomato01,candy,screwdriver04b,alligator,cd,skunk,stapler03b,button01,plate01b,brownsugar,lighter01,blankImage,blankImage,blankImage,blankImage,blankImage,skunk,,,,,,,,,,,,0,127,127,48,,,,,,,,,,,,,,,,,,,,,,,,,,,,,,,,,,,826.5854826000286,827.6009395000292,827.5675800000317,828.1535334000364,828.1535334000364,None,829.6478547001025,None,left,0.6064796999562532,829.6478547001025,None,830.2728292000247,None,left,0.18923160003032535,830.2728292000247,None,,,,,,,,,,,,,,,,,,,,,,,PPT06,001,2022-06-28_15h27.56.947,ABstudy,2022.1.4,59.85217712398257,
AB,Lag5_T1P_T2P,5,P,P,7,12,6,4,16,Wolf,Did you see the Wolf?,0.12,0.016,JPG\,brick,eraser,cucumber,ashtray01,thermometer02b,binoculars01b,greywolf,screwdriver04b,grape01,brownsugar,battery02b,stapler03b,dice05a,avocado01,birthdaycandle,watch02a,blankImage,greywolf,,,,,,,,,,,,0,128,128,89,,,,,,,,,,,,,,,,,,,,,,,,,,,,,,,,,,,830.49242340005,831.5050480000209,831.4883225000231,832.0824028000934,832.0824028000934,None,834.0167835000902,None,left,0.8454008999979123,834.0167835000902,None,834.8919039000757,None,right,0.2194132999284193,834.8919039000757,None,,,,,,,,,,,,,,,,,,,,,,,PPT06,001,2022-06-28_15h27.56.947,ABstudy,2022.1.4,59.85217712398257,
AB,Lag5_T1P_T2P,5,P,P,5,10,4,3,13,Sushi,Did you see the Sushi?,0.12,0.016,JPG\,carrot01,greenolive,fork03c,chain01,makiroll,watermelon01,tableknife02,printer02,comb02a,stapler03b,orange,rice,fan,blankImage,blankImage,blankImage,blankImage,makiroll,,,,,,,,,,,,0,129,129,135,,,,,,,,,,,,,,,,,,,,,,,,,,,,,,,,,,,835.1926266000373,836.1937070999993,836.1777783000143,836.7955452000024,836.7955452000024,None,838.2906612000661,None,left,0.3404480000026524,838.2906612000661,None,838.6619328000816,None,left,0.13625039998441935,838.6619328000816,None,,,,,,,,,,,,,,,,,,,,,,,PPT06,001,2022-06-28_15h27.56.947,ABstudy,2022.1.4,59.85217712398257,
AB,Lag1_T1P_T2A,1,P,A,6,7,5,5,12,foot,Did you see the foot?,0.12,0.016,JPG\,watermelon01,cigarette,weight04a,cymbal,cauliflower01,foot,cherry01,broom01,battery02b,key01,baseball01a,iron01b,blankImage,blankImage,blankImage,blankImage,blankImage,foot,,,,,,,,,,,,0,130,130,188,,,,,,,,,,,,,,,,,,,,,,,,,,,,,,,,,,,838.8310062000528,839.8464601000305,839.8131882000016,840.4227087000618,840.4227087000618,None,841.9218658000464,None,left,0.6123514999635518,841.9218658000464,None,842.5658188000089,None,right,0.2723188999807462,842.5658188000089,None,,,,,,,,,,,,,,,,,,,,,,,PPT06,001,2022-06-28_15h27.56.947,ABstudy,2022.1.4,59.85217712398257,
AB,Lag5_T1A_T2P,5,A,P,6,11,5,3,14,Kiwi,Did you see the Kiwi?,0.12,0.016,JPG\,paintbrush01,dice05a,watermelon01,broccoli01a,hammer01,leaf02a,match,tennisball01b,lemon02,fan,stapler06,grape01,envelope03a,sponge01,blankImage,blankImage,blankImage,granolabar01,,,,,,,,,,,,0,131,131,261,,,,,,,,,,,,,,,,,,,,,,,,,,,,,,,,,,,842.8695128000109,843.8837653000373,843.8504975000396,844.4289068999933,844.4289068999933,None,846.1788630000083,None,right,0.9309791000559926,846.1788630000083,None,847.1370465999935,None,right,0.30158660002052784,847.1370465999935,None,,,,,,,,,,,,,,,,,,,,,,,PPT06,001,2022-06-28_15h27.56.947,ABstudy,2022.1.4,59.85217712398257,
AB,Lag1_T1A_T2P,1,A,P,8,9,7,5,14,clock,Did you see the clock?,0.12,0.016,JPG\,speaker04,sewingmachine01a,eraser,violin,globe,belt02a,sunglasses04,cymbal,stapler01,greenolive,alligator,pear01,watch02a,screwdriver04b,blankImage,blankImage,blankImage,peacock,,,,,,,,,,,,0,132,132,240,,,,,,,,,,,,,,,,,,,,,,,,,,,,,,,,,,,847.4733602000633,848.4883777000941,848.4549983000616,849.0399340000004,849.0399340000004,None,850.7319413000951,None,right,1.7867346999701113,850.7319413000951,None,852.5424332000548,None,right,0.4000450000166893,852.5424332000548,None,,,,,,,,,,,,,,,,,,,,,,,PPT06,001,2022-06-28_15h27.56.947,ABstudy,2022.1.4,59.85217712398257,
AB,Lag1_T1P_T2A,1,P,A,7,8,6,5,13,Well,Did you see the Well?,0.12,0.016,JPG\,leaf02a,apple07,cd,pineapple01a,envelope03a,paintbrush01,well,acorn,rice,feather03a,lemon02,balloon01b,avocado01,blankImage,blankImage,blankImage,blankImage,well,,,,,,,,,,,,0,133,133,178,,,,,,,,,,,,,,,,,,,,,,,,,,,,,,,,,,,852.9620659000939,853.9772140000714,853.9438041000394,854.5237924000248,854.5237924000248,None,856.1578738000244,None,left,0.9362643000204116,856.1578738000244,None,857.1140708000166,None,right,0.24381110002286732,857.1140708000166,None,,,,,,,,,,,,,,,,,,,,,,,PPT06,001,2022-06-28_15h27.56.947,ABstudy,2022.1.4,59.85217712398257,
AB,Lag5_T1P_T2P,5,P,P,7,12,6,5,17,flamingo,Did you see the flamingo?,0.12,0.016,JPG\,pig,belt02a,rice,screwdriver04b,candle01,apple07,flamingo,pear01,feather03a,match,thermometer02b,stapler06,lemon02,violin,medal02b,pineapple01a,blankImage,flamingo,,,,,,,,,,,,0,134,134,153,,,,,,,,,,,,,,,,,,,,,,,,,,,,,,,,,,,857.382152400096,858.3818256000523,858.36491080001,858.865706600016,858.865706600016,None,860.9121177000925,None,left,0.7497279999079183,860.9121177000925,None,861.6849069000455,None,left,0.14489850006066263,861.6849069000455,None,,,,,,,,,,,,,,,,,,,,,,,PPT06,001,2022-06-28_15h27.56.947,ABstudy,2022.1.4,59.85217712398257,
AB,Lag1_T1P_T2P,1,P,P,8,9,7,3,12,Fire hydrant,Did you see the Fire hydrant?,0.12,0.016,JPG\,foosballtable,candy,envelope03a,microscope,pencil01,leaf02a,scissors01,firehydrant,stapler01,dandelion,pineapple01a,hammer01,blankImage,blankImage,blankImage,blankImage,blankImage,firehydrant,,,,,,,,,,,,0,135,135,83,,,,,,,,,,,,,,,,,,,,,,,,,,,,,,,,,,,861.8557963001076,862.8693861000938,862.8526970000239,863.3534237000858,863.3534237000858,None,864.9107379000634,None,left,0.9046314000152051,864.9107379000634,None,865.8393535000505,None,right,0.19911919999867678,865.8393535000505,None,,,,,,,,,,,,,,,,,,,,,,,PPT06,001,2022-06-28_15h27.56.947,ABstudy,2022.1.4,59.85217712398257,
AB,Lag1_T1A_T2P,1,A,P,5,6,4,3,9,Stool,Did you see the Stool?,0.12,0.016,JPG\,cherry01,cymbal,envelope03a,foosballtable,shirt02,stapler01,sewingmachine01a,candle08b,battery02b,blankImage,blankImage,blankImage,blankImage,blankImage,blankImage,blankImage,blankImage,hulahoop,,,,,,,,,,,,0,136,136,236,,,,,,,,,,,,,,,,,,,,,,,,,,,,,,,,,,,866.061701000086,867.073663600022,867.057241100003,867.6255285000661,867.6255285000661,None,868.7617169000441,None,right,1.2041482999920845,868.7617169000441,None,869.9930846000789,None,right,0.20461300003807992,869.9930846000789,None,,,,,,,,,,,,,,,,,,,,,,,PPT06,001,2022-06-28_15h27.56.947,ABstudy,2022.1.4,59.85217712398257,
AB,Lag5_T1A_T2P,5,A,P,6,11,5,4,15,fish,Did you see the fish?,0.12,0.016,JPG\,pingpongpaddle01c,banana01,scissors01,pig,shirt02,leaf02a,pear01,sponge01,fork03c,tableknife02,stapler03a,match,toothbrush03b,birthdaycandle,candle01,blankImage,blankImage,lighthouse,,,,,,,,,,,,0,137,137,265,,,,,,,,,,,,,,,,,,,,,,,,,,,,,,,,,,,870.2291185000213,871.228237500065,871.212692100089,871.8253600000171,871.8253600000171,None,873.6193059000652,None,right,1.1633258999790996,873.6193059000652,None,874.8148492000764,None,left,0.4308113999431953,874.8148492000764,None,,,,,,,,,,,,,,,,,,,,,,,PPT06,001,2022-06-28_15h27.56.947,ABstudy,2022.1.4,59.85217712398257,
