TrialType,CondType,Lag,T1_PA,T2_PA,T1Loc,T2Loc,PreDistractor,PostDistractor,TotalImg,cueWord,T1cue,StimLength,isi,PicFolder,Img1,Img2,Img3,Img4,Img5,Img6,Img7,Img8,Img9,Img10,Img11,Img12,Img13,Img14,Img15,Img16,Img17,T1_Identity,ImageType,T1PA,T2PA,Picture,Image,FullPathName,FilePath,Practice_Trials.thisRepN,Practice_Trials.thisTrialN,Practice_Trials.thisN,Practice_Trials.thisIndex,trials.thisRepN,trials.thisTrialN,trials.thisN,trials.thisIndex,trials_2.thisRepN,trials_2.thisTrialN,trials_2.thisN,trials_2.thisIndex,Practice_Ins.started,Practice_Ins.stopped,End_Prac_Ins.keys,End_Prac_Ins.rt,End_Prac_Ins.started,End_Prac_Ins.stopped,text_2.started,text_2.stopped,Fixation_Cross_2.started,Fixation_Cross_2.stopped,Rapid_Image_Present_2.started,Rapid_Image_Present_2.stopped,key_resp.keys,key_resp.rt,key_resp.started,key_resp.stopped,T1Response_2.started,T1Response_2.stopped,T2Response_2.started,T2Response_2.stopped,key_resp_4.keys,key_resp_4.rt,key_resp_4.started,key_resp_4.stopped,text.started,text.stopped,End_Instructions.keys,End_Instructions.rt,End_Instructions.started,End_Instructions.stopped,text_5.started,text_5.stopped,FC.started,FC.stopped,Rapid_Image_Present.started,Rapid_Image_Present.stopped,T1Response.started,T1Response.stopped,key_resp_2.keys,key_resp_2.rt,key_resp_2.started,key_resp_2.stopped,T2Response.started,T2Response.stopped,key_resp_3.keys,key_resp_3.rt,key_resp_3.started,key_resp_3.stopped,text_6.started,text_6.stopped,Fin_ins.keys,Fin_ins.rt,Fin_ins.started,Fin_ins.stopped,MemTest.started,MemTest.stopped,MemResponse.keys,MemResponse.rt,MemResponse.started,MemResponse.stopped,Display.started,Display.stopped,text_7.started,text_7.stopped,endOfExperiment.started,endOfExperiment.stopped,key_resp_5.keys,key_resp_5.rt,key_resp_5.started,key_resp_5.stopped,participant,session,date,expName,psychopyVersion,frameRate,
,,,,,,,,,,,,,,,,,,,,,,,,,,,,,,,,,,,,,,,,,,,,,,,,,,,,11.013980700052343,None,space,53.2399238999933,11.013980700052343,None,,,,,,,,,,,,,,,,,,,,,,,,,,,,,,,,,,,,,,,,,,,,,,,,,,,,,,,,,,,,,,,,,PPT09,001,2022-06-29_10h01.10.225,ABstudy,2022.1.4,59.9584368162001,
AB_Prac,Lag5_T1P_T2A,5,P,A,6,11,5,5,16,bread,Did you see the bread?,0.5,0.016,JPG\,cleaver01,clipboard,dustpan,hikingshoe01,notebook03a,baguette01,playingcard,pliers02b,styrofoamcup,rollingpin01a,swimgoggles,wineglass01,fryingpan02a,safetypin,syringe01,thimble,blankImage,baguette01,,,,,,,,0,0,0,8,,,,,,,,,,,,,,,64.35198000003584,65.3617607000051,65.3450206000125,65.9550312999636,65.9550312999636,None,left,1.115052100038156,74.02673619997222,None,74.02673619997222,None,75.17163660004735,None,right,1.266236099996604,75.17163660004735,None,,,,,,,,,,,,,,,,,,,,,,,,,,,,,,,,,,,,,,,,,,,,,,,PPT09,001,2022-06-29_10h01.10.225,ABstudy,2022.1.4,59.9584368162001,
AB_Prac,Lag1_T1P_T2A,1,P,A,8,9,7,5,14,flower,Did you see the flower?,0.5,0.016,JPG\,razor01,axe01,binder03b,bowl01,kettle01,lettuce,lime,plasticflower01b,mitten04,pencilcase01,plunger02,strawbasket01,toothpick02,wallet02a,blankImage,blankImage,blankImage,plasticflower01b,,,,,,,,0,1,1,5,,,,,,,,,,,,,,,76.46477600000799,77.47393630002625,77.45717790001072,78.03886720002629,78.03886720002629,None,left,1.1006917000049725,85.10481489996891,None,85.10481489996891,None,86.23269680002704,None,right,0.7816812000237405,86.23269680002704,None,,,,,,,,,,,,,,,,,,,,,,,,,,,,,,,,,,,,,,,,,,,,,,,PPT09,001,2022-06-29_10h01.10.225,ABstudy,2022.1.4,59.9584368162001,
AB_Prac,Lag5_T1A_T2P,5,A,P,6,11,5,3,14,dog,Did you see the dog?,0.5,0.016,JPG\,bucket01a,doorlock,cookiecutter,fireextinguisher01,gluestick,highlighter02b,sportbag,spraybottle01,suitcase,thread02,stapler05,walnut01c,icecubetray01a,vikingmask01b,blankImage,blankImage,blankImage,None,,,,,,,,0,2,2,9,,,,,,,,,,,,,,,87.04036810004618,88.05121129995678,88.0345347999828,88.609620800009,88.609620800009,None,right,1.3017878999235108,95.63202300004195,None,95.63202300004195,None,96.96014750003815,None,left,1.0130311000393704,96.96014750003815,None,,,,,,,,,,,,,,,,,,,,,,,,,,,,,,,,,,,,,,,,,,,,,,,PPT09,001,2022-06-29_10h01.10.225,ABstudy,2022.1.4,59.9584368162001,
AB_Prac,Lag5_T1P_T2P,5,P,P,7,12,6,3,15,vacuum,Did you see the vacuum?,0.5,0.016,JPG\,fork07b,lightbulb01,manshoe,saw02b,shoelace,soap03a,vacuumcleaner01,floortile01,necklace,doll,cabbage,stapler03a,hanger02a,laptop01a,nailpolish03b,blankImage,blankImage,vacuumcleaner01,,,,,,,,0,3,3,2,,,,,,,,,,,,,,,97.996644299943,99.0121370999841,98.97886759997346,99.54458200000226,99.54458200000226,None,left,1.924694100045599,107.16899789997842,None,107.16899789997842,None,109.12213200004771,None,left,0.7556497000623494,109.12213200004771,None,,,,,,,,,,,,,,,,,,,,,,,,,,,,,,,,,,,,,,,,,,,,,,,PPT09,001,2022-06-29_10h01.10.225,ABstudy,2022.1.4,59.9584368162001,
AB_Prac,Lag5_T1P_T2P,5,P,P,5,10,4,5,15,washing machine,Did you see the washing machine?,0.5,0.016,JPG\,waterbottle03,wheel01,flashlight02b,zucchini01,washingmachine,headphones02b,nutcracker01,paintroller01,paperclip03,stapler06,ribbon04,electricrazor,bottleofredwine01,pitabread,pot02a,blankImage,blankImage,washingmachine,,,,,,,,0,4,4,4,,,,,,,,,,,,,,,109.9136166999815,110.92348650004715,110.90687089995481,111.48524419998284,111.48524419998284,None,left,0.816997200017795,119.06091380002908,None,119.06091380002908,None,119.89950439997483,None,left,0.658447099965997,119.89950439997483,None,,,,,,,,,,,,,,,,,,,,,,,,,,,,,,,,,,,,,,,,,,,,,,,PPT09,001,2022-06-29_10h01.10.225,ABstudy,2022.1.4,59.9584368162001,
AB_Prac,Lag1_T1P_T2A,1,P,A,5,6,4,5,11,Webcam,Did you see the Webcam?,0.5,0.016,JPG\,pictureframe04,binder03b,straw,adjustablewrench01b,webcam,cane,hairdryer02a,icepack,kitchenscale01a,lifejacket,piggybank,blankImage,blankImage,blankImage,blankImage,blankImage,blankImage,webcam,,,,,,,,0,5,5,6,,,,,,,,,,,,,,,120.5880089000566,121.60104290000163,121.58430640003644,122.16676890000235,122.16676890000235,None,left,0.866990500013344,127.80263429996558,None,127.80263429996558,None,128.69153830001596,None,right,0.9311061999760568,128.69153830001596,None,,,,,,,,,,,,,,,,,,,,,,,,,,,,,,,,,,,,,,,,,,,,,,,PPT09,001,2022-06-29_10h01.10.225,ABstudy,2022.1.4,59.9584368162001,
AB_Prac,Lag1_T1P_T2P,1,P,P,6,7,5,5,12,triangle,Did you see the triangle?,0.5,0.016,JPG\,ginger,mousetrap,plum01,slipper01b,dropper01,triangle,stapler04b,pants,raspberry01,rope03,scale01a,vase01,blankImage,blankImage,blankImage,blankImage,blankImage,triangle,,,,,,,,0,6,6,1,,,,,,,,,,,,,,,129.65336540003773,130.660074000014,130.64308870001696,131.22874960000627,131.22874960000627,None,left,3.887790499953553,137.24644160002936,None,137.24644160002936,None,141.15370110003278,None,right,0.36352150002494454,141.15370110003278,None,,,,,,,,,,,,,,,,,,,,,,,,,,,,,,,,,,,,,,,,,,,,,,,PPT09,001,2022-06-29_10h01.10.225,ABstudy,2022.1.4,59.9584368162001,
AB_Prac,Lag5_T1P_T2P,5,P,P,5,10,4,5,15,Vulture,Did you see the Vulture?,0.5,0.016,JPG\,shorts01,toast,ramekin01,bib,vulture,cracker02,date,glasses01a,hat03b,stapler01,measuringtape01,nail,pill,drum01,starfish01,blankImage,blankImage,vulture,,,,,,,,0,7,7,3,,,,,,,,,,,,,,,141.53899459994864,142.53877850004937,142.52208939997945,143.10282459994778,143.10282459994778,None,left,0.7623509999830276,150.62701900000684,None,150.62701900000684,None,151.41386349999812,None,left,0.6639018000569195,151.41386349999812,None,,,,,,,,,,,,,,,,,,,,,,,,,,,,,,,,,,,,,,,,,,,,,,,PPT09,001,2022-06-29_10h01.10.225,ABstudy,2022.1.4,59.9584368162001,
AB_Prac,Lag1_T1P_T2P,1,P,P,8,9,7,5,14,Tennis racket,Did you see the Tennis racket?,0.5,0.016,JPG\,coconut,computermouse06,croissant01,deodorant02a,pillow01a,peanut01,boot02b,tennisracket,stapler03b,crayon,eggplant,marker01a,plant01,radish01,blankImage,blankImage,blankImage,tennisracket,,,,,,,,0,8,8,0,,,,,,,,,,,,,,,152.18129300000146,153.1825916999951,153.16583990002982,153.78707870002836,153.78707870002836,None,left,0.8128216000040993,160.7367654000409,None,160.7367654000409,None,161.57416530000046,None,left,0.4709728999296203,161.57416530000046,None,,,,,,,,,,,,,,,,,,,,,,,,,,,,,,,,,,,,,,,,,,,,,,,PPT09,001,2022-06-29_10h01.10.225,ABstudy,2022.1.4,59.9584368162001,
AB_Prac,Lag5_T1A_T2A,5,A,A,6,11,5,5,16,castle,Did you see the castle?,0.5,0.016,JPG\,tape02a,englishmuffin,flask,ladle02a,monitor,peach01,keychain,squeegee01b,telephone01b,whisk,walkman,syringe02,baguette01,coaster,box01a,coffeepot03a,blankImage,None,,,,,,,,0,9,9,11,,,,,,,,,,,,,,,162.07620879996102,163.07590910000727,163.05919379997067,163.66075349994935,163.66075349994935,None,right,0.9863675000378862,171.66008970001712,None,171.66008970001712,None,172.6685752000194,None,right,0.5043371999636292,172.6685752000194,None,,,,,,,,,,,,,,,,,,,,,,,,,,,,,,,,,,,,,,,,,,,,,,,PPT09,001,2022-06-29_10h01.10.225,ABstudy,2022.1.4,59.9584368162001,
AB_Prac,Lag1_T1A_T2A,1,A,A,8,9,7,3,12,Moose,Did you see the Moose?,0.5,0.016,JPG\,clothespin03b,corkscrew03a,drillbit03a,fusilli03a,needlenosepliers01,perfume01a,pistachio,scrubbingbrush05b,spatula03,toothpastetube,hinge,toydinosaur,blankImage,blankImage,blankImage,blankImage,blankImage,None,,,,,,,,0,10,10,10,,,,,,,,,,,,,,,173.21269730001222,174.22013609996065,174.20349460002035,174.7963933000574,174.7963933000574,None,right,0.9270612000254914,180.85443609999493,None,180.85443609999493,None,181.8110959000187,None,right,0.6674673999659717,181.8110959000187,None,,,,,,,,,,,,,,,,,,,,,,,,,,,,,,,,,,,,,,,,,,,,,,,PPT09,001,2022-06-29_10h01.10.225,ABstudy,2022.1.4,59.9584368162001,
AB_Prac,Lag5_T1P_T2A,5,P,A,6,11,5,5,16,Wheat,Did you see the Wheat?,0.5,0.016,JPG\,bottleopener01,dentalfloss03b,cooler01,icecreamcone01a,paperclip01b,wheat,pencilsharpener02a,plasticbasket01a,toycar04,apricot,hairclip02,rock01a,honeydewmelon,antenna,blackberry,cardboardbox,blankImage,wheat,,,,,,,,0,11,11,7,,,,,,,,,,,,,,,182.4954272999894,183.49609030003194,183.47934139997233,184.05638279998675,184.05638279998675,None,left,1.6059175999835134,192.1518791000126,None,192.1518791000126,None,193.78955180000048,None,right,0.6157316999742761,193.78955180000048,None,,,,,,,,,,,,,,,,,,,,,,,,,,,,,,,,,,,,,,,,,,,,,,,PPT09,001,2022-06-29_10h01.10.225,ABstudy,2022.1.4,59.9584368162001,
,,,,,,,,,,,,,,,,,,,,,,,,,,,,,,,,,,,,,,,,,,,,,,,,,,,,,,,,,,,,,,,,,,,,,,,,,,,,194.42373919999227,None,space,19.773715500021353,194.42373919999227,None,,,,,,,,,,,,,,,,,,,,,,,,,,,,,,,,,,,,,,,,,PPT09,001,2022-06-29_10h01.10.225,ABstudy,2022.1.4,59.9584368162001,
AB,Lag1_T1P_T2P,1,P,P,7,8,6,5,13,arrow,Did you see the arrow?,0.12,0.016,JPG\,pencil01,broccoli01a,button01,sponge01,watermelon01,lipstick02a,arrow02,stapler04b,lighter01,sock01a,spoon01,blueberry01,belt02a,blankImage,blankImage,blankImage,blankImage,arrow02,,,,,,,,,,,,0,0,0,76,,,,,,,,,,,,,,,,,,,,,,,,,,,,,,,,,,,214.94642379996367,215.9618296000408,215.92831670003943,216.52494449994992,216.52494449994992,None,218.14705519995186,None,left,1.2506769000319764,218.14705519995186,None,219.4170650000451,None,right,0.7645293000387028,219.4170650000451,None,,,,,,,,,,,,,,,,,,,,,,,PPT09,001,2022-06-29_10h01.10.225,ABstudy,2022.1.4,59.9584368162001,
AB,Lag1_T1P_T2P,1,P,P,5,6,4,5,11,Guitar case,Did you see the Guitar case?,0.12,0.016,JPG\,broccoli01a,scissors01,toothbrush03b,foosballtable,guitarcase,stapler05,hammer01,toiletpaper01a,cd,garlic01a,carrot01,blankImage,blankImage,blankImage,blankImage,blankImage,blankImage,guitarcase,,,,,,,,,,,,0,1,1,14,,,,,,,,,,,,,,,,,,,,,,,,,,,,,,,,,,,220.2132834000513,221.21651349996682,221.1998433000408,221.77262760000303,221.77262760000303,None,223.1103274000343,None,right,3.0953759000403807,223.1103274000343,None,226.23869669996202,None,left,1.0307727999752387,226.23869669996202,None,,,,,,,,,,,,,,,,,,,,,,,PPT09,001,2022-06-29_10h01.10.225,ABstudy,2022.1.4,59.9584368162001,
AB,Lag1_T1P_T2P,1,P,P,5,6,4,3,9,mail box,Did you see the mail box?,0.12,0.016,JPG\,watermelon01,banana01,ring01,pencil01,mailbox02,stapler04b,cucumber,thermometer02b,key01,blankImage,blankImage,blankImage,blankImage,blankImage,blankImage,blankImage,blankImage,mailbox02,,,,,,,,,,,,0,2,2,21,,,,,,,,,,,,,,,,,,,,,,,,,,,,,,,,,,,227.29446919995826,228.3071855000453,228.2904536999995,228.87786630005576,228.87786630005576,None,230.03107320005074,None,left,1.5981997000053525,230.03107320005074,None,231.6606243000133,None,right,0.6966252001002431,231.6606243000133,None,,,,,,,,,,,,,,,,,,,,,,,PPT09,001,2022-06-29_10h01.10.225,ABstudy,2022.1.4,59.9584368162001,
AB,Lag5_T1P_T2P,5,P,P,5,10,4,5,15,ear,Did you see the ear?,0.12,0.016,JPG\,fork03c,plate01b,toiletpaper01a,greenolive,ear,blueberry01,onion,calculator01,envelope03a,stapler06,book01b,pencil01,sewingmachine01a,brick,watermelon01,blankImage,blankImage,ear,,,,,,,,,,,,0,3,3,107,,,,,,,,,,,,,,,,,,,,,,,,,,,,,,,,,,,232.42454509995878,233.42876090004575,233.41214449994732,233.9819742999971,233.9819742999971,None,235.76782680000179,None,left,1.0529831999447197,235.76782680000179,None,236.84891770000104,None,left,0.4768793999683112,236.84891770000104,None,,,,,,,,,,,,,,,,,,,,,,,PPT09,001,2022-06-29_10h01.10.225,ABstudy,2022.1.4,59.9584368162001,
AB,Lag5_T1P_T2P,5,P,P,8,13,7,4,17,cruise ship,Did you see the cruise ship?,0.12,0.016,JPG\,measuringcup01,dice05a,greenolive,lipstick02a,feather03a,balloon01b,lighter01,cruiseship,carrot01,plate01b,microscope,brick,stapler05,screw02,speaker04,spoon01,blankImage,cruiseship,,,,,,,,,,,,0,4,4,105,,,,,,,,,,,,,,,,,,,,,,,,,,,,,,,,,,,237.3556994999526,238.3673077999847,238.3505223999964,238.94663320004474,238.94663320004474,None,240.9021757999435,None,left,0.8313259000424296,240.9021757999435,None,241.75394339999184,None,left,0.5638412999687716,241.75394339999184,None,,,,,,,,,,,,,,,,,,,,,,,PPT09,001,2022-06-29_10h01.10.225,ABstudy,2022.1.4,59.9584368162001,
AB,Lag5_T1P_T2P,5,P,P,5,10,4,4,14,bell,Did you see the bell?,0.12,0.016,JPG\,teabag,envelope03a,cellphone,apple07,callbell,orange,brownsugar,book01b,hammer01,stapler03b,toaster01,calculator01,globe,battery02b,blankImage,blankImage,blankImage,callbell,,,,,,,,,,,,0,5,5,147,,,,,,,,,,,,,,,,,,,,,,,,,,,,,,,,,,,242.34175549994688,243.3556460000109,243.33902910002507,243.98208740004338,243.90239559998736,None,245.6054604999954,None,left,0.9528104999335483,245.6054604999954,None,246.5757934000576,None,left,0.4215089000063017,246.5757934000576,None,,,,,,,,,,,,,,,,,,,,,,,PPT09,001,2022-06-29_10h01.10.225,ABstudy,2022.1.4,59.9584368162001,
AB,Lag1_T1P_T2A,1,P,A,7,8,6,3,11,walkie talkie,Did you see the walkie talkie?,0.12,0.016,JPG\,teabag,envelope03a,cellphone,apple07,cauliflower01,orange,walkietalkie,book01b,hammer01,feather03a,toaster01,blankImage,blankImage,blankImage,blankImage,blankImage,blankImage,walkietalkie,,,,,,,,,,,,0,6,6,197,,,,,,,,,,,,,,,,,,,,,,,,,,,,,,,,,,,247.03302970004734,248.043400799972,248.0267501999624,248.6020630999701,248.6020630999701,None,250.00088930001948,None,left,1.1806287000654265,250.00088930001948,None,251.21342569997068,None,right,0.4712252999888733,251.21342569997068,None,,,,,,,,,,,,,,,,,,,,,,,PPT09,001,2022-06-29_10h01.10.225,ABstudy,2022.1.4,59.9584368162001,
AB,Lag1_T1A_T2P,1,A,P,7,8,6,3,11,Fox,Did you see the Fox?,0.12,0.016,JPG\,toaster01,chain01,sponge01,baseball01a,carrot01,belt02a,book01b,stapler03b,grape01,brick,celery,blankImage,blankImage,blankImage,blankImage,blankImage,blankImage,fingerprint,,,,,,,,,,,,0,7,7,234,,,,,,,,,,,,,,,,,,,,,,,,,,,,,,,,,,,251.71979540004395,252.73150460002944,252.7150981000159,253.30010750005022,253.30010750005022,None,254.64751879998948,None,right,1.141179300029762,254.64751879998948,None,255.81823229999281,None,right,0.386351199937053,255.81823229999281,None,,,,,,,,,,,,,,,,,,,,,,,PPT09,001,2022-06-29_10h01.10.225,ABstudy,2022.1.4,59.9584368162001,
AB,Lag1_T1A_T2P,1,A,P,7,8,6,3,11,lion,Did you see the lion?,0.12,0.016,JPG\,sock01a,spoon01,alligator,comb02a,printer02,medal02b,lamp04a,stapler01,greenolive,computerkeyboard02,cauliflower01,blankImage,blankImage,blankImage,blankImage,blankImage,blankImage,bullet,,,,,,,,,,,,0,8,8,229,,,,,,,,,,,,,,,,,,,,,,,,,,,,,,,,,,,256.2380970000522,257.2527277000481,257.2193973000394,257.80872970004566,257.80872970004566,None,259.2538365999935,None,right,0.9989705999614671,259.2538365999935,None,260.2726621000329,None,right,3.1080615000100806,260.2726621000329,None,,,,,,,,,,,,,,,,,,,,,,,PPT09,001,2022-06-29_10h01.10.225,ABstudy,2022.1.4,59.9584368162001,
AB,Lag5_T1P_T2A,5,P,A,8,13,7,3,16,Shelves,Did you see the Shelves?,0.12,0.016,JPG\,pineapple01a,leaf02a,grape01,toiletpaper01a,match,tennisball01b,spoon01,shelves,pig,measuringcup01,ring01,lemon02,dice05a,pizza,potato02b,eraser,blankImage,shelves,,,,,,,,,,,,0,9,9,222,,,,,,,,,,,,,,,,,,,,,,,,,,,,,,,,,,,263.4174649999477,264.42641059996095,264.4098565999884,265.026534399949,265.026534399949,None,266.9752497000154,None,left,1.4296132999006659,266.9752497000154,None,268.4307139000157,None,right,0.5515025000786409,268.4307139000157,None,,,,,,,,,,,,,,,,,,,,,,,PPT09,001,2022-06-29_10h01.10.225,ABstudy,2022.1.4,59.9584368162001,
AB,Lag5_T1P_T2P,5,P,P,8,13,7,5,18,Kiwi,Did you see the Kiwi?,0.12,0.016,JPG\,violin,pizza,toothbrush03b,pineapple01a,banana01,ashtray01,candy,kiwi03,clock04,sock01a,microscope,speaker04,stapler04b,sunglasses04,lipstick02a,blueberry01,blankImage,kiwi03,,,,,,,,,,,,0,10,10,111,,,,,,,,,,,,,,,,,,,,,,,,,,,,,,,,,,,269.016982799978,270.0322693999624,269.99840120004956,270.5753440000117,270.5753440000117,None,272.56133139994927,None,left,1.019241499947384,272.56133139994927,None,273.602245499962,None,left,0.3543496000347659,273.602245499962,None,,,,,,,,,,,,,,,,,,,,,,,PPT09,001,2022-06-29_10h01.10.225,ABstudy,2022.1.4,59.9584368162001,
AB,Lag1_T1P_T2P,1,P,P,6,7,5,5,12,bat,Did you see the bat?,0.12,0.016,JPG\,comb02a,key01,medal02b,battery02b,lighter01,bat,stapler05,sandal,pig,cellphone,computerkeyboard02,calculator01,blankImage,blankImage,blankImage,blankImage,blankImage,bat,,,,,,,,,,,,0,11,11,35,,,,,,,,,,,,,,,,,,,,,,,,,,,,,,,,,,,273.9892714000307,275.00376670004334,274.97042649996,275.55996560002677,275.55996560002677,None,277.0833033999661,None,left,0.6893736999481916,277.0833033999661,None,277.78986260003876,None,left,0.33501719997730106,277.78986260003876,None,,,,,,,,,,,,,,,,,,,,,,,PPT09,001,2022-06-29_10h01.10.225,ABstudy,2022.1.4,59.9584368162001,
AB,Lag1_T1P_T2P,1,P,P,8,9,7,5,14,finger print,Did you see the finger print?,0.12,0.016,JPG\,chain01,pen04b,birthdaycandle,watermelon01,broom01,scissors01,measuringcup01,fingerprint,stapler01,calculator01,ashtray01,feather03a,sewingmachine01a,thermometer02b,blankImage,blankImage,blankImage,fingerprint,,,,,,,,,,,,0,12,12,62,,,,,,,,,,,,,,,,,,,,,,,,,,,,,,,,,,,278.16338010004256,279.17487969994545,279.1583536999533,279.7454067999497,279.7454067999497,None,281.4750874999445,None,left,0.609541599988006,281.4750874999445,None,282.1102821000386,None,left,0.2700673999497667,282.1102821000386,None,,,,,,,,,,,,,,,,,,,,,,,PPT09,001,2022-06-29_10h01.10.225,ABstudy,2022.1.4,59.9584368162001,
AB,Lag1_T1P_T2A,1,P,A,7,8,6,5,13,Well,Did you see the Well?,0.12,0.016,JPG\,leaf02a,apple07,cd,pineapple01a,envelope03a,paintbrush01,well,acorn,rice,feather03a,lemon02,balloon01b,avocado01,blankImage,blankImage,blankImage,blankImage,well,,,,,,,,,,,,0,13,13,178,,,,,,,,,,,,,,,,,,,,,,,,,,,,,,,,,,,282.41536270000506,283.4283579000039,283.4116728999652,283.9848718000576,283.9848718000576,None,285.61466299998574,None,left,0.8060304999817163,285.61466299998574,None,286.4483926000539,None,right,0.36427909997291863,286.4483926000539,None,,,,,,,,,,,,,,,,,,,,,,,PPT09,001,2022-06-29_10h01.10.225,ABstudy,2022.1.4,59.9584368162001,
AB,Lag5_T1P_T2A,5,P,A,7,12,6,5,17,corn,Did you see the corn?,0.12,0.016,JPG\,avocado01,pingpongpaddle01c,match,cauliflower01,paintbrush01,clock01a,corn02,cd,balloon01b,cellphone,watch02a,pear01,toaster01,sponge01,orange,blueberry01,blankImage,corn02,,,,,,,,,,,,0,14,14,210,,,,,,,,,,,,,,,,,,,,,,,,,,,,,,,,,,,286.83565250004176,287.8498621999752,287.81647109996993,288.4190612999955,288.4190612999955,None,290.3241749999579,None,left,1.8963685999624431,290.3241749999579,None,292.2376502000261,None,right,0.4875678000971675,292.2376502000261,None,,,,,,,,,,,,,,,,,,,,,,,PPT09,001,2022-06-29_10h01.10.225,ABstudy,2022.1.4,59.9584368162001,
AB,Lag1_T1P_T2A,1,P,A,6,7,5,4,11,bird,Did you see the bird?,0.12,0.016,JPG\,foosballtable,candy,envelope03a,microscope,pencil01,cedarwaxwing,scissors01,watermelon01,grape01,dandelion,pineapple01a,blankImage,blankImage,blankImage,blankImage,blankImage,blankImage,cedarwaxwing,,,,,,,,,,,,0,15,15,182,,,,,,,,,,,,,,,,,,,,,,,,,,,,,,,,,,,292.7551088000182,293.7557347000111,293.73922550003044,294.2395205999492,294.2395205999492,None,295.74799419997726,None,left,0.9130458999425173,295.74799419997726,None,296.69190570001956,None,right,0.39315669995266944,296.69190570001956,None,,,,,,,,,,,,,,,,,,,,,,,PPT09,001,2022-06-29_10h01.10.225,ABstudy,2022.1.4,59.9584368162001,
AB,Lag1_T1P_T2P,1,P,P,8,9,7,4,13,Doughnut,Did you see the Doughnut?,0.12,0.016,JPG\,brick,eraser,cucumber,ashtray01,thermometer02b,binoculars01b,lipstick02a,donut,stapler01,brownsugar,battery02b,iron01b,dice05a,blankImage,blankImage,blankImage,blankImage,donut,,,,,,,,,,,,0,16,16,39,,,,,,,,,,,,,,,,,,,,,,,,,,,,,,,,,,,297.11329739994835,298.1268380000256,298.11022170004435,298.68999690003693,298.68999690003693,None,300.24582119996194,None,left,0.8471095999702811,300.24582119996194,None,301.1124836000381,None,right,0.8126747999340296,301.1124836000381,None,,,,,,,,,,,,,,,,,,,,,,,PPT09,001,2022-06-29_10h01.10.225,ABstudy,2022.1.4,59.9584368162001,
AB,Lag5_T1P_T2P,5,P,P,8,13,7,3,16,church,Did you see the church?,0.12,0.016,JPG\,clock01a,cellphone,toaster01,toothbrush03b,cauliflower01,microscope,comb02a,church,scarf,clock04,sponge01,iron01b,stapler06,celery,ring01,ashtray01,blankImage,church,,,,,,,,,,,,0,17,17,129,,,,,,,,,,,,,,,,,,,,,,,,,,,,,,,,,,,301.9511846000096,302.9650180999888,302.9482724999543,303.5248610000126,303.5248610000126,None,305.45203849999234,None,left,0.7362487999489531,305.45203849999234,None,306.217606500024,None,left,0.35514519992284477,306.217606500024,None,,,,,,,,,,,,,,,,,,,,,,,PPT09,001,2022-06-29_10h01.10.225,ABstudy,2022.1.4,59.9584368162001,
AB,Lag1_T1P_T2P,1,P,P,8,9,7,5,14,Waterfall,Did you see the Waterfall?,0.12,0.016,JPG\,pizza,watch02a,greenolive,cucumber,match,violin,scissors01,waterfall,stapler03a,cherry01,ring01,cigarette,microscope,cellphone,blankImage,blankImage,blankImage,waterfall,,,,,,,,,,,,0,18,18,52,,,,,,,,,,,,,,,,,,,,,,,,,,,,,,,,,,,306.6062849999871,307.61938249995,307.602985000005,308.1830388000235,308.1830388000235,None,309.8999118000502,None,left,1.192451599985361,309.8999118000502,None,311.12277919996995,None,left,0.3294524000957608,311.12277919996995,None,,,,,,,,,,,,,,,,,,,,,,,PPT09,001,2022-06-29_10h01.10.225,ABstudy,2022.1.4,59.9584368162001,
AB,Lag1_T1P_T2A,1,P,A,5,6,4,4,10,flower,Did you see the flower?,0.12,0.016,JPG\,broom01,globe,cellphone,tableknife02,daffodil,scissors01,ring01,alligator,rice,toaster01,blankImage,blankImage,blankImage,blankImage,blankImage,blankImage,blankImage,daffodil,,,,,,,,,,,,0,19,19,184,,,,,,,,,,,,,,,,,,,,,,,,,,,,,,,,,,,311.4755724000279,312.4907326999819,312.4574043999892,313.02479589998256,313.02479589998256,None,314.3195779999951,None,left,0.8606342999264598,314.3195779999951,None,315.2099018000299,None,right,0.41053189989179373,315.2099018000299,None,,,,,,,,,,,,,,,,,,,,,,,PPT09,001,2022-06-29_10h01.10.225,ABstudy,2022.1.4,59.9584368162001,
AB,Lag5_T1P_T2P,5,P,P,6,11,5,4,15,shovel,Did you see the shovel?,0.12,0.016,JPG\,carrot01,watch02a,clock04,microscope,toiletpaper01a,shovel01,alligator,ring01,brick,watermelon01,stapler03b,pencil01,measuringcup01,balloon01b,computerkeyboard02,blankImage,blankImage,shovel01,,,,,,,,,,,,0,20,20,139,,,,,,,,,,,,,,,,,,,,,,,,,,,,,,,,,,,315.6483253999613,316.6618570999708,316.6450656000525,317.2427323999582,317.2427323999582,None,319.01248080004007,None,left,0.8243229000363499,319.01248080004007,None,319.8650021000067,None,right,0.3330535999266431,319.8650021000067,None,,,,,,,,,,,,,,,,,,,,,,,PPT09,001,2022-06-29_10h01.10.225,ABstudy,2022.1.4,59.9584368162001,
AB,Lag1_T1P_T2P,1,P,P,6,7,5,4,11,American football,Did you see the American football?,0.12,0.016,JPG\,toaster01,garlic01a,faucet,fan,comb02a,football,stapler06,watch02a,onion,blueberry01,toiletpaper01a,blankImage,blankImage,blankImage,blankImage,blankImage,blankImage,football,,,,,,,,,,,,0,21,21,12,,,,,,,,,,,,,,,,,,,,,,,,,,,,,,,,,,,320.2270393000217,321.23312989994884,321.21634909999557,321.7892443999881,321.7892443999881,None,323.17814460000955,None,left,0.9947795000625774,323.17814460000955,None,324.20336090005003,None,left,0.3693834999576211,324.20336090005003,None,,,,,,,,,,,,,,,,,,,,,,,PPT09,001,2022-06-29_10h01.10.225,ABstudy,2022.1.4,59.9584368162001,
AB,Lag1_T1A_T2A,1,A,A,5,6,4,4,10,rose,Did you see the rose?,0.12,0.016,JPG\,sock01a,spoon01,alligator,comb02a,printer02,medal02b,lamp04a,cymbal,greenolive,computerkeyboard02,blankImage,blankImage,blankImage,blankImage,blankImage,blankImage,blankImage,cruiseship,,,,,,,,,,,,0,22,22,293,,,,,,,,,,,,,,,,,,,,,,,,,,,,,,,,,,,324.60517390002497,325.620553500019,325.58716790005565,326.1717987000011,326.1717987000011,None,327.3909869999625,None,right,0.9271278999513015,327.3909869999625,None,328.3400147999637,None,right,0.7860559000400826,328.3400147999637,None,,,,,,,,,,,,,,,,,,,,,,,PPT09,001,2022-06-29_10h01.10.225,ABstudy,2022.1.4,59.9584368162001,
AB,Lag5_T1P_T2A,5,P,A,7,12,6,3,15,Toy soldier,Did you see the Toy soldier?,0.12,0.016,JPG\,binoculars01b,cymbal,pizza,candy,paintbrush01,sponge01,toysoldier01b,thermometer02b,speaker04,lemon02,lipstick02a,strawberry,candle01,acorn,plate01b,blankImage,blankImage,toysoldier01b,,,,,,,,,,,,0,23,23,203,,,,,,,,,,,,,,,,,,,,,,,,,,,,,,,,,,,329.16282930003945,330.17526990000624,330.1587281000102,330.74627680005506,330.74627680005506,None,332.54706480004825,None,left,0.8810857000062242,332.54706480004825,None,333.44519650004804,None,right,0.4709284999407828,333.44519650004804,None,,,,,,,,,,,,,,,,,,,,,,,PPT09,001,2022-06-29_10h01.10.225,ABstudy,2022.1.4,59.9584368162001,
AB,Lag1_T1P_T2A,1,P,A,5,6,4,5,11,Electric toothbrush,Did you see the Electric toothbrush?,0.12,0.016,JPG\,carrot01,greenolive,fork03c,chain01,electrictoothbrush01c,watermelon01,tableknife02,printer02,comb02a,toaster01,orange,blankImage,blankImage,blankImage,blankImage,blankImage,blankImage,electrictoothbrush01c,,,,,,,,,,,,0,24,24,186,,,,,,,,,,,,,,,,,,,,,,,,,,,,,,,,,,,333.9499834999442,334.9633348999778,334.9466883999994,335.5231240000576,335.5231240000576,None,336.9265641999664,None,left,1.1181492001051083,336.9265641999664,None,338.0663864000235,None,right,0.4268377999542281,338.0663864000235,None,,,,,,,,,,,,,,,,,,,,,,,PPT09,001,2022-06-29_10h01.10.225,ABstudy,2022.1.4,59.9584368162001,
AB,Lag5_T1A_T2A,5,A,A,5,10,4,5,15,truck,Did you see the truck?,0.12,0.016,JPG\,pizza,printer02,medal02b,spoon01,grape01,lighter01,belt02a,watermelon01,celery,battery02b,screw02,comb02a,cauliflower01,lipstick02a,potato02b,blankImage,blankImage,postalmailbox01,,,,,,,,,,,,0,25,25,297,,,,,,,,,,,,,,,,,,,,,,,,,,,,,,,,,,,338.5222881999798,339.53456930001266,339.5178444000194,340.1124660000205,340.1124660000205,None,341.913239800022,None,right,1.3796009999932721,341.913239800022,None,343.3215891000582,None,right,0.6833250999916345,343.3215891000582,None,,,,,,,,,,,,,,,,,,,,,,,PPT09,001,2022-06-29_10h01.10.225,ABstudy,2022.1.4,59.9584368162001,
AB,Lag5_T1P_T2P,5,P,P,8,13,7,5,18,sock,Did you see the sock?,0.12,0.016,JPG\,thermometer02b,avocado01,scissors01,tennisball01b,medal02b,banana01,strawberry,athleticsock,potato02b,pineapple01a,microscope,cymbal,stapler03b,celery,garlic01a,sunglasses04,blankImage,athleticsock,,,,,,,,,,,,0,26,26,141,,,,,,,,,,,,,,,,,,,,,,,,,,,,,,,,,,,344.0267882000189,345.04001190001145,345.023268799996,345.61468520003837,345.61468520003837,None,347.59204440005124,None,left,0.6041014000074938,347.59204440005124,None,348.22791859996505,None,left,0.3366321000503376,348.22791859996505,None,,,,,,,,,,,,,,,,,,,,,,,PPT09,001,2022-06-29_10h01.10.225,ABstudy,2022.1.4,59.9584368162001,
AB,Lag1_T1P_T2A,1,P,A,6,7,5,5,12,Barn,Did you see the Barn?,0.12,0.016,JPG\,celery,pencil01,fan,foosballtable,iron01b,barn,potato02b,fork03c,button01,pineapple01a,baseball01a,printer02,blankImage,blankImage,blankImage,blankImage,blankImage,barn,,,,,,,,,,,,0,27,27,181,,,,,,,,,,,,,,,,,,,,,,,,,,,,,,,,,,,348.60251710005105,349.6113067000406,349.5947106999811,350.1631714999676,350.1631714999676,None,351.6395026999526,None,left,1.293908999999985,351.6395026999526,None,352.96441210003104,None,left,0.4080040999688208,352.96441210003104,None,,,,,,,,,,,,,,,,,,,,,,,PPT09,001,2022-06-29_10h01.10.225,ABstudy,2022.1.4,59.9584368162001,
AB,Lag5_T1P_T2P,5,P,P,5,10,4,3,13,Rabbit,Did you see the Rabbit?,0.12,0.016,JPG\,celery,tennisball01b,calculator01,pear01,jackrabbit,orange,button01,cellphone,onion,stapler06,iron01b,brownsugar,banana01,blankImage,blankImage,blankImage,blankImage,jackrabbit,,,,,,,,,,,,0,28,28,90,,,,,,,,,,,,,,,,,,,,,,,,,,,,,,,,,,,353.40289390005637,354.4156738000456,354.3989411999937,354.9689503000118,354.9689503000118,None,356.56817089999095,None,left,0.6603992999298498,356.56817089999095,None,357.25354960002005,None,left,0.3356902999803424,357.25354960002005,None,,,,,,,,,,,,,,,,,,,,,,,PPT09,001,2022-06-29_10h01.10.225,ABstudy,2022.1.4,59.9584368162001,
AB,Lag1_T1P_T2P,1,P,P,8,9,7,3,12,zebra,Did you see the zebra?,0.12,0.016,JPG\,apple07,toiletpaper01a,pizza,dandelion,greenolive,eraser,microscope,zebra,stapler03b,lipstick02a,balloon01b,sandal,blankImage,blankImage,blankImage,blankImage,blankImage,zebra,,,,,,,,,,,,0,29,29,28,,,,,,,,,,,,,,,,,,,,,,,,,,,,,,,,,,,357.63486150000244,358.63669009995647,358.6200893999776,359.2146344999783,359.2146344999783,None,360.64306899998337,None,left,0.7056902999756858,360.64306899998337,None,361.37272330000997,None,left,0.40812919999007136,361.37272330000997,None,,,,,,,,,,,,,,,,,,,,,,,PPT09,001,2022-06-29_10h01.10.225,ABstudy,2022.1.4,59.9584368162001,
AB,Lag5_T1P_T2P,5,P,P,7,12,6,3,15,marble,Did you see the marble?,0.12,0.016,JPG\,cigarette,ashtray01,envelope03a,sandal,chain01,cucumber,marble,tomato01,dandelion,candle01,lemon02,stapler03b,potato02b,cymbal,clock01a,blankImage,blankImage,marble,,,,,,,,,,,,0,30,30,146,,,,,,,,,,,,,,,,,,,,,,,,,,,,,,,,,,,361.8654150000075,362.87426039995626,362.84090279997326,363.42338249995373,363.42338249995373,None,365.24603769998066,None,right,1.6459767000051215,365.24603769998066,None,366.9115243999986,None,right,2.5977252000011504,366.9115243999986,None,,,,,,,,,,,,,,,,,,,,,,,PPT09,001,2022-06-29_10h01.10.225,ABstudy,2022.1.4,59.9584368162001,
AB,Lag1_T1P_T2P,1,P,P,6,7,5,3,10,jelly beans,Did you see the jelly beans?,0.12,0.016,JPG\,lipstick02a,cucumber,candle08b,printer02,grape01,jellybean,stapler01,lighter01,belt02a,balloon01b,blankImage,blankImage,blankImage,blankImage,blankImage,blankImage,blankImage,jellybean,,,,,,,,,,,,0,31,31,15,,,,,,,,,,,,,,,,,,,,,,,,,,,,,,,,,,,369.536180300056,370.54856180003844,370.5318431999767,371.101996100042,371.101996100042,None,372.3756656999467,None,left,1.0612421000842005,372.3756656999467,None,373.46844249998685,None,left,0.3035058999666944,373.46844249998685,None,,,,,,,,,,,,,,,,,,,,,,,PPT09,001,2022-06-29_10h01.10.225,ABstudy,2022.1.4,59.9584368162001,
AB,Lag1_T1P_T2A,1,P,A,5,6,4,4,10,bird,Did you see the bird?,0.12,0.016,JPG\,toaster01,scarf,toiletpaper01a,calculator01,swallow,sewingmachine01a,fan,teabag,strawberry,balloon01b,blankImage,blankImage,blankImage,blankImage,blankImage,blankImage,blankImage,swallow,,,,,,,,,,,,0,32,32,195,,,,,,,,,,,,,,,,,,,,,,,,,,,,,,,,,,,373.80627589998767,374.81922940001823,374.8026242000051,375.40037629997823,375.40037629997823,None,376.628293100046,None,left,0.7837863001041114,376.628293100046,None,377.43901109998114,None,right,0.39711529994383454,377.43901109998114,None,,,,,,,,,,,,,,,,,,,,,,,PPT09,001,2022-06-29_10h01.10.225,ABstudy,2022.1.4,59.9584368162001,
AB,Lag5_T1P_T2P,5,P,P,6,11,5,3,14,fish,Did you see the fish?,0.12,0.016,JPG\,broom01,globe,cellphone,tableknife02,cauliflower01,holdfast,ring01,alligator,rice,toaster01,stapler03b,grape01,microscope,cucumber,blankImage,blankImage,blankImage,holdfast,,,,,,,,,,,,0,33,33,133,,,,,,,,,,,,,,,,,,,,,,,,,,,,,,,,,,,377.86052570003085,378.8735145999817,378.85679750004783,379.4510942000197,379.4510942000197,None,381.23027069994714,None,left,0.8862425000406802,381.23027069994714,None,382.14359089999925,None,right,0.325172399985604,382.14359089999925,None,,,,,,,,,,,,,,,,,,,,,,,PPT09,001,2022-06-29_10h01.10.225,ABstudy,2022.1.4,59.9584368162001,
AB,Lag5_T1P_T2P,5,P,P,5,10,4,5,15,funnel,Did you see the funnel?,0.12,0.016,JPG\,pineapple01a,tennisball01b,computerkeyboard02,feather03a,funnel,acorn,violin,blueberry01,medal02b,stapler01,greenolive,screwdriver04b,potato02b,fork03c,cymbal,blankImage,blankImage,funnel,,,,,,,,,,,,0,34,34,109,,,,,,,,,,,,,,,,,,,,,,,,,,,,,,,,,,,382.49823360005394,383.5117355999537,383.4951154999435,384.0783299000468,384.0783299000468,None,385.8142572999932,None,right,0.8223919000010937,385.8142572999932,None,386.66475680004805,None,right,0.7955406000837684,386.66475680004805,None,,,,,,,,,,,,,,,,,,,,,,,PPT09,001,2022-06-29_10h01.10.225,ABstudy,2022.1.4,59.9584368162001,
AB,Lag1_T1A_T2A,1,A,A,7,8,6,5,13,Poker chips,Did you see the Poker chips?,0.12,0.016,JPG\,violin,pizza,toothbrush03b,pineapple01a,banana01,ashtray01,candy,dandelion,clock04,sock01a,microscope,speaker04,calculator01,blankImage,blankImage,blankImage,blankImage,cigar,,,,,,,,,,,,0,35,35,289,,,,,,,,,,,,,,,,,,,,,,,,,,,,,,,,,,,387.5252708999906,388.53338489995804,388.4999695000006,389.09254320000764,389.09254320000764,None,390.6352631000336,None,right,0.8569934000261128,390.6352631000336,None,391.51959419995546,None,right,0.9322999999858439,391.51959419995546,None,,,,,,,,,,,,,,,,,,,,,,,PPT09,001,2022-06-29_10h01.10.225,ABstudy,2022.1.4,59.9584368162001,
AB,Lag1_T1P_T2P,1,P,P,5,6,4,4,10,Ladybug,Did you see the Ladybug?,0.12,0.016,JPG\,key01,apple07,ring01,leaf02a,ladybug03,stapler04b,violin,sponge01,baseball01a,thermometer02b,blankImage,blankImage,blankImage,blankImage,blankImage,blankImage,blankImage,ladybug03,,,,,,,,,,,,0,36,36,65,,,,,,,,,,,,,,,,,,,,,,,,,,,,,,,,,,,392.4792638999643,393.4882521999534,393.47150770004373,394.05888290004805,394.05888290004805,None,395.36102479998954,None,left,1.219097699970007,395.36102479998954,None,396.6080496000359,None,right,0.5171071999939159,396.6080496000359,None,,,,,,,,,,,,,,,,,,,,,,,PPT09,001,2022-06-29_10h01.10.225,ABstudy,2022.1.4,59.9584368162001,
AB,Lag1_T1P_T2P,1,P,P,5,6,4,5,11,shark,Did you see the shark?,0.12,0.016,JPG\,cucumber,sponge01,alligator,pear01,greatwhiteshark,stapler06,clock04,battery02b,fork03c,binoculars01b,mushroom01,blankImage,blankImage,blankImage,blankImage,blankImage,blankImage,greatwhiteshark,,,,,,,,,,,,0,37,37,84,,,,,,,,,,,,,,,,,,,,,,,,,,,,,,,,,,,397.14972139999736,398.1597255000379,398.1428945000516,398.76579820003826,398.76579820003826,None,400.0329206000315,None,left,0.8195160001050681,400.0329206000315,None,400.8791238999693,None,left,0.3972928000148386,400.8791238999693,None,,,,,,,,,,,,,,,,,,,,,,,PPT09,001,2022-06-29_10h01.10.225,ABstudy,2022.1.4,59.9584368162001,
AB,Lag1_T1P_T2P,1,P,P,8,9,7,5,14,bullet,Did you see the bullet?,0.12,0.016,JPG\,measuringcup01,dice05a,greenolive,lipstick02a,feather03a,balloon01b,lighter01,bullet,stapler04b,plate01b,microscope,brick,thermometer02b,screw02,blankImage,blankImage,blankImage,bullet,,,,,,,,,,,,0,38,38,57,,,,,,,,,,,,,,,,,,,,,,,,,,,,,,,,,,,401.30154180002864,402.3137808999745,402.29711030004546,402.90007099998184,402.90007099998184,None,404.65952690003905,None,left,0.7611582999816164,404.65952690003905,None,405.45011880004313,None,right,0.3865497000515461,405.45011880004313,None,,,,,,,,,,,,,,,,,,,,,,,PPT09,001,2022-06-29_10h01.10.225,ABstudy,2022.1.4,59.9584368162001,
AB,Lag1_T1P_T2P,1,P,P,6,7,5,4,11,bowling pin,Did you see the bowling pin?,0.12,0.016,JPG\,strawberry,leaf02a,clock04,candle01,avocado01,bowlingpin,stapler03a,brownsugar,ring01,lemon02,fork03c,blankImage,blankImage,blankImage,blankImage,blankImage,blankImage,bowlingpin,,,,,,,,,,,,0,39,39,8,,,,,,,,,,,,,,,,,,,,,,,,,,,,,,,,,,,405.87381000001915,406.88492850004695,406.8681096000364,407.46282250003424,407.46282250003424,None,408.75608820002526,None,left,0.8093189999926835,408.75608820002526,None,409.5875652000541,None,left,0.5765301000792533,409.5875652000541,None,,,,,,,,,,,,,,,,,,,,,,,PPT09,001,2022-06-29_10h01.10.225,ABstudy,2022.1.4,59.9584368162001,
AB,Lag1_T1P_T2P,1,P,P,6,7,5,3,10,drum sticks,Did you see the drum sticks?,0.12,0.016,JPG\,pineapple01a,tennisball01b,computerkeyboard02,feather03a,belt02a,drumstick,stapler03b,blueberry01,medal02b,alligator,blankImage,blankImage,blankImage,blankImage,blankImage,blankImage,blankImage,drumstick,,,,,,,,,,,,0,40,40,61,,,,,,,,,,,,,,,,,,,,,,,,,,,,,,,,,,,410.1903918000171,411.20544879999943,411.17210359999444,411.7536805999698,411.7536805999698,None,412.890846000053,None,left,0.7132748999865726,412.890846000053,None,413.62468040001113,None,left,0.45169460005126894,413.62468040001113,None,,,,,,,,,,,,,,,,,,,,,,,PPT09,001,2022-06-29_10h01.10.225,ABstudy,2022.1.4,59.9584368162001,
AB,Lag1_T1A_T2P,1,A,P,8,9,7,4,13,Christmas tree,Did you see the Christmas tree?,0.12,0.016,JPG\,broom01,globe,cellphone,tableknife02,cauliflower01,scissors01,ring01,alligator,stapler03a,toaster01,cigarette,grape01,microscope,blankImage,blankImage,blankImage,blankImage,windmill,,,,,,,,,,,,0,41,41,247,,,,,,,,,,,,,,,,,,,,,,,,,,,,,,,,,,,414.1142320999643,415.1265401999699,415.1097373999655,415.7031149000395,415.7031149000395,None,417.27339780004695,None,right,1.219505799934268,417.27339780004695,None,418.5131218000315,None,left,0.4669932998949662,418.5131218000315,None,,,,,,,,,,,,,,,,,,,,,,,PPT09,001,2022-06-29_10h01.10.225,ABstudy,2022.1.4,59.9584368162001,
AB,Lag5_T1P_T2A,5,P,A,8,13,7,4,17,Drum set,Did you see the Drum set?,0.12,0.016,JPG\,pencil01,microscope,banana01,computerkeyboard02,celery,cellphone,scissors01,drumset,book01b,onion,dice05a,binoculars01b,baseball01a,iron01b,screw02,fork03c,blankImage,drumset,,,,,,,,,,,,0,42,42,212,,,,,,,,,,,,,,,,,,,,,,,,,,,,,,,,,,,419.0013037000317,420.0146306999959,419.9978742999956,420.58053260005545,420.58053260005545,None,422.4956809000578,None,left,0.9895747000118718,422.4956809000578,None,423.50276930001564,None,right,0.37350929994136095,423.50276930001564,None,,,,,,,,,,,,,,,,,,,,,,,PPT09,001,2022-06-29_10h01.10.225,ABstudy,2022.1.4,59.9584368162001,
AB,Lag1_T1A_T2P,1,A,P,6,7,5,5,12,Ostrich,Did you see the Ostrich?,0.12,0.016,JPG\,thermometer02b,candle08b,comb02a,toothbrush03b,brick,computerkeyboard02,stapler05,pineapple01a,candy,birthdaycandle,clock04,hairclip03,blankImage,blankImage,blankImage,blankImage,blankImage,discoball,,,,,,,,,,,,0,43,43,232,,,,,,,,,,,,,,,,,,,,,,,,,,,,,,,,,,,423.90696499997284,424.9192600999959,424.90263799997047,425.4780328000197,425.4780328000197,None,426.93770140002016,None,right,1.1146798999980092,426.93770140002016,None,428.0724726000335,None,right,1.6676976999733597,428.0724726000335,None,,,,,,,,,,,,,,,,,,,,,,,PPT09,001,2022-06-29_10h01.10.225,ABstudy,2022.1.4,59.9584368162001,
AB,Lag5_T1A_T2P,5,A,P,5,10,4,3,13,License Plate,Did you see the License Plate?,0.12,0.016,JPG\,tomato01,pen04b,shirt02,carrot01,lamp04a,key01,pizza,avocado01,sewingmachine01a,stapler06,iron01b,book01b,chain01,blankImage,blankImage,blankImage,blankImage,porcupine,,,,,,,,,,,,0,44,44,270,,,,,,,,,,,,,,,,,,,,,,,,,,,,,,,,,,,429.8079025000334,430.80871500005014,430.7920790000353,431.3637235000497,431.3637235000497,None,432.9312694000546,None,right,1.0103479999816045,432.9312694000546,None,433.9629418000113,None,left,0.7376747999805957,433.9629418000113,None,,,,,,,,,,,,,,,,,,,,,,,PPT09,001,2022-06-29_10h01.10.225,ABstudy,2022.1.4,59.9584368162001,
AB,Lag5_T1P_T2P,5,P,P,7,12,6,4,16,Fireplace,Did you see the Fireplace?,0.12,0.016,JPG\,printer02,leaf02a,cauliflower01,sock01a,brownsugar,paintbrush01,fireplace,orange,belt02a,shirt02,key01,stapler01,cigarette,scissors01,envelope03a,blueberry01,blankImage,fireplace,,,,,,,,,,,,0,45,45,88,,,,,,,,,,,,,,,,,,,,,,,,,,,,,,,,,,,434.7326543000527,435.7468083000276,435.7300838000374,436.3832286000252,436.30147059995215,None,438.34130700002424,None,left,1.3428186998935416,438.34130700002424,None,439.70088150002994,None,left,0.43125100003089756,439.70088150002994,None,,,,,,,,,,,,,,,,,,,,,,,PPT09,001,2022-06-29_10h01.10.225,ABstudy,2022.1.4,59.9584368162001,
AB,Lag1_T1A_T2P,1,A,P,5,6,4,3,9,barrel,Did you see the barrel?,0.12,0.016,JPG\,clock01a,cellphone,toaster01,toothbrush03b,cauliflower01,stapler01,comb02a,paintbrush01,scarf,blankImage,blankImage,blankImage,blankImage,blankImage,blankImage,blankImage,blankImage,sheep,,,,,,,,,,,,0,46,46,243,,,,,,,,,,,,,,,,,,,,,,,,,,,,,,,,,,,440.1556967999786,441.16906800004654,441.15237929997966,441.7282331000315,441.7282331000315,None,442.8278776999796,None,right,0.9766379999928176,442.8278776999796,None,443.8215987000149,None,right,1.3025622999994084,443.8215987000149,None,,,,,,,,,,,,,,,,,,,,,,,PPT09,001,2022-06-29_10h01.10.225,ABstudy,2022.1.4,59.9584368162001,
AB,Lag1_T1P_T2P,1,P,P,5,6,4,3,9,elephant,Did you see the elephant?,0.12,0.016,JPG\,celery,brownsugar,key01,sunglasses04,arugula,stapler04b,dice05a,tennisball01b,scarf,blankImage,blankImage,blankImage,blankImage,blankImage,blankImage,blankImage,blankImage,arugula,,,,,,,,,,,,0,47,47,54,,,,,,,,,,,,,,,,,,,,,,,,,,,,,,,,,,,445.1612123999512,446.17389159998856,446.1572398999706,446.74285230005626,446.74285230005626,None,447.8374567000428,None,right,1.5901636999333277,447.8374567000428,None,449.4603326000506,None,right,1.0008672999683768,449.4603326000506,None,,,,,,,,,,,,,,,,,,,,,,,PPT09,001,2022-06-29_10h01.10.225,ABstudy,2022.1.4,59.9584368162001,
AB,Lag1_T1P_T2P,1,P,P,6,7,5,3,10,handcuffs,Did you see the handcuffs?,0.12,0.016,JPG\,sewingmachine01a,scarf,carrot01,book01b,eraser,handcuffs,stapler05,lipstick02a,printer02,garlic01a,blankImage,blankImage,blankImage,blankImage,blankImage,blankImage,blankImage,handcuffs,,,,,,,,,,,,0,48,48,2,,,,,,,,,,,,,,,,,,,,,,,,,,,,,,,,,,,450.5274381999625,451.529280000017,451.5125163999619,452.1031141000567,452.1031141000567,None,453.3292875000043,None,left,0.8025955999037251,453.3292875000043,None,454.14891530002933,None,left,0.41551330010406673,454.14891530002933,None,,,,,,,,,,,,,,,,,,,,,,,PPT09,001,2022-06-29_10h01.10.225,ABstudy,2022.1.4,59.9584368162001,
AB,Lag5_T1A_T2A,5,A,A,7,12,6,4,16,boxing glove,Did you see the boxing glove?,0.12,0.016,JPG\,cherry01,cymbal,envelope03a,foosballtable,shirt02,cellphone,sewingmachine01a,candle08b,battery02b,apple07,pencil01,screwdriver04b,strawberry,sunglasses04,feather03a,rice,blankImage,lollipop04,,,,,,,,,,,,0,49,49,296,,,,,,,,,,,,,,,,,,,,,,,,,,,,,,,,,,,454.58339130005334,455.5834247999592,455.56659499998204,456.13990399998147,456.13990399998147,None,458.1498728999868,None,right,0.8462184999370947,458.1498728999868,None,459.0198719999753,None,right,1.2798551000887528,459.0198719999753,None,,,,,,,,,,,,,,,,,,,,,,,PPT09,001,2022-06-29_10h01.10.225,ABstudy,2022.1.4,59.9584368162001,
AB,Lag5_T1P_T2P,5,P,P,6,11,5,5,16,keys,Did you see the keys?,0.12,0.016,JPG\,toiletpaper01a,mushroom01,medal02b,sandal,rice,foldingchair,feather03a,pizza,candle08b,garlic01a,stapler01,belt02a,cigarette,violin,lemon02,fork03c,blankImage,foldingchair,,,,,,,,,,,,0,50,50,125,,,,,,,,,,,,,,,,,,,,,,,,,,,,,,,,,,,460.3233504999662,461.33883719996084,461.30547699995805,461.8971671999898,461.8971671999898,None,463.8475529999705,None,right,2.164124900009483,463.8475529999705,None,466.04370110004675,None,left,0.4480609999736771,466.04370110004675,None,,,,,,,,,,,,,,,,,,,,,,,PPT09,001,2022-06-29_10h01.10.225,ABstudy,2022.1.4,59.9584368162001,
AB,Lag5_T1P_T2P,5,P,P,8,13,7,5,18,pipe,Did you see the pipe?,0.12,0.016,JPG\,scissors01,ashtray01,garlic01a,medal02b,cigarette,candle08b,leaf02a,smokingpipe,cucumber,rice,toiletpaper01a,greenolive,stapler01,cellphone,tableknife02,spoon01,blankImage,smokingpipe,,,,,,,,,,,,0,51,51,138,,,,,,,,,,,,,,,,,,,,,,,,,,,,,,,,,,,466.5163963000523,467.52854570001364,467.51187799999025,468.097786600003,468.097786600003,None,470.03960050002206,None,left,0.9800564999459311,470.03960050002206,None,471.0486438999651,None,right,0.4593876999570057,471.0486438999651,None,,,,,,,,,,,,,,,,,,,,,,,PPT09,001,2022-06-29_10h01.10.225,ABstudy,2022.1.4,59.9584368162001,
AB,Lag1_T1P_T2P,1,P,P,6,7,5,4,11,no parking sign,Did you see the no parking sign?,0.12,0.016,JPG\,fork03c,belt02a,grape01,computerkeyboard02,lemon02,parkingsign,stapler05,toiletpaper01a,toaster01,lipstick02a,book01b,blankImage,blankImage,blankImage,blankImage,blankImage,blankImage,parkingsign,,,,,,,,,,,,0,52,52,47,,,,,,,,,,,,,,,,,,,,,,,,,,,,,,,,,,,471.5403826000402,472.5501749999821,472.53346559999045,473.096603199956,473.096603199956,None,474.4778196000261,None,left,1.0783548000035807,474.4778196000261,None,475.5863874000497,None,right,0.4577917999122292,475.5863874000497,None,,,,,,,,,,,,,,,,,,,,,,,PPT09,001,2022-06-29_10h01.10.225,ABstudy,2022.1.4,59.9584368162001,
AB,Lag1_T1A_T2P,1,A,P,8,9,7,4,13,Toolbox,Did you see the Toolbox?,0.12,0.016,JPG\,pizza,printer02,medal02b,spoon01,grape01,lighter01,belt02a,watermelon01,stapler03b,battery02b,screw02,comb02a,cauliflower01,blankImage,blankImage,blankImage,blankImage,ladybug03,,,,,,,,,,,,0,53,53,237,,,,,,,,,,,,,,,,,,,,,,,,,,,,,,,,,,,476.07351330004167,477.08815279998817,477.0547855000477,477.639173100004,477.639173100004,None,479.2179906000383,None,right,1.2352797000203282,479.2179906000383,None,480.47466539999004,None,right,0.34557270002551377,480.47466539999004,None,,,,,,,,,,,,,,,,,,,,,,,PPT09,001,2022-06-29_10h01.10.225,ABstudy,2022.1.4,59.9584368162001,
AB,Lag5_T1A_T2P,5,A,P,8,13,7,5,18,lollipop,Did you see the lollipop?,0.12,0.016,JPG\,watermelon01,banana01,ring01,pencil01,tomato01,speaker04,cucumber,thermometer02b,key01,foosballtable,violin,spoon01,stapler04b,dice05a,pen04b,mushroom01,blankImage,jeans01,,,,,,,,,,,,0,54,54,262,,,,,,,,,,,,,,,,,,,,,,,,,,,,,,,,,,,480.84731149999425,481.85948510002345,481.8428136999719,482.42371849995106,482.42371849995106,None,484.40907099994365,None,right,0.8029281999915838,484.40907099994365,None,485.23077010002453,None,right,0.7813975000753999,485.23077010002453,None,,,,,,,,,,,,,,,,,,,,,,,PPT09,001,2022-06-29_10h01.10.225,ABstudy,2022.1.4,59.9584368162001,
AB,Lag5_T1P_T2P,5,P,P,6,11,5,4,15,punching bag,Did you see the punching bag?,0.12,0.016,JPG\,foosballtable,cigarette,pen04b,birthdaycandle,hammer01,punchingbag,binoculars01b,chain01,potato02b,cauliflower01,stapler04b,ashtray01,scarf,cellphone,calculator01,blankImage,blankImage,punchingbag,,,,,,,,,,,,0,55,55,156,,,,,,,,,,,,,,,,,,,,,,,,,,,,,,,,,,,486.0914258999983,487.0979620999424,487.08126709994394,487.581799400039,487.581799400039,None,489.41601469996385,None,left,1.155792300007306,489.41601469996385,None,490.60155050002504,None,left,0.435280799982138,490.60155050002504,None,,,,,,,,,,,,,,,,,,,,,,,PPT09,001,2022-06-29_10h01.10.225,ABstudy,2022.1.4,59.9584368162001,
AB,Lag5_T1A_T2P,5,A,P,5,10,4,5,15,parachute,Did you see the parachute?,0.12,0.016,JPG\,binoculars01b,speaker04,sandal,envelope03a,plate01b,comb02a,battery02b,chain01,measuringcup01,stapler03b,medal02b,lamp04a,tennisball01b,pizza,cigarette,blankImage,blankImage,knee,,,,,,,,,,,,0,56,56,264,,,,,,,,,,,,,,,,,,,,,,,,,,,,,,,,,,,491.0754055000143,492.0866642999463,492.06950390001293,492.66652420000173,492.66652420000173,None,494.51183269999456,None,right,1.589527599979192,494.51183269999456,None,496.1236006000545,None,right,0.6401295000687242,496.1236006000545,None,,,,,,,,,,,,,,,,,,,,,,,PPT09,001,2022-06-29_10h01.10.225,ABstudy,2022.1.4,59.9584368162001,
AB,Lag1_T1P_T2P,1,P,P,6,7,5,3,10,spider web,Did you see the spider web?,0.12,0.016,JPG\,toaster01,chain01,sponge01,baseball01a,carrot01,spiderweb,stapler03b,iron01b,grape01,brick,blankImage,blankImage,blankImage,blankImage,blankImage,blankImage,blankImage,spiderweb,,,,,,,,,,,,0,57,57,72,,,,,,,,,,,,,,,,,,,,,,,,,,,,,,,,,,,496.79710460000206,497.8088010000065,497.7920135000022,498.3714209999889,498.3714209999889,None,499.57840020000003,None,left,0.7378701999550685,499.57840020000003,None,500.3443408999592,None,left,0.41997829999309033,500.3443408999592,None,,,,,,,,,,,,,,,,,,,,,,,PPT09,001,2022-06-29_10h01.10.225,ABstudy,2022.1.4,59.9584368162001,
AB,Lag1_T1P_T2A,1,P,A,7,8,6,4,12,gate,Did you see the gate?,0.12,0.016,JPG\,pen04b,speaker04,lighter01,cherry01,pintofbeer,onion,entrancegate,toothbrush03b,broom01,sewingmachine01a,book01b,iron01b,blankImage,blankImage,blankImage,blankImage,blankImage,entrancegate,,,,,,,,,,,,0,58,58,187,,,,,,,,,,,,,,,,,,,,,,,,,,,,,,,,,,,500.7977713999571,501.812466399977,501.77914999995846,502.35327640001196,502.35327640001196,None,503.90960530005395,None,left,1.0139372000703588,503.90960530005395,None,504.94913660001475,None,right,0.39859799994155765,504.94913660001475,None,,,,,,,,,,,,,,,,,,,,,,,PPT09,001,2022-06-29_10h01.10.225,ABstudy,2022.1.4,59.9584368162001,
AB,Lag5_T1A_T2A,5,A,A,6,11,5,5,16,shrimp,Did you see the shrimp?,0.12,0.016,JPG\,speaker04,sewingmachine01a,eraser,violin,globe,belt02a,sunglasses04,cymbal,cd,greenolive,alligator,pear01,watch02a,screwdriver04b,banana01,cigarette,blankImage,rollerblade,,,,,,,,,,,,0,59,59,300,,,,,,,,,,,,,,,,,,,,,,,,,,,,,,,,,,,505.3714254000224,506.38389589998405,506.3672830000287,506.9481356999604,506.9481356999604,None,508.8721631000517,None,right,0.6592253000708297,508.8721631000517,None,509.55366179998964,None,right,0.5865580999525264,509.55366179998964,None,,,,,,,,,,,,,,,,,,,,,,,PPT09,001,2022-06-29_10h01.10.225,ABstudy,2022.1.4,59.9584368162001,
AB,Lag5_T1P_T2A,5,P,A,8,13,7,5,18,telescope,Did you see the telescope?,0.12,0.016,JPG\,globe,broccoli01a,binoculars01b,iron01b,avocado01,dandelion,pineapple01a,handheldtelescope,fan,pizza,celery,blueberry01,sewingmachine01a,dice05a,watermelon01,candy,blankImage,handheldtelescope,,,,,,,,,,,,0,60,60,228,,,,,,,,,,,,,,,,,,,,,,,,,,,,,,,,,,,510.1768788000336,511.1889259000309,511.17239439999685,511.8011640999466,511.8011640999466,None,513.6967587999534,None,left,1.4035666000563651,513.6967587999534,None,515.1259078000439,None,right,0.5740846999688074,515.1259078000439,None,,,,,,,,,,,,,,,,,,,,,,,PPT09,001,2022-06-29_10h01.10.225,ABstudy,2022.1.4,59.9584368162001,
AB,Lag5_T1P_T2A,5,P,A,5,10,4,3,13,pin,Did you see the pin?,0.12,0.016,JPG\,candle01,fork03c,plate01b,violin,pin,candy,calculator01,paintbrush01,cherry01,sock01a,teabag,banana01,cd,blankImage,blankImage,blankImage,blankImage,pin,,,,,,,,,,,,0,61,61,215,,,,,,,,,,,,,,,,,,,,,,,,,,,,,,,,,,,515.7326072000433,516.7443276999984,516.7276333000045,517.3026003000559,517.3026003000559,None,518.872969100019,None,right,1.308337099966593,518.872969100019,None,520.199099099962,None,right,0.41394850006327033,520.199099099962,None,,,,,,,,,,,,,,,,,,,,,,,PPT09,001,2022-06-29_10h01.10.225,ABstudy,2022.1.4,59.9584368162001,
AB,Lag5_T1P_T2P,5,P,P,6,11,5,5,16,motorcycle,Did you see the motorcycle?,0.12,0.016,JPG\,cucumber,ring01,lipstick02a,microscope,violin,motorcycle,celery,lighter01,cherry01,sewingmachine01a,stapler04b,key01,binoculars01b,medal02b,watermelon01,dice05a,blankImage,motorcycle,,,,,,,,,,,,0,62,62,93,,,,,,,,,,,,,,,,,,,,,,,,,,,,,,,,,,,520.6411065000575,521.6487726999912,521.6321446000366,522.2377253000159,522.2377253000159,None,524.1353758999612,None,left,1.1163430999731645,524.1353758999612,None,525.2692768999841,None,right,1.0626932999584824,525.2692768999841,None,,,,,,,,,,,,,,,,,,,,,,,PPT09,001,2022-06-29_10h01.10.225,ABstudy,2022.1.4,59.9584368162001,
AB,Lag5_T1P_T2A,5,P,A,6,11,5,4,15,Spear,Did you see the Spear?,0.12,0.016,JPG\,belt02a,measuringcup01,spoon01,chain01,greenolive,spear02,computerkeyboard02,onion,fan,strawberry,candle01,broom01,binoculars01b,ashtray01,pingpongpaddle01c,blankImage,blankImage,spear02,,,,,,,,,,,,0,63,63,227,,,,,,,,,,,,,,,,,,,,,,,,,,,,,,,,,,,526.3604055000469,527.3715340000344,527.3549130000174,527.9337906000437,527.9337906000437,None,529.7659549999516,None,left,0.8539458999875933,529.7659549999516,None,530.6413761000149,None,right,0.42705660010688007,530.6413761000149,None,,,,,,,,,,,,,,,,,,,,,,,PPT09,001,2022-06-29_10h01.10.225,ABstudy,2022.1.4,59.9584368162001,
AB,Lag5_T1P_T2A,5,P,A,5,10,4,3,13,Totem Pole,Did you see the Totem Pole?,0.12,0.016,JPG\,canoftennisballs,banana01,scissors01,pig,totempole,leaf02a,pear01,sponge01,fork03c,tableknife02,balloon01b,match,toothbrush03b,blankImage,blankImage,blankImage,blankImage,totempole,,,,,,,,,,,,0,64,64,202,,,,,,,,,,,,,,,,,,,,,,,,,,,,,,,,,,,531.1572488000384,532.1594557999633,532.1427969000069,532.7309376000194,532.7309376000194,None,534.2849063000176,None,right,2.0311111001065,534.2849063000176,None,536.3467443999834,None,right,0.2811859999783337,536.3467443999834,None,,,,,,,,,,,,,,,,,,,,,,,PPT09,001,2022-06-29_10h01.10.225,ABstudy,2022.1.4,59.9584368162001,
AB,Lag5_T1P_T2P,5,P,P,7,12,6,5,17,Badminton Racket,Did you see the Badminton Racket?,0.12,0.016,JPG\,paintbrush01,dice05a,watermelon01,broccoli01a,hammer01,leaf02a,badmintonracket,tennisball01b,lemon02,fan,lipstick02a,stapler04b,envelope03a,sponge01,foosballtable,orange,blankImage,badmintonracket,,,,,,,,,,,,0,65,65,163,,,,,,,,,,,,,,,,,,,,,,,,,,,,,,,,,,,536.652206000057,537.6648146000225,537.6480972999707,538.2353432000382,538.2353432000382,None,540.2246031999821,None,left,0.6105765999527648,540.2246031999821,None,540.8678992999485,None,left,0.28107100003398955,540.8678992999485,None,,,,,,,,,,,,,,,,,,,,,,,PPT09,001,2022-06-29_10h01.10.225,ABstudy,2022.1.4,59.9584368162001,
AB,Lag5_T1P_T2A,5,P,A,8,13,7,4,17,knife,Did you see the knife?,0.12,0.016,JPG\,lighter01,hammer01,spoon01,chain01,cymbal,sponge01,lipstick02a,knife03,pig,watermelon01,cauliflower01,lemon02,broccoli01a,tableknife02,tennisball01b,toothbrush03b,blankImage,knife03,,,,,,,,,,,,0,66,66,214,,,,,,,,,,,,,,,,,,,,,,,,,,,,,,,,,,,541.170514700003,542.1697909999639,542.1531871999614,542.7515324000269,542.7515324000269,None,544.6911916000536,None,left,1.312500900006853,544.6911916000536,None,546.023109999951,None,right,0.42029320006258786,546.023109999951,None,,,,,,,,,,,,,,,,,,,,,,,PPT09,001,2022-06-29_10h01.10.225,ABstudy,2022.1.4,59.9584368162001,
AB,Lag1_T1P_T2A,1,P,A,7,8,6,3,11,Seagull,Did you see the Seagull?,0.12,0.016,JPG\,toiletpaper01a,mushroom01,medal02b,sandal,rice,cd,seagull,pizza,candle08b,garlic01a,toaster01,blankImage,blankImage,blankImage,blankImage,blankImage,blankImage,seagull,,,,,,,,,,,,0,67,67,176,,,,,,,,,,,,,,,,,,,,,,,,,,,,,,,,,,,546.4770510999952,547.4914622999495,547.4747770000249,548.1249780999497,548.0424690999789,None,549.4390517000575,None,left,0.8610039000632241,549.4390517000575,None,550.3275011000223,None,right,0.38834329997189343,550.3275011000223,None,,,,,,,,,,,,,,,,,,,,,,,PPT09,001,2022-06-29_10h01.10.225,ABstudy,2022.1.4,59.9584368162001,
AB,Lag1_T1P_T2A,1,P,A,8,9,7,5,14,Fridge,Did you see the Fridge?,0.12,0.016,JPG\,cherry01,cymbal,envelope03a,foosballtable,shirt02,cellphone,sewingmachine01a,fridge,battery02b,apple07,pencil01,screwdriver04b,strawberry,sunglasses04,blankImage,blankImage,blankImage,fridge,,,,,,,,,,,,0,68,68,173,,,,,,,,,,,,,,,,,,,,,,,,,,,,,,,,,,,550.7505607999628,551.7623124000384,551.7456375999609,552.3475435000146,552.3475435000146,None,554.0034931000555,None,left,0.7840634000021964,554.0034931000555,None,554.8153321000282,None,right,0.32463119993917644,554.8153321000282,None,,,,,,,,,,,,,,,,,,,,,,,PPT09,001,2022-06-29_10h01.10.225,ABstudy,2022.1.4,59.9584368162001,
AB,Lag5_T1P_T2P,5,P,P,5,10,4,5,15,Eye,Did you see the Eye?,0.12,0.016,JPG\,apple07,toiletpaper01a,pizza,dandelion,eye,eraser,microscope,violin,orange,stapler01,balloon01b,sandal,lighter01,fan,book01b,blankImage,blankImage,eye,,,,,,,,,,,,0,69,69,171,,,,,,,,,,,,,,,,,,,,,,,,,,,,,,,,,,,555.2299618000397,556.2334616000298,556.2167880999623,556.8137185999658,556.8137185999658,None,558.5523915999802,None,left,0.5076315000187606,558.5523915999802,None,559.0860506000463,None,left,0.3413137999596074,559.0860506000463,None,,,,,,,,,,,,,,,,,,,,,,,PPT09,001,2022-06-29_10h01.10.225,ABstudy,2022.1.4,59.9584368162001,
AB,Lag5_T1P_T2P,5,P,P,7,12,6,3,15,Eye patch,Did you see the Eye patch?,0.12,0.016,JPG\,candle01,paintbrush01,scissors01,fan,microscope,toothbrush03b,eyepatch,watermelon01,teabag,pencil01,lemon02,stapler05,shirt02,cauliflower01,cd,blankImage,blankImage,eyepatch,,,,,,,,,,,,0,70,70,108,,,,,,,,,,,,,,,,,,,,,,,,,,,,,,,,,,,559.46195180004,560.4711295999587,560.4543993000407,561.0414603999816,561.0414603999816,None,562.9181981000584,None,left,0.6301358999917284,562.9181981000584,None,563.5739777999697,None,left,0.3022516999626532,563.5739777999697,None,,,,,,,,,,,,,,,,,,,,,,,PPT09,001,2022-06-29_10h01.10.225,ABstudy,2022.1.4,59.9584368162001,
AB,Lag1_T1A_T2P,1,A,P,5,6,4,3,9,Spider,Did you see the Spider?,0.12,0.016,JPG\,pen04b,speaker04,lighter01,cherry01,8ball,stapler04b,sock01a,toothbrush03b,broom01,blankImage,blankImage,blankImage,blankImage,blankImage,blankImage,blankImage,blankImage,bridge,,,,,,,,,,,,0,71,71,250,,,,,,,,,,,,,,,,,,,,,,,,,,,,,,,,,,,563.9127632000018,564.9257479000371,564.9091515999753,565.4938093000092,565.4938093000092,None,566.5681111000013,None,right,3.9958170999307185,566.5681111000013,None,570.5807976999786,None,right,0.3118968000635505,570.5807976999786,None,,,,,,,,,,,,,,,,,,,,,,,PPT09,001,2022-06-29_10h01.10.225,ABstudy,2022.1.4,59.9584368162001,
AB,Lag5_T1P_T2P,5,P,P,7,12,6,4,16,Bird feeder,Did you see the Bird feeder?,0.12,0.016,JPG\,watermelon01,banana01,ring01,pencil01,tomato01,speaker04,birdfeeder,thermometer02b,key01,foosballtable,violin,stapler06,clock04,dice05a,pen04b,mushroom01,blankImage,birdfeeder,,,,,,,,,,,,0,72,72,164,,,,,,,,,,,,,,,,,,,,,,,,,,,,,,,,,,,570.919049100019,571.9322333999444,571.9154794999631,572.5213748000097,572.5213748000097,None,574.4852426999714,None,left,0.870771799935028,574.4852426999714,None,575.3857552000554,None,right,0.3702006000094116,575.3857552000554,None,,,,,,,,,,,,,,,,,,,,,,,PPT09,001,2022-06-29_10h01.10.225,ABstudy,2022.1.4,59.9584368162001,
AB,Lag1_T1P_T2A,1,P,A,8,9,7,5,14,Ceiling fan,Did you see the Ceiling fan?,0.12,0.016,JPG\,cucumber,sponge01,alligator,pear01,ashtray01,hammer01,clock04,ceilingfan01,fork03c,binoculars01b,mushroom01,broccoli01a,leaf02a,acorn,blankImage,blankImage,blankImage,ceilingfan01,,,,,,,,,,,,0,73,73,183,,,,,,,,,,,,,,,,,,,,,,,,,,,,,,,,,,,575.7925451999763,576.8037049999693,576.7870685999515,577.3994714999571,577.3994714999571,None,578.9729117000243,None,left,0.8069394999183714,578.9729117000243,None,579.8067171999719,None,right,0.3412481000414118,579.8067171999719,None,,,,,,,,,,,,,,,,,,,,,,,PPT09,001,2022-06-29_10h01.10.225,ABstudy,2022.1.4,59.9584368162001,
AB,Lag1_T1P_T2P,1,P,P,8,9,7,3,12,Sheep,Did you see the Sheep?,0.12,0.016,JPG\,celery,orange,scissors01,balloon01b,avocado01,printer02,mushroom01,sheep,stapler03b,dice05a,ashtray01,fan,blankImage,blankImage,blankImage,blankImage,blankImage,sheep,,,,,,,,,,,,0,74,74,71,,,,,,,,,,,,,,,,,,,,,,,,,,,,,,,,,,,580.1769778999733,581.1914095999673,581.1580364999827,581.7385532000335,581.7385532000335,None,583.2785683999537,None,left,1.3658464000327513,583.2785683999537,None,584.661681800033,None,right,0.3739252000814304,584.661681800033,None,,,,,,,,,,,,,,,,,,,,,,,PPT09,001,2022-06-29_10h01.10.225,ABstudy,2022.1.4,59.9584368162001,
AB,Lag5_T1P_T2A,5,P,A,7,12,6,4,16,Bear,Did you see the Bear?,0.12,0.016,JPG\,comb02a,key01,medal02b,battery02b,lighter01,microscope,grizzly,sandal,pig,cellphone,computerkeyboard02,calculator01,cymbal,clock04,cucumber,avocado01,blankImage,grizzly,,,,,,,,,,,,0,75,75,213,,,,,,,,,,,,,,,,,,,,,,,,,,,,,,,,,,,585.0672322999453,586.0798502999824,586.0631084999768,586.740042499965,586.740042499965,None,588.5998075000243,None,left,0.7875575999496505,588.5998075000243,None,589.4165783999488,None,right,0.3228158999700099,589.4165783999488,None,,,,,,,,,,,,,,,,,,,,,,,PPT09,001,2022-06-29_10h01.10.225,ABstudy,2022.1.4,59.9584368162001,
AB,Lag5_T1P_T2P,5,P,P,7,12,6,5,17,statue,Did you see the statue?,0.12,0.016,JPG\,pear01,clock01a,cymbal,match,ashtray01,globe,statue,button01,lemon02,pen04b,dice05a,stapler06,toothbrush03b,screwdriver04b,feather03a,key01,blankImage,statue,,,,,,,,,,,,0,76,76,100,,,,,,,,,,,,,,,,,,,,,,,,,,,,,,,,,,,589.7710451999446,590.7845865000272,590.7677259000484,591.3390487000579,591.3390487000579,None,593.2665779000381,None,left,0.5764317000284791,593.2665779000381,None,593.8707895999542,None,left,0.2932166999671608,593.8707895999542,None,,,,,,,,,,,,,,,,,,,,,,,PPT09,001,2022-06-29_10h01.10.225,ABstudy,2022.1.4,59.9584368162001,
AB,Lag1_T1P_T2P,1,P,P,7,8,6,5,13,school bus,Did you see the school bus?,0.12,0.016,JPG\,aceofdiamond,banana01,scissors01,pig,shirt02,leaf02a,schoolbus,stapler05,fork03c,tableknife02,balloon01b,match,toothbrush03b,blankImage,blankImage,blankImage,blankImage,schoolbus,,,,,,,,,,,,0,77,77,24,,,,,,,,,,,,,,,,,,,,,,,,,,,,,,,,,,,594.1931741000153,595.2056094999425,595.1889691000106,595.772525700042,595.772525700042,None,597.3340551999863,None,left,0.6690027000149712,597.3340551999863,None,598.025142999948,None,right,0.32198660005815327,598.025142999948,None,,,,,,,,,,,,,,,,,,,,,,,PPT09,001,2022-06-29_10h01.10.225,ABstudy,2022.1.4,59.9584368162001,
AB,Lag5_T1P_T2P,5,P,P,8,13,7,5,18,skis,Did you see the skis?,0.12,0.016,JPG\,tennisball01b,paintbrush01,medal02b,apple07,speaker04,iron01b,avocado01,downhillski,belt02a,toiletpaper01a,watermelon01,candle01,stapler01,cymbal,ashtray01,screwdriver04b,blankImage,downhillski,,,,,,,,,,,,0,78,78,106,,,,,,,,,,,,,,,,,,,,,,,,,,,,,,,,,,,598.3819268000079,599.3932112000184,599.376447299961,599.9794754999457,599.9794754999457,None,601.8643296000082,None,right,2.2682414000155404,601.8643296000082,None,604.1644381999504,None,right,0.526941700023599,604.1644381999504,None,,,,,,,,,,,,,,,,,,,,,,,PPT09,001,2022-06-29_10h01.10.225,ABstudy,2022.1.4,59.9584368162001,
AB,Lag5_T1P_T2A,5,P,A,6,11,5,5,16,hat,Did you see the hat?,0.12,0.016,JPG\,apple07,toiletpaper01a,pizza,dandelion,greenolive,pilgrimhat,microscope,violin,orange,lipstick02a,balloon01b,sandal,lighter01,fan,book01b,sewingmachine01a,blankImage,pilgrimhat,,,,,,,,,,,,0,79,79,206,,,,,,,,,,,,,,,,,,,,,,,,,,,,,,,,,,,604.7197308000177,605.7327257000143,605.7160231999587,606.3385377000086,606.3385377000086,None,608.2246822000016,None,right,1.0823978000553325,608.2246822000016,None,609.3361774999648,None,right,0.35488290002103895,609.3361774999648,None,,,,,,,,,,,,,,,,,,,,,,,PPT09,001,2022-06-29_10h01.10.225,ABstudy,2022.1.4,59.9584368162001,
AB,Lag1_T1P_T2P,1,P,P,7,8,6,3,11,Moose,Did you see the Moose?,0.12,0.016,JPG\,sock01a,spoon01,alligator,comb02a,printer02,medal02b,moose,stapler03a,greenolive,computerkeyboard02,cauliflower01,blankImage,blankImage,blankImage,blankImage,blankImage,blankImage,moose,,,,,,,,,,,,0,80,80,67,,,,,,,,,,,,,,,,,,,,,,,,,,,,,,,,,,,609.725084100035,610.7377008999465,610.7210909000132,611.2925386000425,611.2925386000425,None,612.6264598000562,None,left,0.7452978000510484,612.6264598000562,None,613.3902161000296,None,left,0.30174820008687675,613.3902161000296,None,,,,,,,,,,,,,,,,,,,,,,,PPT09,001,2022-06-29_10h01.10.225,ABstudy,2022.1.4,59.9584368162001,
AB,Lag1_T1P_T2A,1,P,A,8,9,7,4,13,boat,Did you see the boat?,0.12,0.016,JPG\,fork03c,dandelion,dice05a,belt02a,onion,watch02a,key01,boat,eraser,medal02b,greenolive,shirt02,candle08b,blankImage,blankImage,blankImage,blankImage,boat,,,,,,,,,,,,0,81,81,199,,,,,,,,,,,,,,,,,,,,,,,,,,,,,,,,,,,613.7261977000162,614.7415655000368,614.7082084000576,615.2970766000217,615.2970766000217,None,616.8985956000397,None,left,0.8487438000738621,616.8985956000397,None,617.7785148000112,None,right,0.36868529999628663,617.7785148000112,None,,,,,,,,,,,,,,,,,,,,,,,PPT09,001,2022-06-29_10h01.10.225,ABstudy,2022.1.4,59.9584368162001,
AB,Lag1_T1P_T2P,1,P,P,7,8,6,3,11,swing,Did you see the swing?,0.12,0.016,JPG\,sewingmachine01a,thermometer02b,sponge01,eraser,broccoli01a,fork03c,swing,stapler03b,belt02a,medal02b,pineapple01a,blankImage,blankImage,blankImage,blankImage,blankImage,blankImage,swing,,,,,,,,,,,,0,82,82,30,,,,,,,,,,,,,,,,,,,,,,,,,,,,,,,,,,,618.1864443999948,619.1955890000099,619.1789644999662,619.7590328999795,619.7590328999795,None,621.1300696999533,None,left,1.3369371000444517,621.1300696999533,None,622.4991261999821,None,left,0.2957795000402257,622.4991261999821,None,,,,,,,,,,,,,,,,,,,,,,,PPT09,001,2022-06-29_10h01.10.225,ABstudy,2022.1.4,59.9584368162001,
AB,Lag1_T1A_T2P,1,A,P,5,6,4,3,9,chimney,Did you see the chimney?,0.12,0.016,JPG\,cucumber,sponge01,alligator,pear01,ashtray01,stapler06,clock04,battery02b,fork03c,blankImage,blankImage,blankImage,blankImage,blankImage,blankImage,blankImage,blankImage,trophy01,,,,,,,,,,,,0,83,83,246,,,,,,,,,,,,,,,,,,,,,,,,,,,,,,,,,,,622.8313109000446,623.8337156999623,623.8004164999584,624.3762738000369,624.3762738000369,None,625.5193900000304,None,right,1.0280689999926835,625.5193900000304,None,626.571436899947,None,right,0.8961590999970213,626.571436899947,None,,,,,,,,,,,,,,,,,,,,,,,PPT09,001,2022-06-29_10h01.10.225,ABstudy,2022.1.4,59.9584368162001,
AB,Lag5_T1P_T2P,5,P,P,7,12,6,4,16,flower,Did you see the flower?,0.12,0.016,JPG\,cucumber,sponge01,alligator,pear01,ashtray01,hammer01,hibiscusflower02,battery02b,fork03c,binoculars01b,mushroom01,stapler01,leaf02a,acorn,comb02a,screwdriver04b,blankImage,hibiscusflower02,,,,,,,,,,,,0,84,84,132,,,,,,,,,,,,,,,,,,,,,,,,,,,,,,,,,,,627.4956827999558,628.5051568000345,628.488486199989,629.0644414999988,629.0644414999988,None,631.0317316000583,None,left,0.6762292999774218,631.0317316000583,None,631.7251936000539,None,left,0.3426214000210166,631.7251936000539,None,,,,,,,,,,,,,,,,,,,,,,,PPT09,001,2022-06-29_10h01.10.225,ABstudy,2022.1.4,59.9584368162001,
AB,Lag1_T1P_T2P,1,P,P,8,9,7,3,12,Fire hydrant,Did you see the Fire hydrant?,0.12,0.016,JPG\,foosballtable,candy,envelope03a,microscope,pencil01,leaf02a,scissors01,firehydrant,stapler01,dandelion,pineapple01a,hammer01,blankImage,blankImage,blankImage,blankImage,blankImage,firehydrant,,,,,,,,,,,,0,85,85,83,,,,,,,,,,,,,,,,,,,,,,,,,,,,,,,,,,,632.0996753999498,633.1099098999985,633.0931825999869,633.5936428999994,633.5936428999994,None,635.1598918000236,None,left,0.7959985999623314,635.1598918000236,None,635.9791386999423,None,right,0.37584579992108047,635.9791386999423,None,,,,,,,,,,,,,,,,,,,,,,,PPT09,001,2022-06-29_10h01.10.225,ABstudy,2022.1.4,59.9584368162001,
AB,Lag5_T1A_T2P,5,A,P,6,11,5,3,14,Kiwi,Did you see the Kiwi?,0.12,0.016,JPG\,paintbrush01,dice05a,watermelon01,broccoli01a,hammer01,leaf02a,match,tennisball01b,lemon02,fan,stapler06,grape01,envelope03a,sponge01,blankImage,blankImage,blankImage,granolabar01,,,,,,,,,,,,0,86,86,261,,,,,,,,,,,,,,,,,,,,,,,,,,,,,,,,,,,636.3820621999912,637.3973992000101,637.3640399000142,637.9457775000483,637.9457775000483,None,639.6349657999817,None,right,0.8083898000186309,639.6349657999817,None,640.4672693000175,None,right,0.7128019001102075,640.4672693000175,None,,,,,,,,,,,,,,,,,,,,,,,PPT09,001,2022-06-29_10h01.10.225,ABstudy,2022.1.4,59.9584368162001,
AB,Lag1_T1P_T2P,1,P,P,7,8,6,5,13,tiger,Did you see the tiger?,0.12,0.016,JPG\,globe,broccoli01a,binoculars01b,iron01b,avocado01,dandelion,tiger02,stapler03b,fan,pizza,celery,blueberry01,sewingmachine01a,blankImage,blankImage,blankImage,blankImage,tiger02,,,,,,,,,,,,0,87,87,50,,,,,,,,,,,,,,,,,,,,,,,,,,,,,,,,,,,641.2050380000146,642.2189117999515,642.2024309999542,642.7916201000335,642.7916201000335,None,644.3845181999495,None,left,0.5791385000338778,644.3845181999495,None,644.9884982999647,None,left,0.3669151000212878,644.9884982999647,None,,,,,,,,,,,,,,,,,,,,,,,PPT09,001,2022-06-29_10h01.10.225,ABstudy,2022.1.4,59.9584368162001,
AB,Lag5_T1P_T2A,5,P,A,6,11,5,3,14,Balcony,Did you see the Balcony?,0.12,0.016,JPG\,tomato01,pen04b,shirt02,carrot01,lamp04a,balcony02,pizza,avocado01,sewingmachine01a,apple07,iron01b,book01b,chain01,sock01a,blankImage,blankImage,blankImage,balcony02,,,,,,,,,,,,0,88,88,207,,,,,,,,,,,,,,,,,,,,,,,,,,,,,,,,,,,645.3777914999519,646.3897551000118,646.3730644000461,646.9710837999592,646.9710837999592,None,648.6985393000068,None,left,0.8329952999483794,648.6985393000068,None,649.5603399999673,None,right,0.3389613999752328,649.5603399999673,None,,,,,,,,,,,,,,,,,,,,,,,PPT09,001,2022-06-29_10h01.10.225,ABstudy,2022.1.4,59.9584368162001,
AB,Lag5_T1P_T2P,5,P,P,5,10,4,5,15,penguin,Did you see the penguin?,0.12,0.016,JPG\,watermelon01,cigarette,pintofbeer,cymbal,penguin,feather03a,cherry01,broom01,battery02b,stapler05,baseball01a,iron01b,garlic01a,computerkeyboard02,pig,blankImage,blankImage,penguin,,,,,,,,,,,,0,89,89,137,,,,,,,,,,,,,,,,,,,,,,,,,,,,,,,,,,,649.9378608999541,650.944117099978,650.9274250000017,651.5221034999704,651.5221034999704,None,653.246809000033,None,right,4.100827599992044,653.246809000033,None,657.367315200041,None,left,0.43583259999286383,657.367315200041,None,,,,,,,,,,,,,,,,,,,,,,,PPT09,001,2022-06-29_10h01.10.225,ABstudy,2022.1.4,59.9584368162001,
AB,Lag1_T1P_T2P,1,P,P,5,6,4,5,11,squirrel,Did you see the squirrel?,0.12,0.016,JPG\,pencil01,orange,clock01a,sponge01,squirrel,stapler05,lipstick02a,strawberry,book01b,mushroom01,envelope03a,blankImage,blankImage,blankImage,blankImage,blankImage,blankImage,squirrel,,,,,,,,,,,,0,90,90,5,,,,,,,,,,,,,,,,,,,,,,,,,,,,,,,,,,,657.836872600019,658.8522971000057,658.8187943999656,659.432192599983,659.432192599983,None,660.7742921999888,None,left,0.516694699996151,660.7742921999888,None,661.3217070000246,None,left,0.4331218999577686,661.3217070000246,None,,,,,,,,,,,,,,,,,,,,,,,PPT09,001,2022-06-29_10h01.10.225,ABstudy,2022.1.4,59.9584368162001,
AB,Lag1_T1P_T2A,1,P,A,6,7,5,4,11,Road,Did you see the Road?,0.12,0.016,JPG\,pizza,printer02,medal02b,spoon01,grape01,road02,belt02a,watermelon01,celery,battery02b,screw02,blankImage,blankImage,blankImage,blankImage,blankImage,blankImage,road02,,,,,,,,,,,,0,91,91,174,,,,,,,,,,,,,,,,,,,,,,,,,,,,,,,,,,,661.7759340000339,662.7894237999571,662.7726875999942,663.4053496000124,663.4053496000124,None,664.6614371000323,None,left,0.9260458999779075,664.6614371000323,None,665.608598300023,None,right,0.34680409997235984,665.608598300023,None,,,,,,,,,,,,,,,,,,,,,,,PPT09,001,2022-06-29_10h01.10.225,ABstudy,2022.1.4,59.9584368162001,
AB,Lag1_T1P_T2P,1,P,P,8,9,7,4,13,crab,Did you see the crab?,0.12,0.016,JPG\,candle01,fork03c,plate01b,violin,computerkeyboard02,candy,calculator01,crab01,stapler04b,sock01a,teabag,banana01,cd,blankImage,blankImage,blankImage,blankImage,crab01,,,,,,,,,,,,0,92,92,37,,,,,,,,,,,,,,,,,,,,,,,,,,,,,,,,,,,665.9779135000426,666.9933444999624,666.9599140000064,667.548294999986,667.548294999986,None,669.199587799958,None,left,0.75582249998115,669.199587799958,None,669.9810547999805,None,right,0.3261264000320807,669.9810547999805,None,,,,,,,,,,,,,,,,,,,,,,,PPT09,001,2022-06-29_10h01.10.225,ABstudy,2022.1.4,59.9584368162001,
AB,Lag5_T1A_T2P,5,A,P,8,13,7,4,17,wrench,Did you see the wrench?,0.12,0.016,JPG\,clock01a,grape01,plate01b,key01,screwdriver04b,feather03a,pineapple01a,iron01b,toothbrush03b,comb02a,broom01,toaster01,stapler05,garlic01a,match,ashtray01,blankImage,seal,,,,,,,,,,,,0,93,93,272,,,,,,,,,,,,,,,,,,,,,,,,,,,,,,,,,,,670.3397430999903,671.3482475000201,671.3315333999926,671.9231151000131,671.9231151000131,None,673.8807823000243,None,right,1.473855399992317,673.8807823000243,None,675.385255799978,None,left,0.49784580001141876,675.385255799978,None,,,,,,,,,,,,,,,,,,,,,,,PPT09,001,2022-06-29_10h01.10.225,ABstudy,2022.1.4,59.9584368162001,
AB,Lag1_T1P_T2P,1,P,P,8,9,7,5,14,helicopter,Did you see the helicopter?,0.12,0.016,JPG\,broom01,globe,cellphone,tableknife02,cauliflower01,scissors01,ring01,helicopter,stapler01,toaster01,cigarette,grape01,microscope,cucumber,blankImage,blankImage,blankImage,helicopter,,,,,,,,,,,,0,94,94,85,,,,,,,,,,,,,,,,,,,,,,,,,,,,,,,,,,,675.9082245000172,676.9199481999967,676.9034453999484,677.4883566000499,677.4883566000499,None,679.2857978000538,None,left,1.4062431000638753,679.2857978000538,None,680.72383979999,None,right,0.39994950010441244,680.72383979999,None,,,,,,,,,,,,,,,,,,,,,,,PPT09,001,2022-06-29_10h01.10.225,ABstudy,2022.1.4,59.9584368162001,
AB,Lag5_T1P_T2P,5,P,P,7,12,6,5,17,flamingo,Did you see the flamingo?,0.12,0.016,JPG\,pig,belt02a,rice,screwdriver04b,candle01,apple07,flamingo,pear01,feather03a,match,thermometer02b,stapler06,lemon02,violin,medal02b,pineapple01a,blankImage,flamingo,,,,,,,,,,,,0,95,95,153,,,,,,,,,,,,,,,,,,,,,,,,,,,,,,,,,,,681.1451688000234,682.1586428999435,682.1419475999428,682.6424780000234,682.6424780000234,None,684.6323843999999,None,left,0.563052500016056,684.6323843999999,None,685.2281806999817,None,left,0.3749406000133604,685.2281806999817,None,,,,,,,,,,,,,,,,,,,,,,,PPT09,001,2022-06-29_10h01.10.225,ABstudy,2022.1.4,59.9584368162001,
AB,Lag5_T1P_T2P,5,P,P,8,13,7,4,17,surf board,Did you see the surf board?,0.12,0.016,JPG\,candy,brownsugar,dice05a,cd,sock01a,blueberry01,button01,surfboard,feather03a,grape01,dandelion,scissors01,stapler03b,candle08b,book01b,globe,blankImage,surfboard,,,,,,,,,,,,0,96,96,142,,,,,,,,,,,,,,,,,,,,,,,,,,,,,,,,,,,685.6339212999446,686.6466074000346,686.6298694000579,687.2147404999705,687.2147404999705,None,689.1382572000148,None,right,1.1850414999062195,689.1382572000148,None,690.3498856000369,None,left,0.4693603999912739,690.3498856000369,None,,,,,,,,,,,,,,,,,,,,,,,PPT09,001,2022-06-29_10h01.10.225,ABstudy,2022.1.4,59.9584368162001,
AB,Lag1_T1P_T2P,1,P,P,7,8,6,3,11,locker,Did you see the locker?,0.12,0.016,JPG\,toiletpaper01a,lipstick02a,potato02b,speaker04,globe,strawberry,locker,stapler04b,sock01a,candle08b,pen04b,blankImage,blankImage,blankImage,blankImage,blankImage,blankImage,locker,,,,,,,,,,,,0,97,97,19,,,,,,,,,,,,,,,,,,,,,,,,,,,,,,,,,,,690.8526874999516,691.8681191999931,691.8346656999784,692.4165516999783,692.4165516999783,None,693.7683105999604,None,left,1.7472398000536487,693.7683105999604,None,695.5384704000317,None,left,1.1459556999616325,695.5384704000317,None,,,,,,,,,,,,,,,,,,,,,,,PPT09,001,2022-06-29_10h01.10.225,ABstudy,2022.1.4,59.9584368162001,
AB,Lag1_T1P_T2P,1,P,P,7,8,6,4,12,Dog House,Did you see the Dog House?,0.12,0.016,JPG\,pineapple01a,leaf02a,grape01,toiletpaper01a,match,tennisball01b,doghouse,stapler03b,pig,measuringcup01,ring01,lemon02,blankImage,blankImage,blankImage,blankImage,blankImage,doghouse,,,,,,,,,,,,0,98,98,44,,,,,,,,,,,,,,,,,,,,,,,,,,,,,,,,,,,696.7471083999844,697.7575117000379,697.7408195999451,698.3520526000066,698.3520526000066,None,699.7701857000357,None,left,0.7845516999950632,699.7701857000357,None,700.5783594000386,None,right,0.3605279999319464,700.5783594000386,None,,,,,,,,,,,,,,,,,,,,,,,PPT09,001,2022-06-29_10h01.10.225,ABstudy,2022.1.4,59.9584368162001,
AB,Lag1_T1P_T2P,1,P,P,6,7,5,5,12,Snowboard,Did you see the Snowboard?,0.12,0.016,JPG\,belt02a,measuringcup01,spoon01,chain01,greenolive,snowboard,stapler01,onion,fan,strawberry,candle01,broom01,blankImage,blankImage,blankImage,blankImage,blankImage,snowboard,,,,,,,,,,,,0,99,99,49,,,,,,,,,,,,,,,,,,,,,,,,,,,,,,,,,,,700.9692934999475,701.9781844000099,701.9615664000157,702.5525314999977,702.5525314999977,None,704.0277091000462,None,right,1.0483067000750452,704.0277091000462,None,705.0981341999723,None,left,0.4888090000022203,705.0981341999723,None,,,,,,,,,,,,,,,,,,,,,,,PPT09,001,2022-06-29_10h01.10.225,ABstudy,2022.1.4,59.9584368162001,
AB,Lag5_T1A_T2P,5,A,P,5,10,4,4,14,mail box,Did you see the mail box?,0.12,0.016,JPG\,button01,celery,birthdaycandle,apple07,avocado01,tennisball01b,dice05a,teabag,clock01a,stapler05,tomato01,scarf,orange,battery02b,blankImage,blankImage,blankImage,jeep,,,,,,,,,,,,0,100,100,263,,,,,,,,,,,,,,,,,,,,,,,,,,,,,,,,,,,705.6181983000133,706.6329798999941,706.6162870000117,707.2164150000317,707.2164150000317,None,708.9369773999788,None,right,1.3860550000099465,708.9369773999788,None,710.3531883000396,None,left,0.42575039993971586,710.3531883000396,None,,,,,,,,,,,,,,,,,,,,,,,PPT09,001,2022-06-29_10h01.10.225,ABstudy,2022.1.4,59.9584368162001,
AB,Lag1_T1P_T2P,1,P,P,6,7,5,3,10,elephant,Did you see the elephant?,0.12,0.016,JPG\,clock01a,grape01,plate01b,key01,screwdriver04b,africanelephant,stapler03b,iron01b,toothbrush03b,comb02a,blankImage,blankImage,blankImage,blankImage,blankImage,blankImage,blankImage,africanelephant,,,,,,,,,,,,0,101,101,31,,,,,,,,,,,,,,,,,,,,,,,,,,,,,,,,,,,710.8058292999631,711.821334999986,711.7878834999865,712.3709929999895,712.3709929999895,None,713.6303865000373,None,left,0.6680990000022575,713.6303865000373,None,714.3237649999792,None,left,0.3191711000399664,714.3237649999792,None,,,,,,,,,,,,,,,,,,,,,,,PPT09,001,2022-06-29_10h01.10.225,ABstudy,2022.1.4,59.9584368162001,
AB,Lag5_T1P_T2P,5,P,P,6,11,5,5,16,microwave,Did you see the microwave?,0.12,0.016,JPG\,pen04b,speaker04,lighter01,cherry01,weight04a,microwave,sock01a,toothbrush03b,broom01,sewingmachine01a,stapler06,iron01b,clock01a,sandal,cd,blueberry01,blankImage,microwave,,,,,,,,,,,,0,102,102,136,,,,,,,,,,,,,,,,,,,,,,,,,,,,,,,,,,,714.6778657999821,715.6920796999475,715.6752676999895,716.2560230999952,716.2560230999952,None,718.1822228999808,None,left,0.6129352999851108,718.1822228999808,None,718.8115579000441,None,left,0.3272881999146193,718.8115579000441,None,,,,,,,,,,,,,,,,,,,,,,,PPT09,001,2022-06-29_10h01.10.225,ABstudy,2022.1.4,59.9584368162001,
AB,Lag5_T1P_T2P,5,P,P,6,11,5,4,15,sword,Did you see the sword?,0.12,0.016,JPG\,8ball,banana01,scissors01,pig,shirt02,broadsword,pear01,sponge01,fork03c,tableknife02,stapler06,match,toothbrush03b,birthdaycandle,candle01,blankImage,blankImage,broadsword,,,,,,,,,,,,0,103,103,167,,,,,,,,,,,,,,,,,,,,,,,,,,,,,,,,,,,719.1641495999647,720.1796119000064,720.1462529000128,720.7310862999875,720.7310862999875,None,722.5888808999443,None,left,0.7022044999757782,722.5888808999443,None,723.3160967000294,None,left,0.24648550001438707,723.3160967000294,None,,,,,,,,,,,,,,,,,,,,,,,PPT09,001,2022-06-29_10h01.10.225,ABstudy,2022.1.4,59.9584368162001,
AB,Lag5_T1P_T2A,5,P,A,8,13,7,3,16,leaf blower,Did you see the leaf blower?,0.12,0.016,JPG\,printer02,leaf02a,cauliflower01,sock01a,brownsugar,paintbrush01,pig,leafblower01,belt02a,shirt02,key01,match,cigarette,scissors01,envelope03a,blueberry01,blankImage,leafblower01,,,,,,,,,,,,0,104,104,216,,,,,,,,,,,,,,,,,,,,,,,,,,,,,,,,,,,723.5832980000414,724.5845504000317,724.567948400043,725.1629181000171,725.1629181000171,None,727.1361307000043,None,left,0.7309887999435887,727.1361307000043,None,727.8885477000149,None,right,0.3304484999971464,727.8885477000149,None,,,,,,,,,,,,,,,,,,,,,,,PPT09,001,2022-06-29_10h01.10.225,ABstudy,2022.1.4,59.9584368162001,
AB,Lag5_T1P_T2P,5,P,P,8,13,7,3,16,shrimp,Did you see the shrimp?,0.12,0.016,JPG\,globe,belt02a,sponge01,violin,fork03c,tomato01,clock01a,cocktailshrimp02,balloon01b,scarf,teabag,pen04b,stapler03a,brownsugar,speaker04,screwdriver04b,blankImage,cocktailshrimp02,,,,,,,,,,,,0,105,105,169,,,,,,,,,,,,,,,,,,,,,,,,,,,,,,,,,,,728.2976617000531,729.3056389000267,729.2722188000334,729.8522728000535,729.8522728000535,None,731.7462576000253,None,right,1.2326957999030128,731.7462576000253,None,733.0095047999639,None,right,0.5690178000368178,733.0095047999639,None,,,,,,,,,,,,,,,,,,,,,,,PPT09,001,2022-06-29_10h01.10.225,ABstudy,2022.1.4,59.9584368162001,
AB,Lag1_T1P_T2P,1,P,P,5,6,4,5,11,football,Did you see the football?,0.12,0.016,JPG\,globe,belt02a,sponge01,violin,soccerball,stapler01,clock01a,microscope,balloon01b,scarf,teabag,blankImage,blankImage,blankImage,blankImage,blankImage,blankImage,soccerball,,,,,,,,,,,,0,106,106,26,,,,,,,,,,,,,,,,,,,,,,,,,,,,,,,,,,,733.6098710000515,734.6107424000511,734.5941057000309,735.2051620000275,735.2051620000275,None,736.5699681000551,None,left,1.4807432000525296,736.5699681000551,None,738.0808930000057,None,left,0.19483189994934946,738.0808930000057,None,,,,,,,,,,,,,,,,,,,,,,,PPT09,001,2022-06-29_10h01.10.225,ABstudy,2022.1.4,59.9584368162001,
AB,Lag5_T1A_T2P,5,A,P,5,10,4,5,15,Sushi,Did you see the Sushi?,0.12,0.016,JPG\,pineapple01a,leaf02a,grape01,toiletpaper01a,match,tennisball01b,spoon01,chain01,pig,stapler04b,ring01,lemon02,dice05a,pizza,potato02b,blankImage,blankImage,crown,,,,,,,,,,,,0,107,107,285,,,,,,,,,,,,,,,,,,,,,,,,,,,,,,,,,,,738.3032740999479,739.3157414000016,739.2988690000493,739.8744512000121,739.8744512000121,None,741.6835588000249,None,right,0.9847795999376103,741.6835588000249,None,742.6854232000187,None,left,0.3090497999219224,742.6854232000187,None,,,,,,,,,,,,,,,,,,,,,,,PPT09,001,2022-06-29_10h01.10.225,ABstudy,2022.1.4,59.9584368162001,
AB,Lag5_T1P_T2P,5,P,P,8,13,7,5,18,bed,Did you see the bed?,0.12,0.016,JPG\,pencil01,broccoli01a,button01,sponge01,watermelon01,lipstick02a,comb02a,bed,lighter01,sock01a,spoon01,blueberry01,stapler04b,onion,grape01,avocado01,blankImage,bed,,,,,,,,,,,,0,108,108,124,,,,,,,,,,,,,,,,,,,,,,,,,,,,,,,,,,,743.0227522000205,744.0368935000151,744.0036005000584,744.6224093999481,744.6224093999481,None,746.5226397999795,None,left,0.6564031000016257,746.5226397999795,None,747.2078921999782,None,left,0.21104070008732378,747.2078921999782,None,,,,,,,,,,,,,,,,,,,,,,,PPT09,001,2022-06-29_10h01.10.225,ABstudy,2022.1.4,59.9584368162001,
AB,Lag1_T1A_T2A,1,A,A,8,9,7,5,14,Ping pong Table,Did you see the Ping pong Table?,0.12,0.016,JPG\,pineapple01a,tennisball01b,computerkeyboard02,feather03a,belt02a,acorn,violin,blueberry01,medal02b,alligator,greenolive,screwdriver04b,potato02b,fork03c,blankImage,blankImage,blankImage,statue,,,,,,,,,,,,0,109,109,287,,,,,,,,,,,,,,,,,,,,,,,,,,,,,,,,,,,747.4450575000374,748.4577715999912,748.4410869999556,749.0369901000522,749.0369901000522,None,750.7099856999703,None,right,0.5487189999548718,750.7099856999703,None,751.2771755000576,None,right,1.8465878999559209,751.2771755000576,None,,,,,,,,,,,,,,,,,,,,,,,PPT09,001,2022-06-29_10h01.10.225,ABstudy,2022.1.4,59.9584368162001,
AB,Lag5_T1P_T2P,5,P,P,5,10,4,5,15,Ipad,Did you see the Ipad?,0.12,0.016,JPG\,fork03c,toothbrush03b,cellphone,fan,ipad02,clock01a,ring01,eraser,sunglasses04,stapler06,violin,brownsugar,blueberry01,pear01,pencil01,blankImage,blankImage,ipad02,,,,,,,,,,,,0,110,110,150,,,,,,,,,,,,,,,,,,,,,,,,,,,,,,,,,,,753.1520275999792,754.1634403000353,754.1467092999956,754.719101900002,754.719101900002,None,756.5491436000448,None,right,0.6533805000362918,756.5491436000448,None,757.2333415000467,None,left,0.3372900999384001,757.2333415000467,None,,,,,,,,,,,,,,,,,,,,,,,PPT09,001,2022-06-29_10h01.10.225,ABstudy,2022.1.4,59.9584368162001,
AB,Lag5_T1P_T2P,5,P,P,6,11,5,5,16,sword,Did you see the sword?,0.12,0.016,JPG\,chain01,speaker04,avocado01,watermelon01,scarf,sword01,lamp04a,fork03c,toaster01,slipper03b,stapler03a,cucumber,teabag,ashtray01,computerkeyboard02,book01b,blankImage,sword01,,,,,,,,,,,,0,111,111,143,,,,,,,,,,,,,,,,,,,,,,,,,,,,,,,,,,,757.6041888999753,758.6179156999569,758.6015424999641,759.1873614999931,759.1873614999931,None,761.157313899952,None,left,0.6373260000254959,761.157313899952,None,761.8210501000285,None,left,0.20531220000702888,761.8210501000285,None,,,,,,,,,,,,,,,,,,,,,,,PPT09,001,2022-06-29_10h01.10.225,ABstudy,2022.1.4,59.9584368162001,
AB,Lag5_T1P_T2P,5,P,P,5,10,4,4,14,Christmas lights,Did you see the Christmas lights?,0.12,0.016,JPG\,binoculars01b,cymbal,pizza,candy,christmaslights,sponge01,grape01,thermometer02b,speaker04,stapler03a,lipstick02a,strawberry,candle01,tambourine02,blankImage,blankImage,blankImage,christmaslights,,,,,,,,,,,,0,112,112,168,,,,,,,,,,,,,,,,,,,,,,,,,,,,,,,,,,,762.1063756999793,763.105644299998,763.0895610000007,763.6967920999741,763.6967920999741,None,765.3746900999686,None,left,0.6118424000451341,765.3746900999686,None,766.0085293999873,None,left,0.20206110004801303,766.0085293999873,None,,,,,,,,,,,,,,,,,,,,,,,PPT09,001,2022-06-29_10h01.10.225,ABstudy,2022.1.4,59.9584368162001,
AB,Lag1_T1A_T2P,1,A,P,5,6,4,3,9,Crown,Did you see the Crown?,0.12,0.016,JPG\,leaf02a,pear01,measuringcup01,cigarette,fan,stapler04b,teabag,tableknife02,ring01,blankImage,blankImage,blankImage,blankImage,blankImage,blankImage,blankImage,blankImage,arrow02,,,,,,,,,,,,0,113,113,248,,,,,,,,,,,,,,,,,,,,,,,,,,,,,,,,,,,766.2446111999452,767.2598119999748,767.2263883999549,767.801684099948,767.801684099948,None,768.9895096999826,None,right,0.7812366000143811,768.9895096999826,None,769.795797699946,None,left,0.2867594000417739,769.795797699946,None,,,,,,,,,,,,,,,,,,,,,,,PPT09,001,2022-06-29_10h01.10.225,ABstudy,2022.1.4,59.9584368162001,
AB,Lag5_T1P_T2A,5,P,A,6,11,5,5,16,fish,Did you see the fish?,0.12,0.016,JPG\,cucumber,ring01,lipstick02a,microscope,violin,redlionfish,celery,lighter01,cherry01,sewingmachine01a,belt02a,key01,binoculars01b,medal02b,watermelon01,dice05a,blankImage,redlionfish,,,,,,,,,,,,0,114,114,221,,,,,,,,,,,,,,,,,,,,,,,,,,,,,,,,,,,770.115416900022,771.1303816,771.0970715000294,771.6831471000332,771.6831471000332,None,773.6687979999697,None,right,1.1580141999293119,773.6687979999697,None,774.8507367999991,None,right,0.5293364999815822,774.8507367999991,None,,,,,,,,,,,,,,,,,,,,,,,PPT09,001,2022-06-29_10h01.10.225,ABstudy,2022.1.4,59.9584368162001,
AB,Lag1_T1P_T2A,1,P,A,7,8,6,3,11,fish,Did you see the fish?,0.12,0.016,JPG\,rice,watermelon01,tableknife02,scarf,computerkeyboard02,cauliflower01,salmon,binoculars01b,book01b,sandal,sponge01,blankImage,blankImage,blankImage,blankImage,blankImage,blankImage,salmon,,,,,,,,,,,,0,115,115,179,,,,,,,,,,,,,,,,,,,,,,,,,,,,,,,,,,,775.4017618000507,776.4024138000095,776.3857080000453,776.9812793999445,776.9812793999445,None,778.3660738000181,None,left,1.396588399889879,778.3660738000181,None,779.7888670000248,None,right,0.42169969994574785,779.7888670000248,None,,,,,,,,,,,,,,,,,,,,,,,PPT09,001,2022-06-29_10h01.10.225,ABstudy,2022.1.4,59.9584368162001,
AB,Lag5_T1A_T2P,5,A,P,7,12,6,3,15,hockey puck,Did you see the hockey puck?,0.12,0.016,JPG\,toiletpaper01a,lipstick02a,potato02b,speaker04,globe,strawberry,carrot01,plate01b,sock01a,candle08b,pen04b,stapler04b,foosballtable,brick,pear01,blankImage,blankImage,frisbee,,,,,,,,,,,,0,116,116,260,,,,,,,,,,,,,,,,,,,,,,,,,,,,,,,,,,,780.242211899953,781.2569209999638,781.223582000006,781.8108638999984,781.8108638999984,None,783.6350626000203,None,right,0.8881832000333816,783.6350626000203,None,784.5450934000546,None,right,0.5937951999949291,784.5450934000546,None,,,,,,,,,,,,,,,,,,,,,,,PPT09,001,2022-06-29_10h01.10.225,ABstudy,2022.1.4,59.9584368162001,
AB,Lag5_T1A_T2P,5,A,P,7,12,6,5,17,funnel,Did you see the funnel?,0.12,0.016,JPG\,iron01b,orange,birthdaycandle,potato02b,cauliflower01,pencil01,key01,candle08b,celery,tableknife02,pen04b,stapler04b,ring01,rice,lemon02,tomato01,blankImage,englishcucumber,,,,,,,,,,,,0,117,117,259,,,,,,,,,,,,,,,,,,,,,,,,,,,,,,,,,,,785.1710892999545,786.1783893000102,786.1617055999814,786.7368078000145,786.7368078000145,None,788.6790957000339,None,right,0.8035454999189824,788.6790957000339,None,789.5156660999637,None,right,0.6789243000093848,789.5156660999637,None,,,,,,,,,,,,,,,,,,,,,,,PPT09,001,2022-06-29_10h01.10.225,ABstudy,2022.1.4,59.9584368162001,
AB,Lag5_T1P_T2A,5,P,A,5,10,4,4,14,Ship in a bottle,Did you see the Ship in a bottle?,0.12,0.016,JPG\,sewingmachine01a,thermometer02b,sponge01,eraser,shipinabottle,fork03c,pizza,violin,belt02a,medal02b,pineapple01a,tennisball01b,dandelion,cauliflower01,blankImage,blankImage,blankImage,shipinabottle,,,,,,,,,,,,0,118,118,208,,,,,,,,,,,,,,,,,,,,,,,,,,,,,,,,,,,790.2241001999937,791.2337942000013,791.2171343000373,791.8313584000571,791.8313584000571,None,793.5320962000405,None,left,1.0066682000178844,793.5320962000405,None,794.5711001999443,None,right,0.39964990003500134,794.5711001999443,None,,,,,,,,,,,,,,,,,,,,,,,PPT09,001,2022-06-29_10h01.10.225,ABstudy,2022.1.4,59.9584368162001,
AB,Lag1_T1P_T2P,1,P,P,7,8,6,3,11,tree,Did you see the tree?,0.12,0.016,JPG\,pear01,clock01a,cymbal,match,ashtray01,globe,tree,stapler03b,lemon02,pen04b,dice05a,blankImage,blankImage,blankImage,blankImage,blankImage,blankImage,tree,,,,,,,,,,,,0,119,119,51,,,,,,,,,,,,,,,,,,,,,,,,,,,,,,,,,,,794.9896350000054,796.0050602999981,795.9716366999783,796.5653320000274,796.5653320000274,None,797.8962467999663,None,left,0.986179200001061,797.8962467999663,None,798.9077318999916,None,right,0.3435497001046315,798.9077318999916,None,,,,,,,,,,,,,,,,,,,,,,,PPT09,001,2022-06-29_10h01.10.225,ABstudy,2022.1.4,59.9584368162001,
AB,Lag1_T1P_T2A,1,P,A,7,8,6,4,12,bird,Did you see the bird?,0.12,0.016,JPG\,speaker04,sewingmachine01a,eraser,violin,globe,belt02a,tern,cymbal,cd,greenolive,alligator,pear01,blankImage,blankImage,blankImage,blankImage,blankImage,tern,,,,,,,,,,,,0,120,120,177,,,,,,,,,,,,,,,,,,,,,,,,,,,,,,,,,,,799.2757552999537,800.2758290000493,800.2591154000256,800.8367448999779,800.8367448999779,None,802.3395939000184,None,left,0.9827977999811992,802.3395939000184,None,803.3458253999706,None,right,0.36147959996014833,803.3458253999706,None,,,,,,,,,,,,,,,,,,,,,,,PPT09,001,2022-06-29_10h01.10.225,ABstudy,2022.1.4,59.9584368162001,
AB,Lag5_T1P_T2A,5,P,A,5,10,4,3,13,martini glass,Did you see the martini glass?,0.12,0.016,JPG\,brick,eraser,cucumber,ashtray01,martiniglass01b,binoculars01b,lipstick02a,screwdriver04b,grape01,brownsugar,battery02b,iron01b,dice05a,blankImage,blankImage,blankImage,blankImage,martiniglass01b,,,,,,,,,,,,0,121,121,217,,,,,,,,,,,,,,,,,,,,,,,,,,,,,,,,,,,803.7350695000496,804.747383799986,804.7305802999763,805.302116899984,805.302116899984,None,806.9167382000014,None,right,2.1660472999792546,806.9167382000014,None,809.1013928999892,None,right,0.9091758000431582,809.1013928999892,None,,,,,,,,,,,,,,,,,,,,,,,PPT09,001,2022-06-29_10h01.10.225,ABstudy,2022.1.4,59.9584368162001,
AB,Lag5_T1P_T2P,5,P,P,6,11,5,3,14,wrench,Did you see the wrench?,0.12,0.016,JPG\,cherry01,cymbal,envelope03a,foosballtable,shirt02,stubbywrench01a,sewingmachine01a,candle08b,battery02b,apple07,stapler03b,screwdriver04b,strawberry,sunglasses04,blankImage,blankImage,blankImage,stubbywrench01a,,,,,,,,,,,,0,122,122,122,,,,,,,,,,,,,,,,,,,,,,,,,,,,,,,,,,,810.0379658000311,811.0533273000037,811.0199998000171,811.597861599992,811.597861599992,None,813.3169417999452,None,left,1.221276400028728,813.3169417999452,None,814.5569094000384,None,right,0.7420379999093711,814.5569094000384,None,,,,,,,,,,,,,,,,,,,,,,,PPT09,001,2022-06-29_10h01.10.225,ABstudy,2022.1.4,59.9584368162001,
AB,Lag5_T1P_T2P,5,P,P,6,11,5,3,14,ladder,Did you see the ladder?,0.12,0.016,JPG\,celery,orange,scissors01,balloon01b,avocado01,stepladder,mushroom01,sewingmachine01a,lighter01,dice05a,stapler01,fan,cd,sock01a,blankImage,blankImage,blankImage,stepladder,,,,,,,,,,,,0,123,123,119,,,,,,,,,,,,,,,,,,,,,,,,,,,,,,,,,,,815.3285311999498,816.3420652999775,816.3254204000114,816.902210899978,816.902210899978,None,818.6229613999603,None,left,0.5401861999416724,818.6229613999603,None,819.1946837999858,None,left,0.23141660005785525,819.1946837999858,None,,,,,,,,,,,,,,,,,,,,,,,PPT09,001,2022-06-29_10h01.10.225,ABstudy,2022.1.4,59.9584368162001,
AB,Lag5_T1P_T2P,5,P,P,6,11,5,5,16,scooter,Did you see the scooter?,0.12,0.016,JPG\,thermometer02b,candle08b,comb02a,toothbrush03b,brick,scooter,key01,pineapple01a,candy,birthdaycandle,stapler04b,canoftennisballs,teabag,medal02b,balloon01b,banana01,blankImage,scooter,,,,,,,,,,,,0,124,124,118,,,,,,,,,,,,,,,,,,,,,,,,,,,,,,,,,,,819.4449385999469,820.446143600042,820.4294521999545,821.0092662000097,821.0092662000097,None,822.9969388999743,None,left,0.7336973999626935,822.9969388999743,None,823.7511238999432,None,right,0.3714107999112457,823.7511238999432,None,,,,,,,,,,,,,,,,,,,,,,,PPT09,001,2022-06-29_10h01.10.225,ABstudy,2022.1.4,59.9584368162001,
AB,Lag1_T1P_T2P,1,P,P,6,7,5,4,11,Bow,Did you see the Bow?,0.12,0.016,JPG\,broom01,plate01b,scissors01,garlic01a,paintbrush01,bow,stapler03a,shirt02,speaker04,celery,sandal,blankImage,blankImage,blankImage,blankImage,blankImage,blankImage,bow,,,,,,,,,,,,0,125,125,53,,,,,,,,,,,,,,,,,,,,,,,,,,,,,,,,,,,824.160865199985,825.1674139000243,825.150680199964,825.7232484000269,825.7232484000269,None,827.1268264000537,None,left,0.947120500029996,827.1268264000537,None,828.1036420000019,None,right,0.4423620000015944,828.1036420000019,None,,,,,,,,,,,,,,,,,,,,,,,PPT09,001,2022-06-29_10h01.10.225,ABstudy,2022.1.4,59.9584368162001,
AB,Lag1_T1P_T2A,1,P,A,8,9,7,5,14,Sausage,Did you see the Sausage?,0.12,0.016,JPG\,pencil01,broccoli01a,button01,sponge01,watermelon01,lipstick02a,comb02a,sausage,lighter01,sock01a,spoon01,blueberry01,belt02a,onion,blankImage,blankImage,blankImage,sausage,,,,,,,,,,,,0,126,126,175,,,,,,,,,,,,,,,,,,,,,,,,,,,,,,,,,,,828.622557100025,829.6220378000289,829.6220378000289,830.2043570999522,830.2043570999522,None,831.832787899999,None,left,0.7071283999830484,831.832787899999,None,832.5593270000536,None,right,0.49933479994069785,832.5593270000536,None,,,,,,,,,,,,,,,,,,,,,,,PPT09,001,2022-06-29_10h01.10.225,ABstudy,2022.1.4,59.9584368162001,
AB,Lag1_T1A_T2P,1,A,P,6,7,5,3,10,curtain,Did you see the curtain?,0.12,0.016,JPG\,carrot01,greenolive,fork03c,chain01,ashtray01,watermelon01,stapler06,printer02,comb02a,toaster01,blankImage,blankImage,blankImage,blankImage,blankImage,blankImage,blankImage,birdhouse,,,,,,,,,,,,0,127,127,249,,,,,,,,,,,,,,,,,,,,,,,,,,,,,,,,,,,833.0774870000314,834.0928996000439,834.0596397999907,834.6510647999821,834.6510647999821,None,835.8508349000476,None,right,13.143633200088516,835.8508349000476,None,849.02461209998,None,right,0.21012179995886981,849.02461209998,None,,,,,,,,,,,,,,,,,,,,,,,PPT09,001,2022-06-29_10h01.10.225,ABstudy,2022.1.4,59.9584368162001,
AB,Lag1_T1P_T2P,1,P,P,8,9,7,5,14,giraffe,Did you see the giraffe?,0.12,0.016,JPG\,pencil01,foosballtable,banana01,lipstick02a,toaster01,grape01,key01,giraffe,stapler03b,pineapple01a,strawberry,teabag,dandelion,paintbrush01,blankImage,blankImage,blankImage,giraffe,,,,,,,,,,,,0,128,128,0,,,,,,,,,,,,,,,,,,,,,,,,,,,,,,,,,,,849.2580972999567,850.259274699958,850.2425452000462,850.8015273000346,850.8015273000346,None,852.5556482999818,None,left,0.542153799906373,852.5556482999818,None,853.1286090000067,None,left,0.17822260002139956,853.1286090000067,None,,,,,,,,,,,,,,,,,,,,,,,PPT09,001,2022-06-29_10h01.10.225,ABstudy,2022.1.4,59.9584368162001,
AB,Lag5_T1P_T2P,5,P,P,6,11,5,5,16,table,Did you see the table?,0.12,0.016,JPG\,birthdaycandle,mushroom01,strawberry,match,cherry01,table01,hammer01,thermometer02b,sock01a,ring01,stapler06,banana01,toiletpaper01a,key01,sponge01,teabag,blankImage,table01,,,,,,,,,,,,0,129,129,144,,,,,,,,,,,,,,,,,,,,,,,,,,,,,,,,,,,853.3330174000002,854.3465392000508,854.3298982999986,854.8303516999586,854.8303516999586,None,856.8817895000102,None,left,0.648311399971135,856.8817895000102,None,857.5510737999575,None,left,0.19516160001512617,857.5510737999575,None,,,,,,,,,,,,,,,,,,,,,,,PPT09,001,2022-06-29_10h01.10.225,ABstudy,2022.1.4,59.9584368162001,
AB,Lag1_T1P_T2A,1,P,A,5,6,4,5,11,Toaster oven,Did you see the Toaster oven?,0.12,0.016,JPG\,fork03c,toothbrush03b,cellphone,fan,toasteroven,clock01a,ring01,eraser,sunglasses04,thermometer02b,violin,blankImage,blankImage,blankImage,blankImage,blankImage,blankImage,toasteroven,,,,,,,,,,,,0,130,130,200,,,,,,,,,,,,,,,,,,,,,,,,,,,,,,,,,,,857.7736580000492,858.7843299000524,858.7676721999887,859.3404119999614,859.3404119999614,None,860.6871014999924,None,right,0.8846063999226317,860.6871014999924,None,861.603782900027,None,right,0.43005200009793043,861.603782900027,None,,,,,,,,,,,,,,,,,,,,,,,PPT09,001,2022-06-29_10h01.10.225,ABstudy,2022.1.4,59.9584368162001,
AB,Lag5_T1A_T2P,5,A,P,7,12,6,4,16,hand,Did you see the hand?,0.12,0.016,JPG\,celery,tennisball01b,calculator01,pear01,screw02,orange,button01,cellphone,onion,apple07,iron01b,stapler05,banana01,paintbrush01,dandelion,toothbrush03b,blankImage,bull,,,,,,,,,,,,0,131,131,281,,,,,,,,,,,,,,,,,,,,,,,,,,,,,,,,,,,862.0576669999864,863.0719028000021,863.0385225999635,863.6228027000325,863.6228027000325,None,865.6431417999556,None,right,0.9433753000339493,865.6431417999556,None,866.6082003000192,None,right,0.2896361999446526,866.6082003000192,None,,,,,,,,,,,,,,,,,,,,,,,PPT09,001,2022-06-29_10h01.10.225,ABstudy,2022.1.4,59.9584368162001,
AB,Lag1_T1P_T2P,1,P,P,7,8,6,3,11,compass,Did you see the compass?,0.12,0.016,JPG\,brick,plate01b,pen04b,toaster01,screwdriver04b,candle01,magneticcompass,stapler03a,pig,ring01,orange,blankImage,blankImage,blankImage,blankImage,blankImage,blankImage,magneticcompass,,,,,,,,,,,,0,132,132,66,,,,,,,,,,,,,,,,,,,,,,,,,,,,,,,,,,,866.9316927000182,867.9435247000074,867.9268462000182,868.5055480999872,868.5055480999872,None,869.8233506999677,None,left,1.1465098999906331,869.8233506999677,None,870.9977508999873,None,right,0.23687150003388524,870.9977508999873,None,,,,,,,,,,,,,,,,,,,,,,,PPT09,001,2022-06-29_10h01.10.225,ABstudy,2022.1.4,59.9584368162001,
AB,Lag5_T1A_T2A,5,A,A,5,10,4,5,15,sword,Did you see the sword?,0.12,0.016,JPG\,pencil01,broccoli01a,button01,sponge01,watermelon01,lipstick02a,comb02a,fan,lighter01,sock01a,spoon01,blueberry01,belt02a,onion,grape01,blankImage,blankImage,parachute,,,,,,,,,,,,0,133,133,298,,,,,,,,,,,,,,,,,,,,,,,,,,,,,,,,,,,871.2654648999451,872.28088570002,872.2475520999869,872.8204908999614,872.8204908999614,None,874.7198409000412,None,right,1.170554600073956,874.7198409000412,None,875.9178139000433,None,right,0.6773797000059858,875.9178139000433,None,,,,,,,,,,,,,,,,,,,,,,,PPT09,001,2022-06-29_10h01.10.225,ABstudy,2022.1.4,59.9584368162001,
AB,Lag1_T1P_T2P,1,P,P,8,9,7,3,12,bridge,Did you see the bridge?,0.12,0.016,JPG\,speaker04,sewingmachine01a,eraser,violin,globe,belt02a,sunglasses04,bridge,stapler01,greenolive,alligator,pear01,blankImage,blankImage,blankImage,blankImage,blankImage,bridge,,,,,,,,,,,,0,134,134,78,,,,,,,,,,,,,,,,,,,,,,,,,,,,,,,,,,,876.6186342999572,877.6196762999753,877.6029480999568,878.1916212999495,878.1916212999495,None,879.6788235000568,None,left,0.9234996000304818,879.6788235000568,None,880.6239479000214,None,right,0.29017659998498857,880.6239479000214,None,,,,,,,,,,,,,,,,,,,,,,,PPT09,001,2022-06-29_10h01.10.225,ABstudy,2022.1.4,59.9584368162001,
AB,Lag1_T1P_T2P,1,P,P,7,8,6,5,13,dream catcher,Did you see the dream catcher?,0.12,0.016,JPG\,clock01a,cellphone,toaster01,toothbrush03b,cauliflower01,microscope,dreamcatcher,stapler05,scarf,clock04,sponge01,iron01b,watch02a,blankImage,blankImage,blankImage,blankImage,dreamcatcher,,,,,,,,,,,,0,135,135,81,,,,,,,,,,,,,,,,,,,,,,,,,,,,,,,,,,,880.9501899000024,881.9569783000043,881.9403211999452,882.5210985000012,882.5210985000012,None,884.1431709999451,None,left,0.6113884000806138,884.1431709999451,None,884.7780873000156,None,left,0.23170730005949736,884.7780873000156,None,,,,,,,,,,,,,,,,,,,,,,,PPT09,001,2022-06-29_10h01.10.225,ABstudy,2022.1.4,59.9584368162001,
AB,Lag1_T1P_T2P,1,P,P,8,9,7,3,12,snow globe,Did you see the Snow globe?,0.12,0.016,JPG\,eraser,measuringcup01,chain01,birthdaycandle,ring01,rice,8ball,stapler04b,stapler01,celery,microscope,sunglasses04,blankImage,blankImage,blankImage,blankImage,blankImage,snowglobe,,,,,,,,,,,,0,136,136,56,,,,,,,,,,,,,,,,,,,,,,,,,,,,,,,,,,,885.0380457000574,886.044390300056,886.0276811999502,886.6008600000059,886.6008600000059,None,888.0999200999504,None,right,1.198560000048019,888.0999200999504,None,889.3310721999733,None,left,0.35117550007998943,889.3310721999733,None,,,,,,,,,,,,,,,,,,,,,,,PPT09,001,2022-06-29_10h01.10.225,ABstudy,2022.1.4,59.9584368162001,
AB,Lag5_T1P_T2P,5,P,P,6,11,5,4,15,Bumper car,Did you see the Bumper car?,0.12,0.016,JPG\,eraser,measuringcup01,chain01,birthdaycandle,ring01,bumpercar,weight04a,pig,cauliflower01,celery,stapler01,sunglasses04,greenolive,candy,strawberry,blankImage,blankImage,bumpercar,,,,,,,,,,,,0,137,137,104,,,,,,,,,,,,,,,,,,,,,,,,,,,,,,,,,,,889.7174825000111,890.7325194999576,890.6991894999519,891.2768789000111,891.2768789000111,None,893.1432259000139,None,left,0.8748985999263823,893.1432259000139,None,894.0362516000168,None,right,0.2619231001008302,894.0362516000168,None,,,,,,,,,,,,,,,,,,,,,,,PPT09,001,2022-06-29_10h01.10.225,ABstudy,2022.1.4,59.9584368162001,
