TrialType,CondType,Lag,T1_PA,T2_PA,T1Loc,T2Loc,PreDistractor,PostDistractor,TotalImg,cueWord,T1cue,StimLength,isi,PicFolder,Img1,Img2,Img3,Img4,Img5,Img6,Img7,Img8,Img9,Img10,Img11,Img12,Img13,Img14,Img15,Img16,Img17,T1_Identity,ImageType,T1PA,T2PA,Picture,Image,FullPathName,FilePath,Practice_Trials.thisRepN,Practice_Trials.thisTrialN,Practice_Trials.thisN,Practice_Trials.thisIndex,trials.thisRepN,trials.thisTrialN,trials.thisN,trials.thisIndex,trials_2.thisRepN,trials_2.thisTrialN,trials_2.thisN,trials_2.thisIndex,Practice_Ins.started,Practice_Ins.stopped,End_Prac_Ins.keys,End_Prac_Ins.rt,End_Prac_Ins.started,End_Prac_Ins.stopped,text_2.started,text_2.stopped,Fixation_Cross_2.started,Fixation_Cross_2.stopped,Rapid_Image_Present_2.started,Rapid_Image_Present_2.stopped,key_resp.keys,key_resp.rt,key_resp.started,key_resp.stopped,T1Response_2.started,T1Response_2.stopped,T2Response_2.started,T2Response_2.stopped,key_resp_4.keys,key_resp_4.rt,key_resp_4.started,key_resp_4.stopped,text.started,text.stopped,End_Instructions.keys,End_Instructions.rt,End_Instructions.started,End_Instructions.stopped,text_5.started,text_5.stopped,FC.started,FC.stopped,Rapid_Image_Present.started,Rapid_Image_Present.stopped,T1Response.started,T1Response.stopped,key_resp_2.keys,key_resp_2.rt,key_resp_2.started,key_resp_2.stopped,T2Response.started,T2Response.stopped,key_resp_3.keys,key_resp_3.rt,key_resp_3.started,key_resp_3.stopped,text_6.started,text_6.stopped,Fin_ins.keys,Fin_ins.rt,Fin_ins.started,Fin_ins.stopped,MemTest.started,MemTest.stopped,MemResponse.keys,MemResponse.rt,MemResponse.started,MemResponse.stopped,Display.started,Display.stopped,text_7.started,text_7.stopped,endOfExperiment.started,endOfExperiment.stopped,key_resp_5.keys,key_resp_5.rt,key_resp_5.started,key_resp_5.stopped,participant,session,date,expName,psychopyVersion,frameRate
,,,,,,,,,,,,,,,,,,,,,,,,,,,,,,,,,,,,,,,,,,,,,,,,,,,,18.2644916,None,space,25.7971243,18.2644916,None,,,,,,,,,,,,,,,,,,,,,,,,,,,,,,,,,,,,,,,,,,,,,,,,,,,,,,,,,,,,,,,,,PPT10,1,2022-06-29_10h58.31.945,ABstudy,2022.1.4,59.92541683
AB_Prac,Lag1_T1P_T2P,1,P,P,8,9,7,5,14,Tennis racket,Did you see the Tennis racket?,0.5,0.016,JPG\,coconut,computermouse06,croissant01,deodorant02a,pillow01a,peanut01,boot02b,tennisracket,stapler03b,crayon,eggplant,marker01a,plant01,radish01,blankImage,blankImage,blankImage,tennisracket,,,,,,,,0,0,0,0,,,,,,,,,,,,,,,44.15793,45.1611761,45.1444841,45.7666515,45.7666515,None,left,1.0655997,52.7309178,None,52.7309178,None,53.8199367,None,left,0.8961638,53.8199367,None,,,,,,,,,,,,,,,,,,,,,,,,,,,,,,,,,,,,,,,,,,,,,,,PPT10,1,2022-06-29_10h58.31.945,ABstudy,2022.1.4,59.92541683
AB_Prac,Lag1_T1P_T2A,1,P,A,8,9,7,5,14,flower,Did you see the flower?,0.5,0.016,JPG\,razor01,axe01,binder03b,bowl01,kettle01,lettuce,lime,plasticflower01b,mitten04,pencilcase01,plunger02,strawbasket01,toothpick02,wallet02a,blankImage,blankImage,blankImage,plasticflower01b,,,,,,,,0,1,1,5,,,,,,,,,,,,,,,54.7388183,55.7386594,55.7219671,56.3031424,56.3031424,None,left,1.2181936,63.3541756,None,63.3541756,None,64.5968934,None,right,0.6233764,64.5968934,None,,,,,,,,,,,,,,,,,,,,,,,,,,,,,,,,,,,,,,,,,,,,,,,PPT10,1,2022-06-29_10h58.31.945,ABstudy,2022.1.4,59.92541683
AB_Prac,Lag5_T1P_T2P,5,P,P,5,10,4,5,15,Vulture,Did you see the Vulture?,0.5,0.016,JPG\,shorts01,toast,ramekin01,bib,vulture,cracker02,date,glasses01a,hat03b,stapler01,measuringtape01,nail,pill,drum01,starfish01,blankImage,blankImage,vulture,,,,,,,,0,2,2,3,,,,,,,,,,,,,,,65.2582323,66.2657714,66.2490979,66.837013,66.837013,None,left,0.8125179,74.4643588,None,74.4643588,None,75.3078224,None,left,0.5128819,75.3078224,None,,,,,,,,,,,,,,,,,,,,,,,,,,,,,,,,,,,,,,,,,,,,,,,PPT10,1,2022-06-29_10h58.31.945,ABstudy,2022.1.4,59.92541683
AB_Prac,Lag5_T1P_T2A,5,P,A,6,11,5,5,16,bread,Did you see the bread?,0.5,0.016,JPG\,cleaver01,clipboard,dustpan,hikingshoe01,notebook03a,baguette01,playingcard,pliers02b,styrofoamcup,rollingpin01a,swimgoggles,wineglass01,fryingpan02a,safetypin,syringe01,thimble,blankImage,baguette01,,,,,,,,0,3,3,8,,,,,,,,,,,,,,,75.8464552,76.8596247,76.8429371,77.422691,77.422691,None,left,0.870357,85.4149817,None,85.4149817,None,86.3037698,None,right,0.4211721,86.3037698,None,,,,,,,,,,,,,,,,,,,,,,,,,,,,,,,,,,,,,,,,,,,,,,,PPT10,1,2022-06-29_10h58.31.945,ABstudy,2022.1.4,59.92541683
AB_Prac,Lag5_T1P_T2P,5,P,P,5,10,4,5,15,washing machine,Did you see the washing machine?,0.5,0.016,JPG\,waterbottle03,wheel01,flashlight02b,zucchini01,washingmachine,headphones02b,nutcracker01,paintroller01,paperclip03,stapler06,ribbon04,electricrazor,bottleofredwine01,pitabread,pot02a,blankImage,blankImage,washingmachine,,,,,,,,0,4,4,4,,,,,,,,,,,,,,,86.7598184,87.770191,87.7535058,88.3314059,88.3314059,None,left,2.1022576,95.8708056,None,95.8708056,None,97.9970447,None,left,0.7760096,97.9970447,None,,,,,,,,,,,,,,,,,,,,,,,,,,,,,,,,,,,,,,,,,,,,,,,PPT10,1,2022-06-29_10h58.31.945,ABstudy,2022.1.4,59.92541683
AB_Prac,Lag5_T1P_T2P,5,P,P,7,12,6,3,15,vacuum,Did you see the vacuum?,0.5,0.016,JPG\,fork07b,lightbulb01,manshoe,saw02b,shoelace,soap03a,vacuumcleaner01,floortile01,necklace,doll,cabbage,stapler03a,hanger02a,laptop01a,nailpolish03b,blankImage,blankImage,vacuumcleaner01,,,,,,,,0,5,5,2,,,,,,,,,,,,,,,98.8064917,99.815714,99.7990781,100.3721078,100.3721078,None,left,0.8396847,107.9652345,None,107.9652345,None,108.8243521,None,left,0.6928721,108.8243521,None,,,,,,,,,,,,,,,,,,,,,,,,,,,,,,,,,,,,,,,,,,,,,,,PPT10,1,2022-06-29_10h58.31.945,ABstudy,2022.1.4,59.92541683
AB_Prac,Lag1_T1P_T2P,1,P,P,6,7,5,5,12,triangle,Did you see the triangle?,0.5,0.016,JPG\,ginger,mousetrap,plum01,slipper01b,dropper01,triangle,stapler04b,pants,raspberry01,rope03,scale01a,vase01,blankImage,blankImage,blankImage,blankImage,blankImage,triangle,,,,,,,,0,6,6,1,,,,,,,,,,,,,,,109.5484063,110.5600413,110.5434373,111.1334314,111.1334314,None,left,1.0132386,117.1752929,None,117.1752929,None,118.2178743,None,left,0.8583976,118.2178743,None,,,,,,,,,,,,,,,,,,,,,,,,,,,,,,,,,,,,,,,,,,,,,,,PPT10,1,2022-06-29_10h58.31.945,ABstudy,2022.1.4,59.92541683
AB_Prac,Lag1_T1A_T2A,1,A,A,8,9,7,3,12,Moose,Did you see the Moose?,0.5,0.016,JPG\,clothespin03b,corkscrew03a,drillbit03a,fusilli03a,needlenosepliers01,perfume01a,pistachio,scrubbingbrush05b,spatula03,toothpastetube,hinge,toydinosaur,blankImage,blankImage,blankImage,blankImage,blankImage,None,,,,,,,,0,7,7,10,,,,,,,,,,,,,,,119.1172831,120.1189466,120.1022589,120.695161,120.695161,None,right,4.8454136,126.7584661,None,126.7584661,None,131.6304229,None,right,0.4295609,131.6304229,None,,,,,,,,,,,,,,,,,,,,,,,,,,,,,,,,,,,,,,,,,,,,,,,PPT10,1,2022-06-29_10h58.31.945,ABstudy,2022.1.4,59.92541683
AB_Prac,Lag5_T1A_T2A,5,A,A,6,11,5,5,16,castle,Did you see the castle?,0.5,0.016,JPG\,tape02a,englishmuffin,flask,ladle02a,monitor,peach01,keychain,squeegee01b,telephone01b,whisk,walkman,syringe02,baguette01,coaster,box01a,coffeepot03a,blankImage,None,,,,,,,,0,8,8,11,,,,,,,,,,,,,,,132.0833321,133.0985015,133.0652433,133.6565221,133.6565221,None,right,1.7727831,141.6800954,None,141.6800954,None,143.4757065,None,right,0.6171237,143.4757065,None,,,,,,,,,,,,,,,,,,,,,,,,,,,,,,,,,,,,,,,,,,,,,,,PPT10,1,2022-06-29_10h58.31.945,ABstudy,2022.1.4,59.92541683
AB_Prac,Lag1_T1P_T2A,1,P,A,5,6,4,5,11,Webcam,Did you see the Webcam?,0.5,0.016,JPG\,pictureframe04,binder03b,straw,adjustablewrench01b,webcam,cane,hairdryer02a,icepack,kitchenscale01a,lifejacket,piggybank,blankImage,blankImage,blankImage,blankImage,blankImage,blankImage,webcam,,,,,,,,0,9,9,6,,,,,,,,,,,,,,,144.1194786,145.1273996,145.1106885,145.7794422,145.7794422,None,left,2.9148043,151.2180723,None,151.2180723,None,154.1528236,None,right,0.6669592,154.1528236,None,,,,,,,,,,,,,,,,,,,,,,,,,,,,,,,,,,,,,,,,,,,,,,,PPT10,1,2022-06-29_10h58.31.945,ABstudy,2022.1.4,59.92541683
AB_Prac,Lag5_T1P_T2A,5,P,A,6,11,5,5,16,Wheat,Did you see the Wheat?,0.5,0.016,JPG\,bottleopener01,dentalfloss03b,cooler01,icecreamcone01a,paperclip01b,wheat,pencilsharpener02a,plasticbasket01a,toycar04,apricot,hairclip02,rock01a,honeydewmelon,antenna,blackberry,cardboardbox,blankImage,wheat,,,,,,,,0,10,10,7,,,,,,,,,,,,,,,154.8400298,155.8545194,155.8211958,156.404774,156.404774,None,left,0.9380343,164.4744711,None,164.4744711,None,165.4323623,None,right,0.2999354,165.4323623,None,,,,,,,,,,,,,,,,,,,,,,,,,,,,,,,,,,,,,,,,,,,,,,,PPT10,1,2022-06-29_10h58.31.945,ABstudy,2022.1.4,59.92541683
AB_Prac,Lag5_T1A_T2P,5,A,P,6,11,5,3,14,dog,Did you see the dog?,0.5,0.016,JPG\,bucket01a,doorlock,cookiecutter,fireextinguisher01,gluestick,highlighter02b,sportbag,spraybottle01,suitcase,thread02,stapler05,walnut01c,icecubetray01a,vikingmask01b,blankImage,blankImage,blankImage,None,,,,,,,,0,11,11,9,,,,,,,,,,,,,,,165.7795052,166.7824215,166.7487374,167.3789449,167.3789449,None,right,1.0842321,174.3519361,None,174.3519361,None,175.4576732,None,left,0.3784342,175.4576732,None,,,,,,,,,,,,,,,,,,,,,,,,,,,,,,,,,,,,,,,,,,,,,,,PPT10,1,2022-06-29_10h58.31.945,ABstudy,2022.1.4,59.92541683
,,,,,,,,,,,,,,,,,,,,,,,,,,,,,,,,,,,,,,,,,,,,,,,,,,,,,,,,,,,,,,,,,,,,,,,,,,,,175.8583341,None,space,15.4093909,175.8583341,None,,,,,,,,,,,,,,,,,,,,,,,,,,,,,,,,,,,,,,,,,PPT10,1,2022-06-29_10h58.31.945,ABstudy,2022.1.4,59.92541683
AB,Lag5_T1P_T2A,5,P,A,7,12,6,5,17,corn,Did you see the corn?,0.12,0.016,JPG\,avocado01,pingpongpaddle01c,match,cauliflower01,paintbrush01,clock01a,corn02,cd,balloon01b,cellphone,watch02a,pear01,toaster01,sponge01,orange,blueberry01,blankImage,corn02,,,,,,,,,,,,0,0,0,210,,,,,,,,,,,,,,,,,,,,,,,,,,,,,,,,,,,192.0193935,193.0249104,193.0084808,193.6319839,193.6319839,None,195.5455583,None,left,1.6585615,195.5455583,None,197.2290214,None,right,0.6067246,197.2290214,None,,,,,,,,,,,,,,,,,,,,,,,PPT10,1,2022-06-29_10h58.31.945,ABstudy,2022.1.4,59.92541683
AB,Lag5_T1P_T2A,5,P,A,5,10,4,3,13,cork,Did you see the cork?,0.12,0.016,JPG\,clock01a,grape01,plate01b,key01,cork02,feather03a,pineapple01a,iron01b,toothbrush03b,comb02a,broom01,toaster01,pizza,blankImage,blankImage,blankImage,blankImage,cork02,,,,,,,,,,,,0,1,1,209,,,,,,,,,,,,,,,,,,,,,,,,,,,,,,,,,,,197.8656468,198.8809162,198.8475773,199.4210789,199.4210789,None,201.0473096,None,left,2.4288258,201.0473096,None,203.5021189,None,right,0.5984404,203.5021189,None,,,,,,,,,,,,,,,,,,,,,,,PPT10,1,2022-06-29_10h58.31.945,ABstudy,2022.1.4,59.92541683
AB,Lag1_T1P_T2P,1,P,P,7,8,6,3,11,compass,Did you see the compass?,0.12,0.016,JPG\,brick,plate01b,pen04b,toaster01,screwdriver04b,candle01,magneticcompass,stapler03a,pig,ring01,orange,blankImage,blankImage,blankImage,blankImage,blankImage,blankImage,magneticcompass,,,,,,,,,,,,0,2,2,66,,,,,,,,,,,,,,,,,,,,,,,,,,,,,,,,,,,204.1267813,205.137527,205.1207941,205.716978,205.716978,None,207.0275463,None,left,2.1209404,207.0275463,None,209.1744467,None,left,0.3412932,209.1744467,None,,,,,,,,,,,,,,,,,,,,,,,PPT10,1,2022-06-29_10h58.31.945,ABstudy,2022.1.4,59.92541683
AB,Lag5_T1P_T2P,5,P,P,5,10,4,5,15,Eye,Did you see the Eye?,0.12,0.016,JPG\,apple07,toiletpaper01a,pizza,dandelion,eye,eraser,microscope,violin,orange,stapler01,balloon01b,sandal,lighter01,fan,book01b,blankImage,blankImage,eye,,,,,,,,,,,,0,3,3,171,,,,,,,,,,,,,,,,,,,,,,,,,,,,,,,,,,,209.5845652,210.5923103,210.5589324,211.1862307,211.1862307,None,212.9440076,None,left,0.7643152,212.9440076,None,213.7283793,None,left,0.3871881,213.7283793,None,,,,,,,,,,,,,,,,,,,,,,,PPT10,1,2022-06-29_10h58.31.945,ABstudy,2022.1.4,59.92541683
AB,Lag5_T1P_T2P,5,P,P,5,10,4,4,14,bell,Did you see the bell?,0.12,0.016,JPG\,teabag,envelope03a,cellphone,apple07,callbell,orange,brownsugar,book01b,hammer01,stapler03b,toaster01,calculator01,globe,battery02b,blankImage,blankImage,blankImage,callbell,,,,,,,,,,,,0,4,4,147,,,,,,,,,,,,,,,,,,,,,,,,,,,,,,,,,,,214.1487378,215.1636789,215.1302672,215.7241986,215.7241986,None,217.5258701,None,left,1.7034549,217.5258701,None,219.2510625,None,left,0.3786089,219.2510625,None,,,,,,,,,,,,,,,,,,,,,,,PPT10,1,2022-06-29_10h58.31.945,ABstudy,2022.1.4,59.92541683
AB,Lag5_T1P_T2P,5,P,P,8,13,7,5,18,hand,Did you see the hand?,0.12,0.016,JPG\,foosballtable,candy,envelope03a,microscope,pencil01,leaf02a,scissors01,hand01b,grape01,dandelion,pineapple01a,hammer01,stapler03a,thermometer02b,ring01,sewingmachine01a,blankImage,hand01b,,,,,,,,,,,,0,5,5,131,,,,,,,,,,,,,,,,,,,,,,,,,,,,,,,,,,,219.6551896,220.6692436,220.6527572,221.1546088,221.1388862,None,223.1593983,None,left,0.9654979,223.1593983,None,224.1562964,None,left,0.3278074,224.1562964,None,,,,,,,,,,,,,,,,,,,,,,,PPT10,1,2022-06-29_10h58.31.945,ABstudy,2022.1.4,59.92541683
AB,Lag5_T1A_T2A,5,A,A,7,12,6,3,15,Christmas lights,Did you see the Christmas lights?,0.12,0.016,JPG\,toiletpaper01a,mushroom01,medal02b,sandal,rice,cd,feather03a,pizza,candle08b,garlic01a,toaster01,belt02a,cigarette,violin,lemon02,blankImage,blankImage,rockbass,,,,,,,,,,,,0,6,6,299,,,,,,,,,,,,,,,,,,,,,,,,,,,,,,,,,,,224.5129211,225.5240556,225.5072953,226.0927666,226.0927666,None,227.9153564,None,right,1.0567661,227.9153564,None,228.9939083,None,right,1.0982083,228.9939083,None,,,,,,,,,,,,,,,,,,,,,,,PPT10,1,2022-06-29_10h58.31.945,ABstudy,2022.1.4,59.92541683
AB,Lag1_T1P_T2P,1,P,P,5,6,4,3,9,dolphin,Did you see the dolphin?,0.12,0.016,JPG\,pig,belt02a,rice,screwdriver04b,dolphin01,stapler05,candle08b,pear01,feather03a,blankImage,blankImage,blankImage,blankImage,blankImage,blankImage,blankImage,blankImage,dolphin01,,,,,,,,,,,,0,7,7,10,,,,,,,,,,,,,,,,,,,,,,,,,,,,,,,,,,,230.1140498,231.1294232,231.0960142,231.5967579,231.5967579,None,232.8428999,None,right,1.4416756,232.8428999,None,234.3160972,None,left,0.4637633,234.3160972,None,,,,,,,,,,,,,,,,,,,,,,,PPT10,1,2022-06-29_10h58.31.945,ABstudy,2022.1.4,59.92541683
AB,Lag1_T1P_T2P,1,P,P,7,8,6,3,11,swing,Did you see the swing?,0.12,0.016,JPG\,sewingmachine01a,thermometer02b,sponge01,eraser,broccoli01a,fork03c,swing,stapler03b,belt02a,medal02b,pineapple01a,blankImage,blankImage,blankImage,blankImage,blankImage,blankImage,swing,,,,,,,,,,,,0,8,8,30,,,,,,,,,,,,,,,,,,,,,,,,,,,,,,,,,,,234.8563245,235.8676718,235.8509393,236.444678,236.444678,None,237.7695472,None,left,1.0747258,237.7695472,None,238.8706393,None,left,0.6536126,238.8706393,None,,,,,,,,,,,,,,,,,,,,,,,PPT10,1,2022-06-29_10h58.31.945,ABstudy,2022.1.4,59.92541683
AB,Lag5_T1P_T2A,5,P,A,8,13,7,4,17,Tarantula,Did you see the Tarantula?,0.12,0.016,JPG\,binoculars01b,speaker04,sandal,envelope03a,plate01b,comb02a,battery02b,tarantula,measuringcup01,key01,medal02b,lamp04a,tennisball01b,pizza,cigarette,sunglasses04,blankImage,tarantula,,,,,,,,,,,,0,9,9,201,,,,,,,,,,,,,,,,,,,,,,,,,,,,,,,,,,,239.5593266,240.5719475,240.5552835,241.1308088,241.1308088,None,243.0432386,None,left,0.9606478,243.0432386,None,244.0257688,None,right,0.4980412,244.0257688,None,,,,,,,,,,,,,,,,,,,,,,,PPT10,1,2022-06-29_10h58.31.945,ABstudy,2022.1.4,59.92541683
AB,Lag5_T1P_T2P,5,P,P,5,10,4,3,13,bathtub,Did you see the bathtub?,0.12,0.016,JPG\,belt02a,sunglasses04,computerkeyboard02,cherry01,bathtub,eraser,watch02a,dice05a,blueberry01,stapler04b,match,leaf02a,iron01b,blankImage,blankImage,blankImage,blankImage,bathtub,,,,,,,,,,,,0,10,10,103,,,,,,,,,,,,,,,,,,,,,,,,,,,,,,,,,,,244.6051478,245.6106414,245.5939642,246.1790169,246.1790169,None,247.7298485,None,right,1.8105102,247.7298485,None,249.5646974,None,left,1.1192377,249.5646974,None,,,,,,,,,,,,,,,,,,,,,,,PPT10,1,2022-06-29_10h58.31.945,ABstudy,2022.1.4,59.92541683
AB,Lag5_T1A_T2P,5,A,P,5,10,4,5,15,shower,Did you see the shower?,0.12,0.016,JPG\,sewingmachine01a,thermometer02b,sponge01,eraser,broccoli01a,fork03c,pizza,violin,belt02a,stapler04b,pineapple01a,tennisball01b,dandelion,cauliflower01,lemon02,blankImage,blankImage,redfox,,,,,,,,,,,,0,11,11,271,,,,,,,,,,,,,,,,,,,,,,,,,,,,,,,,,,,250.7209426,251.7330313,251.7163386,252.2992139,252.2992139,None,254.0884152,None,left,1.8110388,254.0884152,None,255.9208129,None,left,3.6752611,255.9208129,None,,,,,,,,,,,,,,,,,,,,,,,PPT10,1,2022-06-29_10h58.31.945,ABstudy,2022.1.4,59.92541683
AB,Lag1_T1P_T2A,1,P,A,5,6,4,5,11,Electric toothbrush,Did you see the Electric toothbrush?,0.12,0.016,JPG\,carrot01,greenolive,fork03c,chain01,electrictoothbrush01c,watermelon01,tableknife02,printer02,comb02a,toaster01,orange,blankImage,blankImage,blankImage,blankImage,blankImage,blankImage,electrictoothbrush01c,,,,,,,,,,,,0,12,12,186,,,,,,,,,,,,,,,,,,,,,,,,,,,,,,,,,,,259.6897426,260.6927117,260.6761151,261.2693248,261.2693248,None,262.531941,None,left,1.5360215,262.531941,None,264.0955431,None,right,0.4203787,264.0955431,None,,,,,,,,,,,,,,,,,,,,,,,PPT10,1,2022-06-29_10h58.31.945,ABstudy,2022.1.4,59.92541683
AB,Lag1_T1P_T2A,1,P,A,6,7,5,5,12,Barn,Did you see the Barn?,0.12,0.016,JPG\,celery,pencil01,fan,foosballtable,iron01b,barn,potato02b,fork03c,button01,pineapple01a,baseball01a,printer02,blankImage,blankImage,blankImage,blankImage,blankImage,barn,,,,,,,,,,,,0,13,13,181,,,,,,,,,,,,,,,,,,,,,,,,,,,,,,,,,,,264.552607,265.5638115,265.5472203,266.1138305,266.1138305,None,267.6494434,None,left,0.8983355,267.6494434,None,268.5667831,None,left,1.1645626,268.5667831,None,,,,,,,,,,,,,,,,,,,,,,,PPT10,1,2022-06-29_10h58.31.945,ABstudy,2022.1.4,59.92541683
AB,Lag5_T1P_T2P,5,P,P,6,11,5,4,15,saxophone,Did you see the saxophone?,0.12,0.016,JPG\,pizza,strawberry,potato02b,speaker04,battery02b,saxophone,dice05a,cellphone,globe,banana01,stapler03b,baseball01a,toaster01,broom01,ring01,blankImage,blankImage,saxophone,,,,,,,,,,,,0,14,14,117,,,,,,,,,,,,,,,,,,,,,,,,,,,,,,,,,,,269.7601553,270.7691959,270.7524753,271.3385438,271.3385438,None,273.1800369,None,left,0.4891093,273.1800369,None,273.689173,None,left,0.3708278,273.689173,None,,,,,,,,,,,,,,,,,,,,,,,PPT10,1,2022-06-29_10h58.31.945,ABstudy,2022.1.4,59.92541683
AB,Lag5_T1P_T2P,5,P,P,8,13,7,4,17,Accordion,Did you see the Accordion?,0.12,0.016,JPG\,toiletpaper01a,lipstick02a,potato02b,speaker04,globe,strawberry,carrot01,accordion01,sock01a,candle08b,pen04b,calculator01,stapler01,brick,pear01,fork03c,blankImage,accordion01,,,,,,,,,,,,0,15,15,162,,,,,,,,,,,,,,,,,,,,,,,,,,,,,,,,,,,274.097632,275.1067568,275.0901724,275.677034,275.677034,None,277.5769749,None,left,0.5702678,277.5769749,None,278.1765137,None,left,0.3070016,278.1765137,None,,,,,,,,,,,,,,,,,,,,,,,PPT10,1,2022-06-29_10h58.31.945,ABstudy,2022.1.4,59.92541683
AB,Lag1_T1P_T2A,1,P,A,7,8,6,5,13,Well,Did you see the Well?,0.12,0.016,JPG\,leaf02a,apple07,cd,pineapple01a,envelope03a,paintbrush01,well,acorn,rice,feather03a,lemon02,balloon01b,avocado01,blankImage,blankImage,blankImage,blankImage,well,,,,,,,,,,,,0,16,16,178,,,,,,,,,,,,,,,,,,,,,,,,,,,,,,,,,,,278.5159724,279.5273136,279.5106463,280.0841498,280.0841498,None,281.6720855,None,left,0.7152058,281.6720855,None,282.4137496,None,right,0.2953666,282.4137496,None,,,,,,,,,,,,,,,,,,,,,,,PPT10,1,2022-06-29_10h58.31.945,ABstudy,2022.1.4,59.92541683
AB,Lag1_T1P_T2A,1,P,A,7,8,6,4,12,gorilla,Did you see the gorilla?,0.12,0.016,JPG\,scissors01,ashtray01,garlic01a,medal02b,cigarette,candle08b,gorilla,envelope03a,cucumber,rice,toiletpaper01a,greenolive,blankImage,blankImage,blankImage,blankImage,blankImage,gorilla,,,,,,,,,,,,0,17,17,189,,,,,,,,,,,,,,,,,,,,,,,,,,,,,,,,,,,282.781894,283.7834794,283.7665966,284.4382369,284.3570984,None,285.7906987,None,left,1.5973039,285.7906987,None,287.4187113,None,right,0.2892785,287.4187113,None,,,,,,,,,,,,,,,,,,,,,,,PPT10,1,2022-06-29_10h58.31.945,ABstudy,2022.1.4,59.92541683
AB,Lag5_T1P_T2P,5,P,P,7,12,6,4,16,flower,Did you see the flower?,0.12,0.016,JPG\,cucumber,sponge01,alligator,pear01,ashtray01,hammer01,hibiscusflower02,battery02b,fork03c,binoculars01b,mushroom01,stapler01,leaf02a,acorn,comb02a,screwdriver04b,blankImage,hibiscusflower02,,,,,,,,,,,,0,18,18,132,,,,,,,,,,,,,,,,,,,,,,,,,,,,,,,,,,,287.7508974,288.753536,288.7200352,289.3040856,289.3040856,None,291.2642154,None,left,0.4829693,291.2642154,None,291.7745741,None,left,0.3405911,291.7745741,None,,,,,,,,,,,,,,,,,,,,,,,PPT10,1,2022-06-29_10h58.31.945,ABstudy,2022.1.4,59.92541683
AB,Lag1_T1P_T2P,1,P,P,7,8,6,5,13,arrow,Did you see the arrow?,0.12,0.016,JPG\,pencil01,broccoli01a,button01,sponge01,watermelon01,lipstick02a,arrow02,stapler04b,lighter01,sock01a,spoon01,blueberry01,belt02a,blankImage,blankImage,blankImage,blankImage,arrow02,,,,,,,,,,,,0,19,19,76,,,,,,,,,,,,,,,,,,,,,,,,,,,,,,,,,,,292.2240501,293.2246608,293.2080484,293.7804955,293.7804955,None,295.3304933,None,left,0.8729212,295.3304933,None,296.2277834,None,left,0.3358205,296.2277834,None,,,,,,,,,,,,,,,,,,,,,,,PPT10,1,2022-06-29_10h58.31.945,ABstudy,2022.1.4,59.92541683
AB,Lag5_T1P_T2P,5,P,P,5,10,4,3,13,Rabbit,Did you see the Rabbit?,0.12,0.016,JPG\,celery,tennisball01b,calculator01,pear01,jackrabbit,orange,button01,cellphone,onion,stapler06,iron01b,brownsugar,banana01,blankImage,blankImage,blankImage,blankImage,jackrabbit,,,,,,,,,,,,0,20,20,90,,,,,,,,,,,,,,,,,,,,,,,,,,,,,,,,,,,296.5971569,297.6123071,297.578975,298.1942097,298.1942097,None,299.7982222,None,left,0.5976779,299.7982222,None,300.414942,None,left,0.3329033,300.414942,None,,,,,,,,,,,,,,,,,,,,,,,PPT10,1,2022-06-29_10h58.31.945,ABstudy,2022.1.4,59.92541683
AB,Lag5_T1P_T2P,5,P,P,5,10,4,3,13,Sushi,Did you see the Sushi?,0.12,0.016,JPG\,carrot01,greenolive,fork03c,chain01,makiroll,watermelon01,tableknife02,printer02,comb02a,stapler03b,orange,rice,fan,blankImage,blankImage,blankImage,blankImage,makiroll,,,,,,,,,,,,0,21,21,135,,,,,,,,,,,,,,,,,,,,,,,,,,,,,,,,,,,300.7656617,301.7668179,301.7499513,302.3354688,302.3354688,None,303.9199419,None,left,0.5641622,303.9199419,None,304.5025665,None,left,0.309468,304.5025665,None,,,,,,,,,,,,,,,,,,,,,,,PPT10,1,2022-06-29_10h58.31.945,ABstudy,2022.1.4,59.92541683
AB,Lag5_T1P_T2A,5,P,A,7,12,6,3,15,helmet,Did you see the helmet?,0.12,0.016,JPG\,fork03c,belt02a,grape01,computerkeyboard02,lemon02,printer02,skihelmet01,toiletpaper01a,toaster01,lipstick02a,book01b,blueberry01,spoon01,apple07,avocado01,blankImage,blankImage,skihelmet01,,,,,,,,,,,,0,22,22,225,,,,,,,,,,,,,,,,,,,,,,,,,,,,,,,,,,,304.8404745,305.8538759,305.8371955,306.4149928,306.4149928,None,308.291807,None,right,1.2799858,308.291807,None,309.5909859,None,right,0.6853248,309.5909859,None,,,,,,,,,,,,,,,,,,,,,,,PPT10,1,2022-06-29_10h58.31.945,ABstudy,2022.1.4,59.92541683
AB,Lag5_T1P_T2P,5,P,P,5,10,4,3,13,lollipop,Did you see the lollipop?,0.12,0.016,JPG\,brownsugar,candle01,match,printer02,lollipop04,balloon01b,belt02a,potato02b,computerkeyboard02,stapler03a,rice,mushroom01,pencil01,blankImage,blankImage,blankImage,blankImage,lollipop04,,,,,,,,,,,,0,23,23,112,,,,,,,,,,,,,,,,,,,,,,,,,,,,,,,,,,,310.3134536,311.3262268,311.3091192,311.809873,311.809873,None,313.4546866,None,left,0.5022103,313.4546866,None,313.9784709,None,left,0.2335501,313.9784709,None,,,,,,,,,,,,,,,,,,,,,,,PPT10,1,2022-06-29_10h58.31.945,ABstudy,2022.1.4,59.92541683
AB,Lag1_T1P_T2P,1,P,P,7,8,6,5,13,disco ball,Did you see the disco ball?,0.12,0.016,JPG\,candle01,paintbrush01,scissors01,fan,microscope,toothbrush03b,discoball,stapler03b,teabag,pencil01,lemon02,ashtray01,shirt02,blankImage,blankImage,blankImage,blankImage,discoball,,,,,,,,,,,,0,24,24,60,,,,,,,,,,,,,,,,,,,,,,,,,,,,,,,,,,,314.2319661,315.2464345,315.2297494,315.8566798,315.7869712,None,317.3802301,None,left,1.2074331,317.3802301,None,318.6166052,None,left,0.2751601,318.6166052,None,,,,,,,,,,,,,,,,,,,,,,,PPT10,1,2022-06-29_10h58.31.945,ABstudy,2022.1.4,59.92541683
AB,Lag1_T1A_T2P,1,A,P,8,9,7,3,12,elbow,Did you see the elbow?,0.12,0.016,JPG\,watermelon01,cigarette,faucet,cymbal,cauliflower01,feather03a,cherry01,broom01,stapler01,key01,baseball01a,iron01b,blankImage,blankImage,blankImage,blankImage,blankImage,cashregister01,,,,,,,,,,,,0,25,25,251,,,,,,,,,,,,,,,,,,,,,,,,,,,,,,,,,,,318.9211501,319.934582,319.9178749,320.5243089,320.5243089,None,321.9869865,None,right,0.9855187,321.9869865,None,323.0043491,None,left,0.3282517,323.0043491,None,,,,,,,,,,,,,,,,,,,,,,,PPT10,1,2022-06-29_10h58.31.945,ABstudy,2022.1.4,59.92541683
AB,Lag5_T1P_T2P,5,P,P,5,10,4,3,13,rose,Did you see the rose?,0.12,0.016,JPG\,lipstick02a,cucumber,candle08b,printer02,rose,violin,paintbrush01,lighter01,belt02a,stapler03b,thermometer02b,microscope,cigarette,blankImage,blankImage,blankImage,blankImage,rose,,,,,,,,,,,,0,26,26,158,,,,,,,,,,,,,,,,,,,,,,,,,,,,,,,,,,,323.3582183,324.3724097,324.3557513,324.9747841,324.9052127,None,326.4872605,None,left,0.6201739,326.4872605,None,327.1249551,None,left,0.2955682,327.1249551,None,,,,,,,,,,,,,,,,,,,,,,,PPT10,1,2022-06-29_10h58.31.945,ABstudy,2022.1.4,59.92541683
AB,Lag5_T1A_T2P,5,A,P,6,11,5,5,16,bed,Did you see the bed?,0.12,0.016,JPG\,cellphone,tomato01,comb02a,candy,celery,cucumber,toaster01,fan,feather03a,pen04b,stapler03b,blueberry01,plate01b,cherry01,baseball01a,candle08b,blankImage,toolbox02,,,,,,,,,,,,0,27,27,274,,,,,,,,,,,,,,,,,,,,,,,,,,,,,,,,,,,327.4442751,328.4595164,328.4262162,329.0089987,329.0089987,None,330.9731939,None,right,0.8859976,330.9731939,None,331.8810469,None,left,0.4420912,331.8810469,None,,,,,,,,,,,,,,,,,,,,,,,PPT10,1,2022-06-29_10h58.31.945,ABstudy,2022.1.4,59.92541683
AB,Lag1_T1P_T2P,1,P,P,5,6,4,5,11,Guitar case,Did you see the Guitar case?,0.12,0.016,JPG\,broccoli01a,scissors01,toothbrush03b,foosballtable,guitarcase,stapler05,hammer01,toiletpaper01a,cd,garlic01a,carrot01,blankImage,blankImage,blankImage,blankImage,blankImage,blankImage,guitarcase,,,,,,,,,,,,0,28,28,14,,,,,,,,,,,,,,,,,,,,,,,,,,,,,,,,,,,332.3595723,333.3642159,333.3475356,333.9218851,333.9218851,None,335.2632786,None,left,0.9162721,335.2632786,None,336.2005438,None,left,0.8667602,336.2005438,None,,,,,,,,,,,,,,,,,,,,,,,PPT10,1,2022-06-29_10h58.31.945,ABstudy,2022.1.4,59.92541683
AB,Lag5_T1P_T2A,5,P,A,8,13,7,3,16,Shelves,Did you see the Shelves?,0.12,0.016,JPG\,pineapple01a,leaf02a,grape01,toiletpaper01a,match,tennisball01b,spoon01,shelves,pig,measuringcup01,ring01,lemon02,dice05a,pizza,potato02b,eraser,blankImage,shelves,,,,,,,,,,,,0,29,29,222,,,,,,,,,,,,,,,,,,,,,,,,,,,,,,,,,,,337.087093,338.1025023,338.0690747,338.6527483,338.6527483,None,340.6520236,None,left,0.855289,340.6520236,None,341.539509,None,right,0.3600418,341.539509,None,,,,,,,,,,,,,,,,,,,,,,,PPT10,1,2022-06-29_10h58.31.945,ABstudy,2022.1.4,59.92541683
AB,Lag5_T1P_T2P,5,P,P,7,12,6,3,15,lips,Did you see the lips?,0.12,0.016,JPG\,cigarette,fork03c,greenolive,broccoli01a,avocado01,tennisball01b,lip,leaf02a,pig,fan,clock01a,stapler03a,envelope03a,birthdaycandle,teabag,blankImage,blankImage,lip,,,,,,,,,,,,0,30,30,95,,,,,,,,,,,,,,,,,,,,,,,,,,,,,,,,,,,341.9794333,342.9911937,342.9745875,343.5369727,343.5369727,None,345.3200574,None,left,0.5949456,345.3200574,None,345.9437181,None,left,0.2515519,345.9437181,None,,,,,,,,,,,,,,,,,,,,,,,PPT10,1,2022-06-29_10h58.31.945,ABstudy,2022.1.4,59.92541683
AB,Lag1_T1P_T2A,1,P,A,7,8,6,3,11,walkie talkie,Did you see the walkie talkie?,0.12,0.016,JPG\,teabag,envelope03a,cellphone,apple07,cauliflower01,orange,walkietalkie,book01b,hammer01,feather03a,toaster01,blankImage,blankImage,blankImage,blankImage,blankImage,blankImage,walkietalkie,,,,,,,,,,,,0,31,31,197,,,,,,,,,,,,,,,,,,,,,,,,,,,,,,,,,,,346.2317494,347.2452215,347.2283427,347.7984615,347.7984615,None,349.2127822,None,left,0.8548477,349.2127822,None,350.0979381,None,right,0.6257293,350.0979381,None,,,,,,,,,,,,,,,,,,,,,,,PPT10,1,2022-06-29_10h58.31.945,ABstudy,2022.1.4,59.92541683
AB,Lag1_T1A_T2P,1,A,P,5,6,4,3,9,barrel,Did you see the barrel?,0.12,0.016,JPG\,clock01a,cellphone,toaster01,toothbrush03b,cauliflower01,stapler01,comb02a,paintbrush01,scarf,blankImage,blankImage,blankImage,blankImage,blankImage,blankImage,blankImage,blankImage,sheep,,,,,,,,,,,,0,32,32,243,,,,,,,,,,,,,,,,,,,,,,,,,,,,,,,,,,,350.7539663,351.7663471,351.7496368,352.4460006,352.4460006,None,353.4531096,None,right,1.2622947,353.4531096,None,354.735997,None,left,0.3073873,354.735997,None,,,,,,,,,,,,,,,,,,,,,,,PPT10,1,2022-06-29_10h58.31.945,ABstudy,2022.1.4,59.92541683
AB,Lag5_T1P_T2A,5,P,A,5,10,4,5,15,Shield,Did you see the Shield?,0.12,0.016,JPG\,cigarette,fork03c,greenolive,broccoli01a,shield02,tennisball01b,balloon01b,leaf02a,pig,fan,clock01a,strawberry,envelope03a,birthdaycandle,teabag,blankImage,blankImage,shield02,,,,,,,,,,,,0,33,33,223,,,,,,,,,,,,,,,,,,,,,,,,,,,,,,,,,,,355.0768386,356.0873481,356.0706162,356.6383578,356.6383578,None,358.5112097,None,right,1.2120266,358.5112097,None,359.7406735,None,right,0.327357,359.7406735,None,,,,,,,,,,,,,,,,,,,,,,,PPT10,1,2022-06-29_10h58.31.945,ABstudy,2022.1.4,59.92541683
AB,Lag1_T1A_T2P,1,A,P,8,9,7,4,13,nose,Did you see the nose?,0.12,0.016,JPG\,pizza,strawberry,potato02b,speaker04,battery02b,iron01b,dice05a,cellphone,stapler06,banana01,medal02b,baseball01a,toaster01,blankImage,blankImage,blankImage,blankImage,cow,,,,,,,,,,,,0,34,34,231,,,,,,,,,,,,,,,,,,,,,,,,,,,,,,,,,,,360.0932914,361.1089401,361.0755854,361.7175371,361.7175371,None,363.2763179,None,right,1.0069318,363.2763179,None,364.3120204,None,left,0.2835869,364.3120204,None,,,,,,,,,,,,,,,,,,,,,,,PPT10,1,2022-06-29_10h58.31.945,ABstudy,2022.1.4,59.92541683
AB,Lag5_T1P_T2P,5,P,P,5,10,4,5,15,penguin,Did you see the penguin?,0.12,0.016,JPG\,watermelon01,cigarette,pintofbeer,cymbal,penguin,feather03a,cherry01,broom01,battery02b,stapler05,baseball01a,iron01b,garlic01a,computerkeyboard02,pig,blankImage,blankImage,penguin,,,,,,,,,,,,0,35,35,137,,,,,,,,,,,,,,,,,,,,,,,,,,,,,,,,,,,364.6175316,365.6300029,365.6132599,366.2084971,366.2084971,None,367.9773513,None,left,1.2578401,367.9773513,None,369.2671364,None,right,0.2718686,369.2671364,None,,,,,,,,,,,,,,,,,,,,,,,PPT10,1,2022-06-29_10h58.31.945,ABstudy,2022.1.4,59.92541683
AB,Lag5_T1P_T2P,5,P,P,5,10,4,5,15,Safe,Did you see the Safe?,0.12,0.016,JPG\,candle01,shirt02,brick,orange,safe,toothbrush03b,pizza,thermometer02b,book01b,stapler01,sewingmachine01a,toaster01,candy,cymbal,potato02b,blankImage,blankImage,safe,,,,,,,,,,,,0,36,36,159,,,,,,,,,,,,,,,,,,,,,,,,,,,,,,,,,,,369.5744569,370.5850574,370.568174,371.1345297,371.1345297,None,373.0075108,None,left,0.4521393,373.0075108,None,373.4876104,None,left,0.2511036,373.4876104,None,,,,,,,,,,,,,,,,,,,,,,,PPT10,1,2022-06-29_10h58.31.945,ABstudy,2022.1.4,59.92541683
AB,Lag1_T1P_T2A,1,P,A,5,6,4,4,10,bird,Did you see the bird?,0.12,0.016,JPG\,toaster01,scarf,toiletpaper01a,calculator01,swallow,sewingmachine01a,fan,teabag,strawberry,balloon01b,blankImage,blankImage,blankImage,blankImage,blankImage,blankImage,blankImage,swallow,,,,,,,,,,,,0,37,37,195,,,,,,,,,,,,,,,,,,,,,,,,,,,,,,,,,,,373.7709604,374.7722782,374.7555932,375.3439018,375.3439018,None,376.6259182,None,left,1.1213658,376.6259182,None,377.7755828,None,right,0.3081211,377.7755828,None,,,,,,,,,,,,,,,,,,,,,,,PPT10,1,2022-06-29_10h58.31.945,ABstudy,2022.1.4,59.92541683
AB,Lag5_T1A_T2P,5,A,P,5,10,4,3,13,flower,Did you see the flower?,0.12,0.016,JPG\,cucumber,ring01,lipstick02a,microscope,violin,garlic01a,celery,lighter01,cherry01,stapler03a,belt02a,key01,binoculars01b,blankImage,blankImage,blankImage,blankImage,christmastree,,,,,,,,,,,,0,38,38,284,,,,,,,,,,,,,,,,,,,,,,,,,,,,,,,,,,,378.1095787,379.1099391,379.093268,379.6718147,379.6718147,None,381.2943222,None,right,1.5564519,381.2943222,None,382.8804887,None,right,0.6186159,382.8804887,None,,,,,,,,,,,,,,,,,,,,,,,PPT10,1,2022-06-29_10h58.31.945,ABstudy,2022.1.4,59.92541683
AB,Lag5_T1P_T2P,5,P,P,6,11,5,4,15,punching bag,Did you see the punching bag?,0.12,0.016,JPG\,foosballtable,cigarette,pen04b,birthdaycandle,hammer01,punchingbag,binoculars01b,chain01,potato02b,cauliflower01,stapler04b,ashtray01,scarf,cellphone,calculator01,blankImage,blankImage,punchingbag,,,,,,,,,,,,0,39,39,156,,,,,,,,,,,,,,,,,,,,,,,,,,,,,,,,,,,383.5368745,384.5493796,384.5325761,385.0360296,385.0360296,None,386.9021797,None,left,1.1725773,386.9021797,None,388.1022196,None,right,0.2684176,388.1022196,None,,,,,,,,,,,,,,,,,,,,,,,PPT10,1,2022-06-29_10h58.31.945,ABstudy,2022.1.4,59.92541683
AB,Lag5_T1A_T2P,5,A,P,7,12,6,4,16,ear,Did you see the ear?,0.12,0.016,JPG\,candle01,shirt02,brick,orange,greenolive,toothbrush03b,pizza,thermometer02b,book01b,toiletpaper01a,sewingmachine01a,stapler01,candy,cymbal,potato02b,plate01b,blankImage,chair,,,,,,,,,,,,0,40,40,257,,,,,,,,,,,,,,,,,,,,,,,,,,,,,,,,,,,388.417681,389.4201943,389.3869436,389.9472659,389.9472659,None,391.919243,None,right,1.0361123,391.919243,None,392.9739176,None,left,0.2785888,392.9739176,None,,,,,,,,,,,,,,,,,,,,,,,PPT10,1,2022-06-29_10h58.31.945,ABstudy,2022.1.4,59.92541683
AB,Lag5_T1P_T2P,5,P,P,8,13,7,5,18,skis,Did you see the skis?,0.12,0.016,JPG\,tennisball01b,paintbrush01,medal02b,apple07,speaker04,iron01b,avocado01,downhillski,belt02a,toiletpaper01a,watermelon01,candle01,stapler01,cymbal,ashtray01,screwdriver04b,blankImage,downhillski,,,,,,,,,,,,0,41,41,106,,,,,,,,,,,,,,,,,,,,,,,,,,,,,,,,,,,393.2742948,394.2752362,394.2585063,394.8561158,394.8561158,None,396.7751202,None,left,0.8682022,396.7751202,None,397.6618735,None,right,0.2848917,397.6618735,None,,,,,,,,,,,,,,,,,,,,,,,PPT10,1,2022-06-29_10h58.31.945,ABstudy,2022.1.4,59.92541683
AB,Lag5_T1P_T2P,5,P,P,6,11,5,3,14,Poker chips,Did you see the Poker chips?,0.12,0.016,JPG\,iron01b,brick,broccoli01a,balloon01b,tomato01,pokerchips,sandal,teabag,scissors01,pineapple01a,stapler04b,measuringcup01,sock01a,book01b,blankImage,blankImage,blankImage,pokerchips,,,,,,,,,,,,0,42,42,154,,,,,,,,,,,,,,,,,,,,,,,,,,,,,,,,,,,397.9900231,398.9964187,398.9796688,399.5645734,399.5645734,None,401.2404502,None,left,0.474479,401.2404502,None,401.7330146,None,left,0.2143772,401.7330146,None,,,,,,,,,,,,,,,,,,,,,,,PPT10,1,2022-06-29_10h58.31.945,ABstudy,2022.1.4,59.92541683
AB,Lag5_T1P_T2P,5,P,P,8,13,7,4,17,surf board,Did you see the surf board?,0.12,0.016,JPG\,candy,brownsugar,dice05a,cd,sock01a,blueberry01,button01,surfboard,feather03a,grape01,dandelion,scissors01,stapler03b,candle08b,book01b,globe,blankImage,surfboard,,,,,,,,,,,,0,43,43,142,,,,,,,,,,,,,,,,,,,,,,,,,,,,,,,,,,,402.014716,403.0175504,403.0009443,403.5880458,403.5880458,None,405.4978051,None,left,0.8985932,405.4978051,None,406.4205883,None,right,0.2388708,406.4205883,None,,,,,,,,,,,,,,,,,,,,,,,PPT10,1,2022-06-29_10h58.31.945,ABstudy,2022.1.4,59.92541683
AB,Lag5_T1A_T2A,5,A,A,5,10,4,5,15,sword,Did you see the sword?,0.12,0.016,JPG\,pencil01,broccoli01a,button01,sponge01,watermelon01,lipstick02a,comb02a,fan,lighter01,sock01a,spoon01,blueberry01,belt02a,onion,grape01,blankImage,blankImage,parachute,,,,,,,,,,,,0,44,44,298,,,,,,,,,,,,,,,,,,,,,,,,,,,,,,,,,,,406.6913803,407.7052509,407.6885304,408.2747681,408.2747681,None,410.1764693,None,right,1.4022937,410.1764693,None,411.608968,None,right,0.8423091,411.608968,None,,,,,,,,,,,,,,,,,,,,,,,PPT10,1,2022-06-29_10h58.31.945,ABstudy,2022.1.4,59.92541683
AB,Lag5_T1A_T2P,5,A,P,7,12,6,3,15,Car,Did you see the Car?,0.12,0.016,JPG\,lighter01,hammer01,spoon01,chain01,cymbal,sponge01,lipstick02a,alligator,pig,watermelon01,cauliflower01,stapler03b,broccoli01a,tableknife02,tennisball01b,blankImage,blankImage,wallclock,,,,,,,,,,,,0,45,45,277,,,,,,,,,,,,,,,,,,,,,,,,,,,,,,,,,,,412.4791675,413.4940755,413.4608001,414.0419655,414.0419655,None,415.9425071,None,right,1.1733424,415.9425071,None,417.1479521,None,left,0.2867315,417.1479521,None,,,,,,,,,,,,,,,,,,,,,,,PPT10,1,2022-06-29_10h58.31.945,ABstudy,2022.1.4,59.92541683
AB,Lag5_T1P_T2P,5,P,P,6,11,5,5,16,Car,Did you see the Car?,0.12,0.016,JPG\,leaf02a,apple07,cd,pineapple01a,envelope03a,car,pig,canoftennisballs,rice,feather03a,stapler03a,balloon01b,avocado01,calculator01,watermelon01,teabag,blankImage,car,,,,,,,,,,,,0,46,46,127,,,,,,,,,,,,,,,,,,,,,,,,,,,,,,,,,,,417.465021,418.4659325,418.4492271,419.0307393,419.0307393,None,421.0132577,None,left,1.6062931,421.0132577,None,422.6365644,None,right,2.4142903,422.6365644,None,,,,,,,,,,,,,,,,,,,,,,,PPT10,1,2022-06-29_10h58.31.945,ABstudy,2022.1.4,59.92541683
AB,Lag5_T1P_T2P,5,P,P,7,12,6,5,17,statue,Did you see the statue?,0.12,0.016,JPG\,pear01,clock01a,cymbal,match,ashtray01,globe,statue,button01,lemon02,pen04b,dice05a,stapler06,toothbrush03b,screwdriver04b,feather03a,key01,blankImage,statue,,,,,,,,,,,,0,47,47,100,,,,,,,,,,,,,,,,,,,,,,,,,,,,,,,,,,,425.0746318,426.090271,426.0569183,426.6577213,426.6577213,None,428.5771843,None,left,0.5853367,428.5771843,None,429.193292,None,left,0.2493915,429.193292,None,,,,,,,,,,,,,,,,,,,,,,,PPT10,1,2022-06-29_10h58.31.945,ABstudy,2022.1.4,59.92541683
AB,Lag5_T1P_T2P,5,P,P,7,12,6,4,16,Recycling bin,Did you see the Recycling bin?,0.12,0.016,JPG\,broccoli01a,scissors01,toothbrush03b,foosballtable,iron01b,brick,recyclingbin,toiletpaper01a,cd,garlic01a,carrot01,stapler03a,envelope03a,battery02b,balloon01b,broom01,blankImage,recyclingbin,,,,,,,,,,,,0,48,48,157,,,,,,,,,,,,,,,,,,,,,,,,,,,,,,,,,,,429.4673955,430.4779475,430.4612951,431.036313,431.036313,None,432.944146,None,left,0.514768,432.944146,None,433.4806538,None,left,0.1782659,433.4806538,None,,,,,,,,,,,,,,,,,,,,,,,PPT10,1,2022-06-29_10h58.31.945,ABstudy,2022.1.4,59.92541683
AB,Lag1_T1A_T2P,1,A,P,5,6,4,3,9,microphone,Did you see the microphone?,0.12,0.016,JPG\,hammer01,sponge01,toaster01,cherry01,feather03a,stapler06,measuringcup01,pencil01,tennisball01b,blankImage,blankImage,blankImage,blankImage,blankImage,blankImage,blankImage,blankImage,cactus,,,,,,,,,,,,0,49,49,230,,,,,,,,,,,,,,,,,,,,,,,,,,,,,,,,,,,433.6849773,434.6987069,434.6821067,435.3024017,435.2323602,None,436.4104271,None,right,0.92077,436.4104271,None,437.3511725,None,left,0.2040335,437.3511725,None,,,,,,,,,,,,,,,,,,,,,,,PPT10,1,2022-06-29_10h58.31.945,ABstudy,2022.1.4,59.92541683
AB,Lag5_T1A_T2P,5,A,P,5,10,4,4,14,Chefs hat,Did you see the Chefs hat?,0.12,0.016,JPG\,candle01,fork03c,plate01b,violin,computerkeyboard02,candy,calculator01,paintbrush01,cherry01,stapler06,teabag,banana01,cd,lighter01,blankImage,blankImage,blankImage,horseshoe,,,,,,,,,,,,0,50,50,278,,,,,,,,,,,,,,,,,,,,,,,,,,,,,,,,,,,437.6368989,438.6524429,438.6357252,439.2071598,439.2071598,None,440.9003451,None,right,1.0240542,440.9003451,None,441.9556323,None,left,0.2391496,441.9556323,None,,,,,,,,,,,,,,,,,,,,,,,PPT10,1,2022-06-29_10h58.31.945,ABstudy,2022.1.4,59.92541683
AB,Lag1_T1P_T2P,1,P,P,8,9,7,3,12,Fire hydrant,Did you see the Fire hydrant?,0.12,0.016,JPG\,foosballtable,candy,envelope03a,microscope,pencil01,leaf02a,scissors01,firehydrant,stapler01,dandelion,pineapple01a,hammer01,blankImage,blankImage,blankImage,blankImage,blankImage,firehydrant,,,,,,,,,,,,0,51,51,83,,,,,,,,,,,,,,,,,,,,,,,,,,,,,,,,,,,442.2293491,443.2405877,443.223863,443.7257139,443.7257139,None,445.2860142,None,left,0.9814189,445.2860142,None,446.2934359,None,right,0.2057074,446.2934359,None,,,,,,,,,,,,,,,,,,,,,,,PPT10,1,2022-06-29_10h58.31.945,ABstudy,2022.1.4,59.92541683
AB,Lag1_T1P_T2P,1,P,P,5,6,4,4,10,Ladybug,Did you see the Ladybug?,0.12,0.016,JPG\,key01,apple07,ring01,leaf02a,ladybug03,stapler04b,violin,sponge01,baseball01a,thermometer02b,blankImage,blankImage,blankImage,blankImage,blankImage,blankImage,blankImage,ladybug03,,,,,,,,,,,,0,52,52,65,,,,,,,,,,,,,,,,,,,,,,,,,,,,,,,,,,,446.534395,447.5446303,447.528004,448.1192351,448.1192351,None,449.3085941,None,left,0.9103624,449.3085941,None,450.2473481,None,left,0.2365836,450.2473481,None,,,,,,,,,,,,,,,,,,,,,,,PPT10,1,2022-06-29_10h58.31.945,ABstudy,2022.1.4,59.92541683
AB,Lag1_T1P_T2P,1,P,P,8,9,7,5,14,lawn mower,Did you see the lawn mower?,0.12,0.016,JPG\,battery02b,sunglasses04,pear01,tennisball01b,clock01a,speaker04,binoculars01b,lawnmower,stapler05,pineapple01a,avocado01,grape01,blueberry01,violin,blankImage,blankImage,blankImage,lawnmower,,,,,,,,,,,,0,53,53,46,,,,,,,,,,,,,,,,,,,,,,,,,,,,,,,,,,,450.5165164,451.5319136,451.4985646,452.0867612,452.0867612,None,453.908125,None,left,2.0955082,453.908125,None,456.0200195,None,left,0.1824737,456.0200195,None,,,,,,,,,,,,,,,,,,,,,,,PPT10,1,2022-06-29_10h58.31.945,ABstudy,2022.1.4,59.92541683
AB,Lag1_T1P_T2P,1,P,P,8,9,7,3,12,cactus,Did you see the cactus?,0.12,0.016,JPG\,tennisball01b,paintbrush01,medal02b,apple07,speaker04,iron01b,avocado01,cactus,stapler03b,toiletpaper01a,watermelon01,candle01,blankImage,blankImage,blankImage,blankImage,blankImage,cactus,,,,,,,,,,,,0,54,54,58,,,,,,,,,,,,,,,,,,,,,,,,,,,,,,,,,,,456.2257201,457.2379114,457.2212369,457.8519532,457.8519532,None,459.2397819,None,left,1.8991467,459.2397819,None,461.1584203,None,left,0.2618124,461.1584203,None,,,,,,,,,,,,,,,,,,,,,,,PPT10,1,2022-06-29_10h58.31.945,ABstudy,2022.1.4,59.92541683
AB,Lag1_T1P_T2P,1,P,P,6,7,5,3,10,Pool table,Did you see the Pool table?,0.12,0.016,JPG\,tomato01,pen04b,shirt02,carrot01,lamp04a,pooltable,stapler06,avocado01,sewingmachine01a,apple07,blankImage,blankImage,blankImage,blankImage,blankImage,blankImage,blankImage,pooltable,,,,,,,,,,,,0,55,55,29,,,,,,,,,,,,,,,,,,,,,,,,,,,,,,,,,,,461.4483945,462.4596111,462.4429659,463.0294892,463.0294892,None,464.2951247,None,left,0.6355665,464.2951247,None,464.9618189,None,left,0.1701407,464.9618189,None,,,,,,,,,,,,,,,,,,,,,,,PPT10,1,2022-06-29_10h58.31.945,ABstudy,2022.1.4,59.92541683
AB,Lag1_T1A_T2P,1,A,P,8,9,7,3,12,porcupine,Did you see the porcupine?,0.12,0.016,JPG\,celery,orange,scissors01,balloon01b,avocado01,printer02,mushroom01,sewingmachine01a,stapler01,dice05a,ashtray01,fan,blankImage,blankImage,blankImage,blankImage,blankImage,drumstick,,,,,,,,,,,,0,56,56,233,,,,,,,,,,,,,,,,,,,,,,,,,,,,,,,,,,,465.166437,466.1803841,466.1470885,466.744922,466.744922,None,468.1919295,None,right,3.1952414,468.1919295,None,471.4184354,None,left,0.3045675,471.4184354,None,,,,,,,,,,,,,,,,,,,,,,,PPT10,1,2022-06-29_10h58.31.945,ABstudy,2022.1.4,59.92541683
AB,Lag1_T1P_T2P,1,P,P,6,7,5,3,10,windmill,Did you see the windmill?,0.12,0.016,JPG\,pizza,printer02,medal02b,spoon01,grape01,windmill,stapler04b,watermelon01,celery,battery02b,blankImage,blankImage,blankImage,blankImage,blankImage,blankImage,blankImage,windmill,,,,,,,,,,,,0,57,57,75,,,,,,,,,,,,,,,,,,,,,,,,,,,,,,,,,,,471.7543995,472.7698263,472.7366115,473.3227401,473.3227401,None,474.5836823,None,left,0.7573676,474.5836823,None,475.3722951,None,left,0.3980111,475.3722951,None,,,,,,,,,,,,,,,,,,,,,,,PPT10,1,2022-06-29_10h58.31.945,ABstudy,2022.1.4,59.92541683
AB,Lag1_T1P_T2P,1,P,P,5,6,4,5,11,candy cane,Did you see the candy cane?,0.12,0.016,JPG\,shirt02,match,screw02,foosballtable,candycane01a,stapler04b,sewingmachine01a,watch02a,button01,comb02a,dice05a,blankImage,blankImage,blankImage,blankImage,blankImage,blankImage,candycane01a,,,,,,,,,,,,0,58,58,9,,,,,,,,,,,,,,,,,,,,,,,,,,,,,,,,,,,475.7917218,476.8071344,476.7736863,477.3620052,477.3620052,None,478.7441123,None,left,0.4190436,478.7441123,None,479.1931249,None,left,0.1698977,479.1931249,None,,,,,,,,,,,,,,,,,,,,,,,PPT10,1,2022-06-29_10h58.31.945,ABstudy,2022.1.4,59.92541683
AB,Lag5_T1A_T2A,5,A,A,7,12,6,4,16,Eye,Did you see the Eye?,0.12,0.016,JPG\,rice,watermelon01,tableknife02,scarf,computerkeyboard02,cauliflower01,battery02b,binoculars01b,book01b,sandal,sponge01,microscope,tomato01,fork03c,thermometer02b,apple07,blankImage,scooter,,,,,,,,,,,,0,59,59,302,,,,,,,,,,,,,,,,,,,,,,,,,,,,,,,,,,,479.3991457,480.4104573,480.3937629,480.9688078,480.9688078,None,482.9903345,None,right,1.3411582,482.9903345,None,484.3479691,None,left,1.358335,484.3479691,None,,,,,,,,,,,,,,,,,,,,,,,PPT10,1,2022-06-29_10h58.31.945,ABstudy,2022.1.4,59.92541683
AB,Lag1_T1P_T2P,1,P,P,5,6,4,5,11,shark,Did you see the shark?,0.12,0.016,JPG\,cucumber,sponge01,alligator,pear01,greatwhiteshark,stapler06,clock04,battery02b,fork03c,binoculars01b,mushroom01,blankImage,blankImage,blankImage,blankImage,blankImage,blankImage,greatwhiteshark,,,,,,,,,,,,0,60,60,84,,,,,,,,,,,,,,,,,,,,,,,,,,,,,,,,,,,485.7349245,486.7505598,486.7171084,487.2920327,487.2920327,None,488.6295562,None,left,0.445589,488.6295562,None,489.1025929,None,left,0.1325366,489.1025929,None,,,,,,,,,,,,,,,,,,,,,,,PPT10,1,2022-06-29_10h58.31.945,ABstudy,2022.1.4,59.92541683
AB,Lag5_T1A_T2P,5,A,P,8,13,7,4,17,wrench,Did you see the wrench?,0.12,0.016,JPG\,clock01a,grape01,plate01b,key01,screwdriver04b,feather03a,pineapple01a,iron01b,toothbrush03b,comb02a,broom01,toaster01,stapler05,garlic01a,match,ashtray01,blankImage,seal,,,,,,,,,,,,0,61,61,272,,,,,,,,,,,,,,,,,,,,,,,,,,,,,,,,,,,489.2552083,490.2704882,490.2370903,490.8172048,490.8172048,None,492.8186758,None,right,1.048648,492.8186758,None,493.890784,None,left,0.3283879,493.890784,None,,,,,,,,,,,,,,,,,,,,,,,PPT10,1,2022-06-29_10h58.31.945,ABstudy,2022.1.4,59.92541683
AB,Lag5_T1P_T2P,5,P,P,6,11,5,4,15,boxing glove,Did you see the boxing glove?,0.12,0.016,JPG\,button01,celery,birthdaycandle,apple07,avocado01,boxingglove01,dice05a,teabag,clock01a,feather03a,stapler06,scarf,orange,battery02b,thermometer02b,blankImage,blankImage,boxingglove01,,,,,,,,,,,,0,62,62,165,,,,,,,,,,,,,,,,,,,,,,,,,,,,,,,,,,,494.2458113,495.2587569,495.2421509,495.8257297,495.8257297,None,497.6613904,None,left,0.5579758,497.6613904,None,498.2452285,None,left,0.1411927,498.2452285,None,,,,,,,,,,,,,,,,,,,,,,,PPT10,1,2022-06-29_10h58.31.945,ABstudy,2022.1.4,59.92541683
AB,Lag5_T1A_T2A,5,A,A,5,10,4,5,15,window,Did you see the window?,0.12,0.016,JPG\,leaf02a,apple07,cd,pineapple01a,envelope03a,paintbrush01,pig,canoftennisballs,rice,feather03a,lemon02,balloon01b,avocado01,calculator01,watermelon01,blankImage,blankImage,saxophone,,,,,,,,,,,,0,63,63,301,,,,,,,,,,,,,,,,,,,,,,,,,,,,,,,,,,,498.4154244,499.4296847,499.4131101,500.049333,499.9763019,None,501.8345647,None,right,1.0480027,501.8345647,None,502.8997453,None,right,0.6308245,502.8997453,None,,,,,,,,,,,,,,,,,,,,,,,PPT10,1,2022-06-29_10h58.31.945,ABstudy,2022.1.4,59.92541683
AB,Lag1_T1P_T2P,1,P,P,5,6,4,4,10,skateboard,Did you see the skateboard?,0.12,0.016,JPG\,binoculars01b,cymbal,pizza,candy,skateboard,stapler05,grape01,thermometer02b,speaker04,lemon02,blankImage,blankImage,blankImage,blankImage,blankImage,blankImage,blankImage,skateboard,,,,,,,,,,,,0,64,64,25,,,,,,,,,,,,,,,,,,,,,,,,,,,,,,,,,,,503.5527208,504.5679978,504.5346156,505.1283348,505.1283348,None,506.3647623,None,left,0.5738308,506.3647623,None,506.9706119,None,left,0.1449337,506.9706119,None,,,,,,,,,,,,,,,,,,,,,,,PPT10,1,2022-06-29_10h58.31.945,ABstudy,2022.1.4,59.92541683
AB,Lag1_T1A_T2P,1,A,P,5,6,4,3,9,Crown,Did you see the Crown?,0.12,0.016,JPG\,leaf02a,pear01,measuringcup01,cigarette,fan,stapler04b,teabag,tableknife02,ring01,blankImage,blankImage,blankImage,blankImage,blankImage,blankImage,blankImage,blankImage,arrow02,,,,,,,,,,,,0,65,65,248,,,,,,,,,,,,,,,,,,,,,,,,,,,,,,,,,,,507.1429263,508.1551355,508.1384358,508.7133237,508.7133237,None,509.8911091,None,right,0.9845514,509.8911091,None,510.9076475,None,left,0.326914,510.9076475,None,,,,,,,,,,,,,,,,,,,,,,,PPT10,1,2022-06-29_10h58.31.945,ABstudy,2022.1.4,59.92541683
AB,Lag1_T1A_T2P,1,A,P,5,6,4,3,9,chimney,Did you see the chimney?,0.12,0.016,JPG\,cucumber,sponge01,alligator,pear01,ashtray01,stapler06,clock04,battery02b,fork03c,blankImage,blankImage,blankImage,blankImage,blankImage,blankImage,blankImage,blankImage,trophy01,,,,,,,,,,,,0,66,66,246,,,,,,,,,,,,,,,,,,,,,,,,,,,,,,,,,,,511.2731117,512.2756465,512.2422927,512.8171209,512.8171209,None,513.9781487,None,right,0.8246413,513.9781487,None,514.8279245,None,left,0.1744641,514.8279245,None,,,,,,,,,,,,,,,,,,,,,,,PPT10,1,2022-06-29_10h58.31.945,ABstudy,2022.1.4,59.92541683
AB,Lag1_T1P_T2P,1,P,P,5,6,4,5,11,owl,Did you see the owl?,0.12,0.016,JPG\,cellphone,tomato01,comb02a,candy,barnowl,stapler03a,toaster01,fan,feather03a,pen04b,lemon02,blankImage,blankImage,blankImage,blankImage,blankImage,blankImage,barnowl,,,,,,,,,,,,0,67,67,33,,,,,,,,,,,,,,,,,,,,,,,,,,,,,,,,,,,515.0285919,516.0295868,516.0129288,516.5940624,516.5940624,None,517.9278053,None,left,0.6829394,517.9278053,None,518.6321571,None,left,0.1465413,518.6321571,None,,,,,,,,,,,,,,,,,,,,,,,PPT10,1,2022-06-29_10h58.31.945,ABstudy,2022.1.4,59.92541683
AB,Lag5_T1A_T2A,5,A,A,7,12,6,4,16,boxing glove,Did you see the boxing glove?,0.12,0.016,JPG\,cherry01,cymbal,envelope03a,foosballtable,shirt02,cellphone,sewingmachine01a,candle08b,battery02b,apple07,pencil01,screwdriver04b,strawberry,sunglasses04,feather03a,rice,blankImage,lollipop04,,,,,,,,,,,,0,68,68,296,,,,,,,,,,,,,,,,,,,,,,,,,,,,,,,,,,,518.855984,519.8667032,519.8500803,520.4630087,520.4630087,None,522.3424014,None,right,0.812267,522.3424014,None,523.186714,None,left,0.2238919,523.186714,None,,,,,,,,,,,,,,,,,,,,,,,PPT10,1,2022-06-29_10h58.31.945,ABstudy,2022.1.4,59.92541683
AB,Lag5_T1P_T2P,5,P,P,8,13,7,4,17,lamp,Did you see the lamp?,0.12,0.016,JPG\,globe,broccoli01a,binoculars01b,iron01b,avocado01,dandelion,pineapple01a,floorlamp,fan,pizza,celery,blueberry01,stapler01,dice05a,watermelon01,candy,blankImage,floorlamp,,,,,,,,,,,,0,69,69,99,,,,,,,,,,,,,,,,,,,,,,,,,,,,,,,,,,,523.4418646,524.4547229,524.4380842,525.0171851,525.0171851,None,526.9376933,None,right,0.9051427,526.9376933,None,527.8746761,None,left,0.1363446,527.8746761,None,,,,,,,,,,,,,,,,,,,,,,,PPT10,1,2022-06-29_10h58.31.945,ABstudy,2022.1.4,59.92541683
AB,Lag1_T1P_T2A,1,P,A,7,8,6,3,11,fish,Did you see the fish?,0.12,0.016,JPG\,rice,watermelon01,tableknife02,scarf,computerkeyboard02,cauliflower01,salmon,binoculars01b,book01b,sandal,sponge01,blankImage,blankImage,blankImage,blankImage,blankImage,blankImage,salmon,,,,,,,,,,,,0,70,70,179,,,,,,,,,,,,,,,,,,,,,,,,,,,,,,,,,,,528.0449344,529.0594161,529.026007,529.5959192,529.5959192,None,530.985884,None,left,1.9766813,530.985884,None,532.979683,None,right,0.2388041,532.979683,None,,,,,,,,,,,,,,,,,,,,,,,PPT10,1,2022-06-29_10h58.31.945,ABstudy,2022.1.4,59.92541683
AB,Lag1_T1A_T2P,1,A,P,7,8,6,5,13,Horseshoe,Did you see the Horseshoe?,0.12,0.016,JPG\,leaf02a,apple07,cd,pineapple01a,envelope03a,paintbrush01,pig,stapler06,rice,feather03a,lemon02,balloon01b,avocado01,blankImage,blankImage,blankImage,blankImage,rooster,,,,,,,,,,,,0,71,71,241,,,,,,,,,,,,,,,,,,,,,,,,,,,,,,,,,,,533.2521574,534.2644558,534.2477156,534.8292586,534.8292586,None,536.4598862,None,right,0.894469,536.4598862,None,537.384027,None,left,0.2264893,537.384027,None,,,,,,,,,,,,,,,,,,,,,,,PPT10,1,2022-06-29_10h58.31.945,ABstudy,2022.1.4,59.92541683
AB,Lag1_T1A_T2A,1,A,A,5,6,4,3,9,Pigeon,Did you see the Pigeon?,0.12,0.016,JPG\,candle01,paintbrush01,scissors01,fan,microscope,toothbrush03b,candle08b,watermelon01,teabag,blankImage,blankImage,blankImage,blankImage,blankImage,blankImage,blankImage,blankImage,floorlamp,,,,,,,,,,,,0,72,72,286,,,,,,,,,,,,,,,,,,,,,,,,,,,,,,,,,,,537.6369258,538.6521473,538.6187644,539.1875169,539.1875169,None,540.3233202,None,right,0.82351,540.3233202,None,541.1712998,None,right,0.2468376,541.1712998,None,,,,,,,,,,,,,,,,,,,,,,,PPT10,1,2022-06-29_10h58.31.945,ABstudy,2022.1.4,59.92541683
AB,Lag5_T1P_T2P,5,P,P,7,12,6,3,15,Rollerblade,Did you see the Rollerblade?,0.12,0.016,JPG\,hammer01,sponge01,toaster01,cherry01,feather03a,mushroom01,rollerblade,pencil01,tennisball01b,brick,clock04,stapler06,teabag,garlic01a,envelope03a,blankImage,blankImage,rollerblade,,,,,,,,,,,,0,73,73,116,,,,,,,,,,,,,,,,,,,,,,,,,,,,,,,,,,,541.4409642,542.4556951,542.4223665,542.992137,542.992137,None,544.9013549,None,left,0.3811682,544.9013549,None,545.3086019,None,left,0.1578665,545.3086019,None,,,,,,,,,,,,,,,,,,,,,,,PPT10,1,2022-06-29_10h58.31.945,ABstudy,2022.1.4,59.92541683
AB,Lag1_T1A_T2P,1,A,P,8,9,7,5,14,clock,Did you see the clock?,0.12,0.016,JPG\,speaker04,sewingmachine01a,eraser,violin,globe,belt02a,sunglasses04,cymbal,stapler01,greenolive,alligator,pear01,watch02a,screwdriver04b,blankImage,blankImage,blankImage,peacock,,,,,,,,,,,,0,74,74,240,,,,,,,,,,,,,,,,,,,,,,,,,,,,,,,,,,,545.494324,546.5097013,546.4764079,547.0635458,547.0635458,None,548.7479063,None,left,4.3346176,548.7479063,None,553.099879,None,left,0.3267679,553.099879,None,,,,,,,,,,,,,,,,,,,,,,,PPT10,1,2022-06-29_10h58.31.945,ABstudy,2022.1.4,59.92541683
AB,Lag1_T1A_T2P,1,A,P,8,9,7,4,13,Toolbox,Did you see the Toolbox?,0.12,0.016,JPG\,pizza,printer02,medal02b,spoon01,grape01,lighter01,belt02a,watermelon01,stapler03b,battery02b,screw02,comb02a,cauliflower01,blankImage,blankImage,blankImage,blankImage,ladybug03,,,,,,,,,,,,0,75,75,237,,,,,,,,,,,,,,,,,,,,,,,,,,,,,,,,,,,553.4558001,554.4678794,554.451092,555.03,555.03,None,556.6739018,None,right,0.7130699,556.6739018,None,557.4039425,None,left,0.2859558,557.4039425,None,,,,,,,,,,,,,,,,,,,,,,,PPT10,1,2022-06-29_10h58.31.945,ABstudy,2022.1.4,59.92541683
AB,Lag5_T1A_T2A,5,A,A,5,10,4,5,15,truck,Did you see the truck?,0.12,0.016,JPG\,pizza,printer02,medal02b,spoon01,grape01,lighter01,belt02a,watermelon01,celery,battery02b,screw02,comb02a,cauliflower01,lipstick02a,potato02b,blankImage,blankImage,postalmailbox01,,,,,,,,,,,,0,76,76,297,,,,,,,,,,,,,,,,,,,,,,,,,,,,,,,,,,,557.723126,558.7385848,558.7052205,559.299601,559.299601,None,561.1358226,None,right,0.5229151,561.1358226,None,561.6915345,None,left,0.3117449,561.6915345,None,,,,,,,,,,,,,,,,,,,,,,,PPT10,1,2022-06-29_10h58.31.945,ABstudy,2022.1.4,59.92541683
AB,Lag5_T1A_T2P,5,A,P,5,10,4,5,15,Sushi,Did you see the Sushi?,0.12,0.016,JPG\,pineapple01a,leaf02a,grape01,toiletpaper01a,match,tennisball01b,spoon01,chain01,pig,stapler04b,ring01,lemon02,dice05a,pizza,potato02b,blankImage,blankImage,crown,,,,,,,,,,,,0,77,77,285,,,,,,,,,,,,,,,,,,,,,,,,,,,,,,,,,,,562.0252769,563.0262492,563.0094967,563.5914004,563.5914004,None,565.4908043,None,right,0.887955,565.4908043,None,566.3962522,None,left,0.2953224,566.3962522,None,,,,,,,,,,,,,,,,,,,,,,,PPT10,1,2022-06-29_10h58.31.945,ABstudy,2022.1.4,59.92541683
AB,Lag1_T1P_T2P,1,P,P,8,9,7,3,12,Eiffel tower,Did you see the Eiffel tower?,0.12,0.016,JPG\,celery,tennisball01b,calculator01,pear01,screw02,orange,button01,eiffeltower,stapler03b,apple07,iron01b,brownsugar,blankImage,blankImage,blankImage,blankImage,blankImage,eiffeltower,,,,,,,,,,,,0,78,78,40,,,,,,,,,,,,,,,,,,,,,,,,,,,,,,,,,,,566.7174799,567.7314416,567.714755,568.3261108,568.3261108,None,569.6665735,None,left,0.5597702,569.6665735,None,570.2500213,None,left,0.1602105,570.2500213,None,,,,,,,,,,,,,,,,,,,,,,,PPT10,1,2022-06-29_10h58.31.945,ABstudy,2022.1.4,59.92541683
AB,Lag5_T1P_T2P,5,P,P,6,11,5,4,15,shower,Did you see the shower?,0.12,0.016,JPG\,dice05a,watch02a,pig,lighter01,button01,shower,paintbrush01,microscope,plate01b,pen04b,stapler05,weight04a,carrot01,shirt02,globe,blankImage,blankImage,shower,,,,,,,,,,,,0,79,79,121,,,,,,,,,,,,,,,,,,,,,,,,,,,,,,,,,,,570.4357596,571.4512239,571.4178603,571.9944323,571.9944323,None,573.8231897,None,left,1.0510491,573.8231897,None,574.9046561,None,right,0.5135762,574.9046561,None,,,,,,,,,,,,,,,,,,,,,,,PPT10,1,2022-06-29_10h58.31.945,ABstudy,2022.1.4,59.92541683
AB,Lag1_T1P_T2P,1,P,P,6,7,5,3,10,cupcake,Did you see the cupcake?,0.12,0.016,JPG\,printer02,leaf02a,cauliflower01,sock01a,brownsugar,cupcake,stapler01,orange,belt02a,shirt02,blankImage,blankImage,blankImage,blankImage,blankImage,blankImage,blankImage,cupcake,,,,,,,,,,,,0,80,80,38,,,,,,,,,,,,,,,,,,,,,,,,,,,,,,,,,,,575.4423125,576.4563499,576.4395121,577.0866663,577.0070663,None,578.2371381,None,left,0.4776158,578.2371381,None,578.7419547,None,left,0.148659,578.7419547,None,,,,,,,,,,,,,,,,,,,,,,,PPT10,1,2022-06-29_10h58.31.945,ABstudy,2022.1.4,59.92541683
AB,Lag5_T1P_T2A,5,P,A,5,10,4,3,13,pin,Did you see the pin?,0.12,0.016,JPG\,candle01,fork03c,plate01b,violin,pin,candy,calculator01,paintbrush01,cherry01,sock01a,teabag,banana01,cd,blankImage,blankImage,blankImage,blankImage,pin,,,,,,,,,,,,0,81,81,215,,,,,,,,,,,,,,,,,,,,,,,,,,,,,,,,,,,578.9082947,579.9096451,579.8928546,580.4621159,580.4621159,None,582.0622552,None,right,1.0523703,582.0622552,None,583.1464039,None,right,0.3690508,583.1464039,None,,,,,,,,,,,,,,,,,,,,,,,PPT10,1,2022-06-29_10h58.31.945,ABstudy,2022.1.4,59.92541683
AB,Lag5_T1P_T2P,5,P,P,7,12,6,5,17,Badminton Racket,Did you see the Badminton Racket?,0.12,0.016,JPG\,paintbrush01,dice05a,watermelon01,broccoli01a,hammer01,leaf02a,badmintonracket,tennisball01b,lemon02,fan,lipstick02a,stapler04b,envelope03a,sponge01,foosballtable,orange,blankImage,badmintonracket,,,,,,,,,,,,0,82,82,163,,,,,,,,,,,,,,,,,,,,,,,,,,,,,,,,,,,583.5543725,584.5645336,584.5478854,585.1389717,585.1389717,None,587.1142905,None,left,0.4482949,587.1142905,None,587.584105,None,left,0.1543557,587.584105,None,,,,,,,,,,,,,,,,,,,,,,,PPT10,1,2022-06-29_10h58.31.945,ABstudy,2022.1.4,59.92541683
AB,Lag5_T1A_T2P,5,A,P,6,11,5,3,14,saxophone,Did you see the saxophone?,0.12,0.016,JPG\,globe,belt02a,sponge01,violin,fork03c,tomato01,clock01a,microscope,balloon01b,scarf,stapler03b,pen04b,brick,brownsugar,blankImage,blankImage,blankImage,microphone01,,,,,,,,,,,,0,83,83,267,,,,,,,,,,,,,,,,,,,,,,,,,,,,,,,,,,,587.8298426,588.8353107,588.8020508,589.3912954,589.3912954,None,590.9560392,None,right,0.8384854,590.9560392,None,591.8215226,None,left,0.1649463,591.8215226,None,,,,,,,,,,,,,,,,,,,,,,,PPT10,1,2022-06-29_10h58.31.945,ABstudy,2022.1.4,59.92541683
AB,Lag1_T1P_T2P,1,P,P,6,7,5,3,10,spider web,Did you see the spider web?,0.12,0.016,JPG\,toaster01,chain01,sponge01,baseball01a,carrot01,spiderweb,stapler03b,iron01b,grape01,brick,blankImage,blankImage,blankImage,blankImage,blankImage,blankImage,blankImage,spiderweb,,,,,,,,,,,,0,84,84,72,,,,,,,,,,,,,,,,,,,,,,,,,,,,,,,,,,,592.0084317,593.0223681,593.0062091,593.5852815,593.5852815,None,594.8851018,None,left,0.9333466,594.8851018,None,595.8421393,None,right,0.4242319,595.8421393,None,,,,,,,,,,,,,,,,,,,,,,,PPT10,1,2022-06-29_10h58.31.945,ABstudy,2022.1.4,59.92541683
AB,Lag5_T1P_T2P,5,P,P,5,10,4,5,15,scorpion,Did you see the scorpion?,0.12,0.016,JPG\,fan,tomato01,candy,screwdriver04b,scorpion,cd,thermometer02b,apple07,button01,stapler01,brownsugar,lighter01,clock01a,envelope03a,clock04,blankImage,blankImage,scorpion,,,,,,,,,,,,0,85,85,97,,,,,,,,,,,,,,,,,,,,,,,,,,,,,,,,,,,596.2966973,597.3105049,597.2938585,597.9369598,597.8569611,None,599.6737376,None,left,0.7926815,599.6737376,None,600.497393,None,right,0.2342504,600.497393,None,,,,,,,,,,,,,,,,,,,,,,,PPT10,1,2022-06-29_10h58.31.945,ABstudy,2022.1.4,59.92541683
AB,Lag1_T1P_T2A,1,P,A,6,7,5,5,12,foot,Did you see the foot?,0.12,0.016,JPG\,watermelon01,cigarette,weight04a,cymbal,cauliflower01,foot,cherry01,broom01,battery02b,key01,baseball01a,iron01b,blankImage,blankImage,blankImage,blankImage,blankImage,foot,,,,,,,,,,,,0,86,86,188,,,,,,,,,,,,,,,,,,,,,,,,,,,,,,,,,,,600.7661975,601.7814157,601.7484276,602.3229754,602.3229754,None,603.8255671,None,left,0.9939219,603.8255671,None,604.8512015,None,right,0.2633249,604.8512015,None,,,,,,,,,,,,,,,,,,,,,,,PPT10,1,2022-06-29_10h58.31.945,ABstudy,2022.1.4,59.92541683
AB,Lag1_T1A_T2P,1,A,P,8,9,7,4,13,Rabbit,Did you see the Rabbit?,0.12,0.016,JPG\,lamp04a,broccoli01a,alligator,garlic01a,dandelion,brownsugar,avocado01,ring01,stapler06,cellphone,medal02b,cd,calculator01,blankImage,blankImage,blankImage,blankImage,escalator,,,,,,,,,,,,0,87,87,254,,,,,,,,,,,,,,,,,,,,,,,,,,,,,,,,,,,605.1406733,606.1526053,606.1359573,606.74083,606.74083,None,608.3123104,None,right,0.9779602,608.3123104,None,609.3222873,None,left,0.3358833,609.3222873,None,,,,,,,,,,,,,,,,,,,,,,,PPT10,1,2022-06-29_10h58.31.945,ABstudy,2022.1.4,59.92541683
AB,Lag5_T1P_T2P,5,P,P,7,12,6,5,17,flower,Did you see the flower?,0.12,0.016,JPG\,leaf02a,pear01,measuringcup01,cigarette,fan,lemon02,lily,tableknife02,ring01,pencil01,cellphone,stapler01,carrot01,binoculars01b,sock01a,book01b,blankImage,lily,,,,,,,,,,,,0,88,88,134,,,,,,,,,,,,,,,,,,,,,,,,,,,,,,,,,,,609.7314146,610.7402952,610.7074823,611.2888478,611.2888478,None,613.2352154,None,left,0.3838596,613.2352154,None,613.644411,None,left,0.1417943,613.644411,None,,,,,,,,,,,,,,,,,,,,,,,PPT10,1,2022-06-29_10h58.31.945,ABstudy,2022.1.4,59.92541683
AB,Lag5_T1P_T2P,5,P,P,7,12,6,4,16,Fireplace,Did you see the Fireplace?,0.12,0.016,JPG\,printer02,leaf02a,cauliflower01,sock01a,brownsugar,paintbrush01,fireplace,orange,belt02a,shirt02,key01,stapler01,cigarette,scissors01,envelope03a,blueberry01,blankImage,fireplace,,,,,,,,,,,,0,89,89,88,,,,,,,,,,,,,,,,,,,,,,,,,,,,,,,,,,,613.8199801,614.827707,614.8112555,615.3914328,615.3914328,None,617.4347614,None,right,0.6629495,617.4347614,None,618.1145243,None,left,0.2400852,618.1145243,None,,,,,,,,,,,,,,,,,,,,,,,PPT10,1,2022-06-29_10h58.31.945,ABstudy,2022.1.4,59.92541683
AB,Lag5_T1P_T2P,5,P,P,7,12,6,3,15,Eye patch,Did you see the Eye patch?,0.12,0.016,JPG\,candle01,paintbrush01,scissors01,fan,microscope,toothbrush03b,eyepatch,watermelon01,teabag,pencil01,lemon02,stapler05,shirt02,cauliflower01,cd,blankImage,blankImage,eyepatch,,,,,,,,,,,,0,90,90,108,,,,,,,,,,,,,,,,,,,,,,,,,,,,,,,,,,,618.3893782,619.398786,619.3820131,619.9513446,619.9513446,None,621.7840363,None,left,0.3942674,621.7840363,None,622.2018372,None,left,0.1522538,622.2018372,None,,,,,,,,,,,,,,,,,,,,,,,PPT10,1,2022-06-29_10h58.31.945,ABstudy,2022.1.4,59.92541683
AB,Lag1_T1A_T2A,1,A,A,8,9,7,5,14,Ping pong Table,Did you see the Ping pong Table?,0.12,0.016,JPG\,pineapple01a,tennisball01b,computerkeyboard02,feather03a,belt02a,acorn,violin,blueberry01,medal02b,alligator,greenolive,screwdriver04b,potato02b,fork03c,blankImage,blankImage,blankImage,statue,,,,,,,,,,,,0,91,91,287,,,,,,,,,,,,,,,,,,,,,,,,,,,,,,,,,,,622.3925395,623.4031874,623.3865561,623.953822,623.953822,None,625.6683199,None,right,0.7510742,625.6683199,None,626.4395921,None,right,0.3703682,626.4395921,None,,,,,,,,,,,,,,,,,,,,,,,PPT10,1,2022-06-29_10h58.31.945,ABstudy,2022.1.4,59.92541683
AB,Lag1_T1A_T2A,1,A,A,6,7,5,5,12,Safe,Did you see the Safe?,0.12,0.016,JPG\,hammer01,sponge01,toaster01,cherry01,feather03a,mushroom01,measuringcup01,pencil01,tennisball01b,brick,clock04,medal02b,blankImage,blankImage,blankImage,blankImage,blankImage,downhillski,,,,,,,,,,,,0,92,92,294,,,,,,,,,,,,,,,,,,,,,,,,,,,,,,,,,,,626.846154,627.8576493,627.8408862,628.4104277,628.4104277,None,629.8664564,None,right,1.4727879,629.8664564,None,631.3609175,None,right,0.3535388,631.3609175,None,,,,,,,,,,,,,,,,,,,,,,,PPT10,1,2022-06-29_10h58.31.945,ABstudy,2022.1.4,59.92541683
AB,Lag5_T1A_T2A,5,A,A,6,11,5,5,16,shrimp,Did you see the shrimp?,0.12,0.016,JPG\,speaker04,sewingmachine01a,eraser,violin,globe,belt02a,sunglasses04,cymbal,cd,greenolive,alligator,pear01,watch02a,screwdriver04b,banana01,cigarette,blankImage,rollerblade,,,,,,,,,,,,0,93,93,300,,,,,,,,,,,,,,,,,,,,,,,,,,,,,,,,,,,631.7496885,632.7624139,632.7457579,633.3356066,633.3356066,None,635.246411,None,right,0.7162238,635.246411,None,635.982262,None,right,0.3162673,635.982262,None,,,,,,,,,,,,,,,,,,,,,,,PPT10,1,2022-06-29_10h58.31.945,ABstudy,2022.1.4,59.92541683
AB,Lag5_T1A_T2A,5,A,A,5,10,4,4,14,music sheet,Did you see the music sheet?,0.12,0.016,JPG\,celery,pencil01,fan,foosballtable,iron01b,shirt02,potato02b,fork03c,button01,pineapple01a,baseball01a,printer02,cauliflower01,dandelion,blankImage,blankImage,blankImage,licenseplate,,,,,,,,,,,,0,94,94,304,,,,,,,,,,,,,,,,,,,,,,,,,,,,,,,,,,,636.3194219,637.3335425,637.3169236,637.9061186,637.9061186,None,639.5068118,None,right,0.8956379,639.5068118,None,640.4199915,None,right,0.3666283,640.4199915,None,,,,,,,,,,,,,,,,,,,,,,,PPT10,1,2022-06-29_10h58.31.945,ABstudy,2022.1.4,59.92541683
AB,Lag1_T1P_T2A,1,P,A,7,8,6,4,12,bird,Did you see the bird?,0.12,0.016,JPG\,speaker04,sewingmachine01a,eraser,violin,globe,belt02a,tern,cymbal,cd,greenolive,alligator,pear01,blankImage,blankImage,blankImage,blankImage,blankImage,tern,,,,,,,,,,,,0,95,95,177,,,,,,,,,,,,,,,,,,,,,,,,,,,,,,,,,,,640.8570658,641.8713572,641.8546802,642.4568496,642.4568496,None,643.8487231,None,left,0.8095721,643.8487231,None,644.6909026,None,right,0.5352213,644.6909026,None,,,,,,,,,,,,,,,,,,,,,,,PPT10,1,2022-06-29_10h58.31.945,ABstudy,2022.1.4,59.92541683
AB,Lag5_T1P_T2P,5,P,P,8,13,7,3,16,parachute,Did you see the parachute?,0.12,0.016,JPG\,brick,plate01b,pen04b,toaster01,screwdriver04b,candle01,envelope03a,parachute,pig,ring01,orange,clock01a,stapler03b,calculator01,mushroom01,chain01,blankImage,parachute,,,,,,,,,,,,0,96,96,114,,,,,,,,,,,,,,,,,,,,,,,,,,,,,,,,,,,645.2636675,646.2758849,646.2592569,646.8399811,646.8399811,None,648.7819927,None,left,0.4280646,648.7819927,None,649.2299651,None,left,0.1561025,649.2299651,None,,,,,,,,,,,,,,,,,,,,,,,PPT10,1,2022-06-29_10h58.31.945,ABstudy,2022.1.4,59.92541683
AB,Lag5_T1P_T2P,5,P,P,7,12,6,3,15,mail box,Did you see the mail box?,0.12,0.016,JPG\,key01,apple07,ring01,leaf02a,hammer01,tableknife02,postalmailbox01,sponge01,baseball01a,thermometer02b,celery,stapler06,grape01,cucumber,tennisball01b,blankImage,blankImage,postalmailbox01,,,,,,,,,,,,0,97,97,113,,,,,,,,,,,,,,,,,,,,,,,,,,,,,,,,,,,649.4241305,650.4298023,650.4130595,650.9866109,650.9866109,None,652.8673835,None,left,0.4309462,652.8673835,None,653.3160153,None,left,0.1662024,653.3160153,None,,,,,,,,,,,,,,,,,,,,,,,PPT10,1,2022-06-29_10h58.31.945,ABstudy,2022.1.4,59.92541683
AB,Lag5_T1P_T2P,5,P,P,6,11,5,4,15,fish,Did you see the fish?,0.12,0.016,JPG\,sock01a,spoon01,alligator,comb02a,printer02,rockbass,lamp04a,cymbal,greenolive,computerkeyboard02,stapler03a,scarf,teabag,watermelon01,battery02b,blankImage,blankImage,rockbass,,,,,,,,,,,,0,98,98,115,,,,,,,,,,,,,,,,,,,,,,,,,,,,,,,,,,,653.5019961,654.5010921,654.4843624,655.0992236,655.0992236,None,656.9142185,None,left,0.4719665,656.9142185,None,657.4048213,None,left,0.1416225,657.4048213,None,,,,,,,,,,,,,,,,,,,,,,,PPT10,1,2022-06-29_10h58.31.945,ABstudy,2022.1.4,59.92541683
AB,Lag1_T1A_T2P,1,A,P,6,7,5,3,10,curtain,Did you see the curtain?,0.12,0.016,JPG\,carrot01,greenolive,fork03c,chain01,ashtray01,watermelon01,stapler06,printer02,comb02a,toaster01,blankImage,blankImage,blankImage,blankImage,blankImage,blankImage,blankImage,birdhouse,,,,,,,,,,,,0,99,99,249,,,,,,,,,,,,,,,,,,,,,,,,,,,,,,,,,,,657.5799496,658.58775,658.5713078,659.1467028,659.1467028,None,660.389642,None,right,0.7484736,660.389642,None,661.1572248,None,left,0.2697829,661.1572248,None,,,,,,,,,,,,,,,,,,,,,,,PPT10,1,2022-06-29_10h58.31.945,ABstudy,2022.1.4,59.92541683
AB,Lag5_T1P_T2P,5,P,P,6,11,5,5,16,scooter,Did you see the scooter?,0.12,0.016,JPG\,thermometer02b,candle08b,comb02a,toothbrush03b,brick,scooter,key01,pineapple01a,candy,birthdaycandle,stapler04b,canoftennisballs,teabag,medal02b,balloon01b,banana01,blankImage,scooter,,,,,,,,,,,,0,100,100,118,,,,,,,,,,,,,,,,,,,,,,,,,,,,,,,,,,,661.4610339,662.4752414,662.458589,663.0633529,663.0633529,None,665.0161847,None,left,1.0030942,665.0161847,None,666.0464052,None,right,0.2354555,666.0464052,None,,,,,,,,,,,,,,,,,,,,,,,PPT10,1,2022-06-29_10h58.31.945,ABstudy,2022.1.4,59.92541683
AB,Lag1_T1A_T2P,1,A,P,6,7,5,5,12,Treadmill,Did you see the Treadmill?,0.12,0.016,JPG\,pencil01,broccoli01a,button01,sponge01,watermelon01,lipstick02a,stapler04b,fan,lighter01,sock01a,spoon01,blueberry01,blankImage,blankImage,blankImage,blankImage,blankImage,magneticcompass,,,,,,,,,,,,0,101,101,238,,,,,,,,,,,,,,,,,,,,,,,,,,,,,,,,,,,666.3274904,667.3299246,667.2966326,667.8718695,667.8718695,None,669.3384209,None,right,0.9119048,669.3384209,None,670.2678192,None,left,0.2946175,670.2678192,None,,,,,,,,,,,,,,,,,,,,,,,PPT10,1,2022-06-29_10h58.31.945,ABstudy,2022.1.4,59.92541683
AB,Lag5_T1P_T2P,5,P,P,7,12,6,4,16,window,Did you see the window?,0.12,0.016,JPG\,cigarette,pig,banana01,strawberry,clock01a,plate01b,dormer,blueberry01,battery02b,pineapple01a,chain01,stapler01,candy,pen04b,teabag,birthdaycandle,blankImage,dormer,,,,,,,,,,,,0,102,102,170,,,,,,,,,,,,,,,,,,,,,,,,,,,,,,,,,,,670.5863282,671.6008029,671.5674385,672.1403248,672.1403248,None,674.0362061,None,left,0.3897907,674.0362061,None,674.4536205,None,left,0.1482873,674.4536205,None,,,,,,,,,,,,,,,,,,,,,,,PPT10,1,2022-06-29_10h58.31.945,ABstudy,2022.1.4,59.92541683
AB,Lag1_T1P_T2P,1,P,P,7,8,6,4,12,Dog House,Did you see the Dog House?,0.12,0.016,JPG\,pineapple01a,leaf02a,grape01,toiletpaper01a,match,tennisball01b,doghouse,stapler03b,pig,measuringcup01,ring01,lemon02,blankImage,blankImage,blankImage,blankImage,blankImage,doghouse,,,,,,,,,,,,0,103,103,44,,,,,,,,,,,,,,,,,,,,,,,,,,,,,,,,,,,674.6233758,675.6383523,675.6049997,676.1937027,676.1937027,None,677.6454177,None,left,0.9479274,677.6454177,None,678.624415,None,right,0.3290743,678.624415,None,,,,,,,,,,,,,,,,,,,,,,,PPT10,1,2022-06-29_10h58.31.945,ABstudy,2022.1.4,59.92541683
AB,Lag5_T1P_T2P,5,P,P,5,10,4,4,14,duck,Did you see the duck?,0.12,0.016,JPG\,celery,pencil01,fan,foosballtable,duck01,shirt02,potato02b,fork03c,button01,stapler03a,baseball01a,printer02,cauliflower01,dandelion,blankImage,blankImage,blankImage,duck01,,,,,,,,,,,,0,104,104,130,,,,,,,,,,,,,,,,,,,,,,,,,,,,,,,,,,,678.9773692,679.9924357,679.9591444,680.5423012,680.5423012,None,682.1611232,None,left,0.4727455,682.1611232,None,682.6618219,None,left,0.1720116,682.6618219,None,,,,,,,,,,,,,,,,,,,,,,,PPT10,1,2022-06-29_10h58.31.945,ABstudy,2022.1.4,59.92541683
AB,Lag1_T1P_T2P,1,P,P,7,8,6,4,12,trophy,Did you see the trophy?,0.12,0.016,JPG\,cherry01,cymbal,envelope03a,foosballtable,shirt02,cellphone,trophy01,stapler04b,battery02b,apple07,pencil01,screwdriver04b,blankImage,blankImage,blankImage,blankImage,blankImage,trophy01,,,,,,,,,,,,0,105,105,74,,,,,,,,,,,,,,,,,,,,,,,,,,,,,,,,,,,682.8646164,683.8798831,683.8465266,684.4195242,684.4195242,None,685.9534128,None,left,0.4566664,685.9534128,None,686.4323129,None,left,0.1536114,686.4323129,None,,,,,,,,,,,,,,,,,,,,,,,PPT10,1,2022-06-29_10h58.31.945,ABstudy,2022.1.4,59.92541683
AB,Lag1_T1A_T2A,1,A,A,6,7,5,5,12,flamingo,Did you see the flamingo?,0.12,0.016,JPG\,chain01,pen04b,birthdaycandle,watermelon01,broom01,scissors01,measuringcup01,candle01,hammer01,calculator01,ashtray01,feather03a,blankImage,blankImage,blankImage,blankImage,blankImage,witchhat,,,,,,,,,,,,0,106,106,288,,,,,,,,,,,,,,,,,,,,,,,,,,,,,,,,,,,686.6180518,687.6335131,687.600109,688.17801,688.17801,None,689.6687421,None,right,0.9410605,689.6687421,None,690.6363936,None,right,0.45348,690.6363936,None,,,,,,,,,,,,,,,,,,,,,,,PPT10,1,2022-06-29_10h58.31.945,ABstudy,2022.1.4,59.92541683
AB,Lag1_T1P_T2P,1,P,P,8,9,7,5,14,finger print,Did you see the finger print?,0.12,0.016,JPG\,chain01,pen04b,birthdaycandle,watermelon01,broom01,scissors01,measuringcup01,fingerprint,stapler01,calculator01,ashtray01,feather03a,sewingmachine01a,thermometer02b,blankImage,blankImage,blankImage,fingerprint,,,,,,,,,,,,0,107,107,62,,,,,,,,,,,,,,,,,,,,,,,,,,,,,,,,,,,691.1240711,692.1378908,692.121274,692.704612,692.704612,None,694.4345936,None,left,0.6470353,694.4345936,None,695.1072515,None,left,0.1587157,695.1072515,None,,,,,,,,,,,,,,,,,,,,,,,PPT10,1,2022-06-29_10h58.31.945,ABstudy,2022.1.4,59.92541683
AB,Lag1_T1P_T2P,1,P,P,8,9,7,3,12,mail box,Did you see the mail box?,0.12,0.016,JPG\,paintbrush01,dice05a,watermelon01,broccoli01a,hammer01,leaf02a,match,mailbox01,stapler05,fan,lipstick02a,grape01,blankImage,blankImage,blankImage,blankImage,blankImage,mailbox01,,,,,,,,,,,,0,108,108,20,,,,,,,,,,,,,,,,,,,,,,,,,,,,,,,,,,,695.3001181,696.3084867,696.2918542,696.8581691,696.8581691,None,698.3178773,None,right,2.2039576,698.3178773,None,700.5464674,None,left,0.9036856,700.5464674,None,,,,,,,,,,,,,,,,,,,,,,,PPT10,1,2022-06-29_10h58.31.945,ABstudy,2022.1.4,59.92541683
AB,Lag5_T1P_T2A,5,P,A,5,10,4,3,13,martini glass,Did you see the martini glass?,0.12,0.016,JPG\,brick,eraser,cucumber,ashtray01,martiniglass01b,binoculars01b,lipstick02a,screwdriver04b,grape01,brownsugar,battery02b,iron01b,dice05a,blankImage,blankImage,blankImage,blankImage,martiniglass01b,,,,,,,,,,,,0,109,109,217,,,,,,,,,,,,,,,,,,,,,,,,,,,,,,,,,,,701.4869583,702.4985022,702.4818627,703.0996364,703.0996364,None,704.7056799,None,left,1.2976368,704.7056799,None,706.035439,None,right,1.1502494,706.035439,None,,,,,,,,,,,,,,,,,,,,,,,PPT10,1,2022-06-29_10h58.31.945,ABstudy,2022.1.4,59.92541683
AB,Lag5_T1P_T2P,5,P,P,7,12,6,5,17,American football helmet,Did you see the American football helmet?,0.12,0.016,JPG\,alligator,banana01,apple07,tomato01,button01,spoon01,footballhelmet,fork03c,slipper03b,potato02b,grape01,stapler03b,teabag,screwdriver04b,hammer01,tennisball01b,blankImage,footballhelmet,,,,,,,,,,,,0,110,110,148,,,,,,,,,,,,,,,,,,,,,,,,,,,,,,,,,,,707.2114188,708.2207241,708.2039976,708.7045759,708.7045759,None,710.7836621,None,left,0.2674233,710.7836621,None,711.0731906,None,left,0.1612967,711.0731906,None,,,,,,,,,,,,,,,,,,,,,,,PPT10,1,2022-06-29_10h58.31.945,ABstudy,2022.1.4,59.92541683
AB,Lag5_T1P_T2A,5,P,A,8,13,7,4,17,fountain,Did you see the fountain?,0.12,0.016,JPG\,printer02,envelope03a,potato02b,calculator01,tableknife02,cigarette,ashtray01,parkfountain,broom01,greenolive,candle08b,battery02b,strawberry,candle01,foosballtable,tennisball01b,blankImage,parkfountain,,,,,,,,,,,,0,111,111,219,,,,,,,,,,,,,,,,,,,,,,,,,,,,,,,,,,,711.3003286,712.3079497,712.2913085,712.8747203,712.8747203,None,714.8311563,None,left,0.5550538,714.8311563,None,715.4125171,None,right,0.117504,715.4125171,None,,,,,,,,,,,,,,,,,,,,,,,PPT10,1,2022-06-29_10h58.31.945,ABstudy,2022.1.4,59.92541683
AB,Lag1_T1P_T2P,1,P,P,6,7,5,3,10,drum sticks,Did you see the drum sticks?,0.12,0.016,JPG\,pineapple01a,tennisball01b,computerkeyboard02,feather03a,belt02a,drumstick,stapler03b,blueberry01,medal02b,alligator,blankImage,blankImage,blankImage,blankImage,blankImage,blankImage,blankImage,drumstick,,,,,,,,,,,,0,112,112,61,,,,,,,,,,,,,,,,,,,,,,,,,,,,,,,,,,,715.563494,716.5622938,716.5458295,717.1240363,717.1240363,None,718.3214047,None,left,0.5203582,718.3214047,None,718.8657209,None,left,0.1597814,718.8657209,None,,,,,,,,,,,,,,,,,,,,,,,PPT10,1,2022-06-29_10h58.31.945,ABstudy,2022.1.4,59.92541683
AB,Lag5_T1P_T2P,5,P,P,6,11,5,3,14,ladder,Did you see the ladder?,0.12,0.016,JPG\,celery,orange,scissors01,balloon01b,avocado01,stepladder,mushroom01,sewingmachine01a,lighter01,dice05a,stapler01,fan,cd,sock01a,blankImage,blankImage,blankImage,stepladder,,,,,,,,,,,,0,113,113,119,,,,,,,,,,,,,,,,,,,,,,,,,,,,,,,,,,,719.0503988,720.0656988,720.0324813,720.6119131,720.6119131,None,722.3039962,None,left,0.7701203,722.3039962,None,723.1020224,None,left,0.4123347,723.1020224,None,,,,,,,,,,,,,,,,,,,,,,,PPT10,1,2022-06-29_10h58.31.945,ABstudy,2022.1.4,59.92541683
AB,Lag1_T1P_T2P,1,P,P,7,8,6,3,11,locker,Did you see the locker?,0.12,0.016,JPG\,toiletpaper01a,lipstick02a,potato02b,speaker04,globe,strawberry,locker,stapler04b,sock01a,candle08b,pen04b,blankImage,blankImage,blankImage,blankImage,blankImage,blankImage,locker,,,,,,,,,,,,0,114,114,19,,,,,,,,,,,,,,,,,,,,,,,,,,,,,,,,,,,723.538295,724.5537104,724.5203408,725.1023105,725.1023105,None,726.5385738,None,left,0.823653,726.5385738,None,727.3899928,None,left,0.3559134,727.3899928,None,,,,,,,,,,,,,,,,,,,,,,,PPT10,1,2022-06-29_10h58.31.945,ABstudy,2022.1.4,59.92541683
AB,Lag1_T1P_T2P,1,P,P,8,9,7,4,13,Doughnut,Did you see the Doughnut?,0.12,0.016,JPG\,brick,eraser,cucumber,ashtray01,thermometer02b,binoculars01b,lipstick02a,donut,stapler01,brownsugar,battery02b,iron01b,dice05a,blankImage,blankImage,blankImage,blankImage,donut,,,,,,,,,,,,0,115,115,39,,,,,,,,,,,,,,,,,,,,,,,,,,,,,,,,,,,727.7776156,728.7913025,728.7746958,729.343409,729.343409,None,730.950569,None,left,0.4107981,730.950569,None,731.3939267,None,left,0.1353159,731.3939267,None,,,,,,,,,,,,,,,,,,,,,,,PPT10,1,2022-06-29_10h58.31.945,ABstudy,2022.1.4,59.92541683
AB,Lag1_T1P_T2A,1,P,A,8,9,7,5,14,Sausage,Did you see the Sausage?,0.12,0.016,JPG\,pencil01,broccoli01a,button01,sponge01,watermelon01,lipstick02a,comb02a,sausage,lighter01,sock01a,spoon01,blueberry01,belt02a,onion,blankImage,blankImage,blankImage,sausage,,,,,,,,,,,,0,116,116,175,,,,,,,,,,,,,,,,,,,,,,,,,,,,,,,,,,,731.5664442,732.578456,732.5617477,733.1342999,733.1342999,None,734.8456156,None,left,0.699609,734.8456156,None,735.5645926,None,right,0.2368309,735.5645926,None,,,,,,,,,,,,,,,,,,,,,,,PPT10,1,2022-06-29_10h58.31.945,ABstudy,2022.1.4,59.92541683
AB,Lag1_T1P_T2P,1,P,P,6,7,5,4,11,cash register,Did you see the cash register?,0.12,0.016,JPG\,leaf02a,apple07,cd,pineapple01a,envelope03a,cashregister01,stapler03b,8ball,rice,feather03a,lemon02,blankImage,blankImage,blankImage,blankImage,blankImage,blankImage,cashregister01,,,,,,,,,,,,0,117,117,79,,,,,,,,,,,,,,,,,,,,,,,,,,,,,,,,,,,735.8359818,736.8493662,736.8326669,737.404025,737.404025,None,738.7222605,None,left,0.3830976,738.7222605,None,739.1348368,None,left,0.1474682,739.1348368,None,,,,,,,,,,,,,,,,,,,,,,,PPT10,1,2022-06-29_10h58.31.945,ABstudy,2022.1.4,59.92541683
AB,Lag1_T1P_T2A,1,P,A,8,9,7,5,14,Fridge,Did you see the Fridge?,0.12,0.016,JPG\,cherry01,cymbal,envelope03a,foosballtable,shirt02,cellphone,sewingmachine01a,fridge,battery02b,apple07,pencil01,screwdriver04b,strawberry,sunglasses04,blankImage,blankImage,blankImage,fridge,,,,,,,,,,,,0,118,118,173,,,,,,,,,,,,,,,,,,,,,,,,,,,,,,,,,,,739.3070416,740.3195026,740.3027476,740.8809098,740.8809098,None,742.55603,None,left,0.5653951,742.55603,None,743.1388427,None,left,0.1435291,743.1388427,None,,,,,,,,,,,,,,,,,,,,,,,PPT10,1,2022-06-29_10h58.31.945,ABstudy,2022.1.4,59.92541683
AB,Lag5_T1A_T2A,5,A,A,5,10,4,5,15,flower,Did you see the flower?,0.12,0.016,JPG\,clock01a,cellphone,toaster01,toothbrush03b,cauliflower01,microscope,comb02a,paintbrush01,scarf,clock04,sponge01,iron01b,watch02a,celery,ring01,blankImage,blankImage,stepladder,,,,,,,,,,,,0,119,119,303,,,,,,,,,,,,,,,,,,,,,,,,,,,,,,,,,,,743.3100038,744.323702,744.3070105,744.9039023,744.9039023,None,746.7183886,None,right,0.6514463,746.7183886,None,747.3928494,None,right,0.1769723,747.3928494,None,,,,,,,,,,,,,,,,,,,,,,,PPT10,1,2022-06-29_10h58.31.945,ABstudy,2022.1.4,59.92541683
AB,Lag5_T1P_T2A,5,P,A,5,10,4,3,13,fan,Did you see the fan?,0.12,0.016,JPG\,scissors01,grape01,mushroom01,toiletpaper01a,fanheater,pizza,cigarette,ashtray01,carrot01,pineapple01a,foosballtable,lipstick02a,teabag,blankImage,blankImage,blankImage,blankImage,fanheater,,,,,,,,,,,,0,120,120,220,,,,,,,,,,,,,,,,,,,,,,,,,,,,,,,,,,,747.5954949,748.6107748,748.5773905,749.1616391,749.1616391,None,750.7854079,None,left,1.2243589,750.7854079,None,752.0309797,None,right,0.2981174,752.0309797,None,,,,,,,,,,,,,,,,,,,,,,,PPT10,1,2022-06-29_10h58.31.945,ABstudy,2022.1.4,59.92541683
AB,Lag5_T1P_T2P,5,P,P,8,13,7,3,16,church,Did you see the church?,0.12,0.016,JPG\,clock01a,cellphone,toaster01,toothbrush03b,cauliflower01,microscope,comb02a,church,scarf,clock04,sponge01,iron01b,stapler06,celery,ring01,ashtray01,blankImage,church,,,,,,,,,,,,0,121,121,129,,,,,,,,,,,,,,,,,,,,,,,,,,,,,,,,,,,752.3519767,753.3656195,753.3489268,753.9539979,753.9539979,None,755.8645846,None,left,0.5290084,755.8645846,None,756.4187938,None,left,0.1516217,756.4187938,None,,,,,,,,,,,,,,,,,,,,,,,PPT10,1,2022-06-29_10h58.31.945,ABstudy,2022.1.4,59.92541683
AB,Lag1_T1P_T2P,1,P,P,8,9,7,3,12,bridge,Did you see the bridge?,0.12,0.016,JPG\,speaker04,sewingmachine01a,eraser,violin,globe,belt02a,sunglasses04,bridge,stapler01,greenolive,alligator,pear01,blankImage,blankImage,blankImage,blankImage,blankImage,bridge,,,,,,,,,,,,0,122,122,78,,,,,,,,,,,,,,,,,,,,,,,,,,,,,,,,,,,756.6073192,757.6199821,757.6033803,758.179586,758.179586,None,759.6221682,None,left,0.7309378,759.6221682,None,760.3726832,None,left,0.1253884,760.3726832,None,,,,,,,,,,,,,,,,,,,,,,,PPT10,1,2022-06-29_10h58.31.945,ABstudy,2022.1.4,59.92541683
AB,Lag1_T1P_T2P,1,P,P,7,8,6,3,11,trampoline,Did you see the trampoline?,0.12,0.016,JPG\,dice05a,watch02a,pig,lighter01,button01,strawberry,trampoline,stapler03a,plate01b,pen04b,feather03a,blankImage,blankImage,blankImage,blankImage,blankImage,blankImage,trampoline,,,,,,,,,,,,0,123,123,73,,,,,,,,,,,,,,,,,,,,,,,,,,,,,,,,,,,760.5287885,761.5404521,761.5237999,762.0955368,762.0955368,None,763.4654948,None,left,0.8639185,763.4654948,None,764.3598997,None,left,0.1454212,764.3598997,None,,,,,,,,,,,,,,,,,,,,,,,PPT10,1,2022-06-29_10h58.31.945,ABstudy,2022.1.4,59.92541683
AB,Lag1_T1P_T2A,1,P,A,8,9,7,5,14,Ceiling fan,Did you see the Ceiling fan?,0.12,0.016,JPG\,cucumber,sponge01,alligator,pear01,ashtray01,hammer01,clock04,ceilingfan01,fork03c,binoculars01b,mushroom01,broccoli01a,leaf02a,acorn,blankImage,blankImage,blankImage,ceilingfan01,,,,,,,,,,,,0,124,124,183,,,,,,,,,,,,,,,,,,,,,,,,,,,,,,,,,,,764.5340312,765.5445231,765.5278361,766.0909672,766.0909672,None,767.7133456,None,left,1.0642196,767.7133456,None,768.7975441,None,right,1.5010607,768.7975441,None,,,,,,,,,,,,,,,,,,,,,,,PPT10,1,2022-06-29_10h58.31.945,ABstudy,2022.1.4,59.92541683
AB,Lag5_T1P_T2A,5,P,A,5,10,4,4,14,Ship in a bottle,Did you see the Ship in a bottle?,0.12,0.016,JPG\,sewingmachine01a,thermometer02b,sponge01,eraser,shipinabottle,fork03c,pizza,violin,belt02a,medal02b,pineapple01a,tennisball01b,dandelion,cauliflower01,blankImage,blankImage,blankImage,shipinabottle,,,,,,,,,,,,0,125,125,208,,,,,,,,,,,,,,,,,,,,,,,,,,,,,,,,,,,770.3202388,771.3333478,771.3166618,771.9057284,771.9057284,None,773.6459969,None,left,0.8274506,773.6459969,None,774.5031225,None,right,0.4900832,774.5031225,None,,,,,,,,,,,,,,,,,,,,,,,PPT10,1,2022-06-29_10h58.31.945,ABstudy,2022.1.4,59.92541683
AB,Lag5_T1P_T2P,5,P,P,8,13,7,5,18,Ping pong Table,Did you see the Ping pong Table?,0.12,0.016,JPG\,shirt02,match,screw02,foosballtable,blueberry01,pineapple01a,sewingmachine01a,pingpongtable,button01,comb02a,dice05a,measuringcup01,stapler04b,printer02,carrot01,watermelon01,blankImage,pingpongtable,,,,,,,,,,,,0,126,126,152,,,,,,,,,,,,,,,,,,,,,,,,,,,,,,,,,,,775.0237755,776.0382934,776.0216323,776.6782708,776.597378,None,778.5319439,None,left,0.6374571,778.5319439,None,779.1911744,None,left,0.1702876,779.1911744,None,,,,,,,,,,,,,,,,,,,,,,,PPT10,1,2022-06-29_10h58.31.945,ABstudy,2022.1.4,59.92541683
AB,Lag1_T1P_T2P,1,P,P,7,8,6,4,12,Christmas Tree,Did you see the Christmas Tree?,0.12,0.016,JPG\,sandal,fan,printer02,cellphone,mushroom01,candle08b,firtree,stapler03a,lamp04a,hammer01,teabag,aceofdiamond,blankImage,blankImage,blankImage,blankImage,blankImage,firtree,,,,,,,,,,,,0,127,127,6,,,,,,,,,,,,,,,,,,,,,,,,,,,,,,,,,,,779.3956371,780.408982,780.3923344,780.9801644,780.9801644,None,782.4880014,None,left,0.6813411,782.4880014,None,783.1966255,None,left,0.3566463,783.1966255,None,,,,,,,,,,,,,,,,,,,,,,,PPT10,1,2022-06-29_10h58.31.945,ABstudy,2022.1.4,59.92541683
AB,Lag5_T1P_T2A,5,P,A,6,11,5,4,15,Spear,Did you see the Spear?,0.12,0.016,JPG\,belt02a,measuringcup01,spoon01,chain01,greenolive,spear02,computerkeyboard02,onion,fan,strawberry,candle01,broom01,binoculars01b,ashtray01,pingpongpaddle01c,blankImage,blankImage,spear02,,,,,,,,,,,,0,128,128,227,,,,,,,,,,,,,,,,,,,,,,,,,,,,,,,,,,,783.5872656,784.5965924,784.5796214,785.1589149,785.1589149,None,786.9832307,None,left,0.8185832,786.9832307,None,787.8332468,None,right,11.0477411,787.8332468,None,,,,,,,,,,,,,,,,,,,,,,,PPT10,1,2022-06-29_10h58.31.945,ABstudy,2022.1.4,59.92541683
AB,Lag1_T1P_T2P,1,P,P,5,6,4,5,11,Light switch,Did you see the Light switch?,0.12,0.016,JPG\,iron01b,orange,birthdaycandle,potato02b,lightswitch01,stapler03b,key01,candle08b,celery,tableknife02,pen04b,blankImage,blankImage,blankImage,blankImage,blankImage,blankImage,lightswitch01,,,,,,,,,,,,0,129,129,18,,,,,,,,,,,,,,,,,,,,,,,,,,,,,,,,,,,798.9165527,799.9287205,799.9120055,800.4916791,800.4916791,None,801.8104603,None,right,1.590529,801.8104603,None,803.4318896,None,left,0.1211179,803.4318896,None,,,,,,,,,,,,,,,,,,,,,,,PPT10,1,2022-06-29_10h58.31.945,ABstudy,2022.1.4,59.92541683
AB,Lag1_T1P_T2P,1,P,P,6,7,5,5,12,owl,Did you see the owl?,0.12,0.016,JPG\,paintbrush01,eraser,medal02b,hammer01,speaker04,greathornowl,stapler01,comb02a,plate01b,clock01a,button01,globe,blankImage,blankImage,blankImage,blankImage,blankImage,greathornowl,,,,,,,,,,,,0,130,130,1,,,,,,,,,,,,,,,,,,,,,,,,,,,,,,,,,,,803.5844259,804.5997587,804.5663273,805.1414818,805.1414818,None,806.6559814,None,left,0.8420741,806.6559814,None,807.5195129,None,left,0.1293555,807.5195129,None,,,,,,,,,,,,,,,,,,,,,,,PPT10,1,2022-06-29_10h58.31.945,ABstudy,2022.1.4,59.92541683
AB,Lag5_T1A_T2P,5,A,P,8,13,7,3,16,ladder,Did you see the ladder?,0.12,0.016,JPG\,apple07,toiletpaper01a,pizza,dandelion,greenolive,eraser,microscope,violin,orange,lipstick02a,balloon01b,sandal,stapler01,fan,book01b,sewingmachine01a,blankImage,ostrich,,,,,,,,,,,,0,131,131,269,,,,,,,,,,,,,,,,,,,,,,,,,,,,,,,,,,,807.6734547,808.6874716,808.6708108,809.3108088,809.231656,None,811.2049824,None,right,0.7322616,811.2049824,None,811.9579704,None,left,0.1156144,811.9579704,None,,,,,,,,,,,,,,,,,,,,,,,PPT10,1,2022-06-29_10h58.31.945,ABstudy,2022.1.4,59.92541683
AB,Lag1_T1P_T2P,1,P,P,7,8,6,4,12,cow,Did you see the cow?,0.12,0.016,JPG\,fork03c,plate01b,toiletpaper01a,greenolive,rice,blueberry01,cow,stapler01,envelope03a,orange,book01b,pencil01,blankImage,blankImage,blankImage,blankImage,blankImage,cow,,,,,,,,,,,,0,132,132,59,,,,,,,,,,,,,,,,,,,,,,,,,,,,,,,,,,,812.0908112,813.0918126,813.0750917,813.6352286,813.6352286,None,815.1371812,None,left,0.360014,815.1371812,None,815.527445,None,left,0.1221643,815.527445,None,,,,,,,,,,,,,,,,,,,,,,,PPT10,1,2022-06-29_10h58.31.945,ABstudy,2022.1.4,59.92541683
AB,Lag1_T1P_T2P,1,P,P,6,7,5,5,12,Snowboard,Did you see the Snowboard?,0.12,0.016,JPG\,belt02a,measuringcup01,spoon01,chain01,greenolive,snowboard,stapler01,onion,fan,strawberry,candle01,broom01,blankImage,blankImage,blankImage,blankImage,blankImage,snowboard,,,,,,,,,,,,0,133,133,49,,,,,,,,,,,,,,,,,,,,,,,,,,,,,,,,,,,815.6825078,816.6952674,816.6786409,817.247172,817.247172,None,818.6839382,None,left,0.7731401,818.6839382,None,819.481239,None,right,0.1036757,819.481239,None,,,,,,,,,,,,,,,,,,,,,,,PPT10,1,2022-06-29_10h58.31.945,ABstudy,2022.1.4,59.92541683
AB,Lag1_T1P_T2P,1,P,P,5,6,4,3,9,Pumpkin,Did you see the Pumpkin?,0.12,0.016,JPG\,binoculars01b,speaker04,sandal,envelope03a,pumpkin,stapler03b,battery02b,chain01,measuringcup01,blankImage,blankImage,blankImage,blankImage,blankImage,blankImage,blankImage,blankImage,pumpkin,,,,,,,,,,,,0,134,134,23,,,,,,,,,,,,,,,,,,,,,,,,,,,,,,,,,,,819.6182436,820.6323635,820.5991847,821.1816924,821.1816924,None,822.2710746,None,left,0.4658502,822.2710746,None,822.7678458,None,left,0.1290844,822.7678458,None,,,,,,,,,,,,,,,,,,,,,,,PPT10,1,2022-06-29_10h58.31.945,ABstudy,2022.1.4,59.92541683
AB,Lag1_T1P_T2A,1,P,A,8,9,7,4,13,boat,Did you see the boat?,0.12,0.016,JPG\,fork03c,dandelion,dice05a,belt02a,onion,watch02a,key01,boat,eraser,medal02b,greenolive,shirt02,candle08b,blankImage,blankImage,blankImage,blankImage,boat,,,,,,,,,,,,0,135,135,199,,,,,,,,,,,,,,,,,,,,,,,,,,,,,,,,,,,822.9331873,823.9355783,823.9022485,824.4758057,824.4758057,None,826.1361993,None,left,0.5776818,826.1361993,None,826.7385097,None,right,0.1662807,826.7385097,None,,,,,,,,,,,,,,,,,,,,,,,PPT10,1,2022-06-29_10h58.31.945,ABstudy,2022.1.4,59.92541683
AB,Lag1_T1P_T2P,1,P,P,5,6,4,3,9,camel,Did you see the camel?,0.12,0.016,JPG\,iron01b,brick,broccoli01a,balloon01b,dromedary,stapler05,sandal,teabag,scissors01,blankImage,blankImage,blankImage,blankImage,blankImage,blankImage,blankImage,blankImage,dromedary,,,,,,,,,,,,0,136,136,11,,,,,,,,,,,,,,,,,,,,,,,,,,,,,,,,,,,826.9242312,827.9397356,827.9062129,828.4882571,828.4882571,None,829.6112201,None,left,0.4539998,829.6112201,None,830.091387,None,left,0.1265966,830.091387,None,,,,,,,,,,,,,,,,,,,,,,,PPT10,1,2022-06-29_10h58.31.945,ABstudy,2022.1.4,59.92541683
AB,Lag1_T1P_T2P,1,P,P,8,9,7,4,13,Bird House,Did you see the Bird House?,0.12,0.016,JPG\,toiletpaper01a,mushroom01,medal02b,sandal,rice,cd,feather03a,birdhouse,stapler01,garlic01a,toaster01,belt02a,cigarette,blankImage,blankImage,blankImage,blankImage,birdhouse,,,,,,,,,,,,0,137,137,77,,,,,,,,,,,,,,,,,,,,,,,,,,,,,,,,,,,830.2451393,831.2596225,831.2429522,831.8916364,831.8107225,None,833.4749494,None,left,0.4861001,833.4749494,None,833.9795085,None,left,0.157457,833.9795085,None,,,,,,,,,,,,,,,,,,,,,,,PPT10,1,2022-06-29_10h58.31.945,ABstudy,2022.1.4,59.92541683
AB,Lag1_T1P_T2P,1,P,P,8,9,7,4,13,crab,Did you see the crab?,0.12,0.016,JPG\,candle01,fork03c,plate01b,violin,computerkeyboard02,candy,calculator01,crab01,stapler04b,sock01a,teabag,banana01,cd,blankImage,blankImage,blankImage,blankImage,crab01,,,,,,,,,,,,0,138,138,37,,,,,,,,,,,,,,,,,,,,,,,,,,,,,,,,,,,834.1621536,835.1636703,835.1469256,835.7220022,835.7220022,None,837.3546372,None,left,1.2156183,837.3546372,None,838.6004249,None,left,0.1529042,838.6004249,None,,,,,,,,,,,,,,,,,,,,,,,PPT10,1,2022-06-29_10h58.31.945,ABstudy,2022.1.4,59.92541683
AB,Lag5_T1A_T2A,5,A,A,6,11,5,3,14,mirror,Did you see the mirror?,0.12,0.016,JPG\,foosballtable,candy,envelope03a,microscope,pencil01,leaf02a,scissors01,watermelon01,grape01,dandelion,pineapple01a,hammer01,celery,thermometer02b,blankImage,blankImage,blankImage,shower,,,,,,,,,,,,0,139,139,305,,,,,,,,,,,,,,,,,,,,,,,,,,,,,,,,,,,838.7874538,839.8016471,839.7849138,840.2854719,840.2854719,None,842.0817736,None,right,1.1113091,842.0817736,None,843.2217573,None,right,2.2591194,843.2217573,None,,,,,,,,,,,,,,,,,,,,,,,PPT10,1,2022-06-29_10h58.31.945,ABstudy,2022.1.4,59.92541683
AB,Lag1_T1P_T2A,1,P,A,5,6,4,5,11,Moon,Did you see the Moon?,0.12,0.016,JPG\,lamp04a,broccoli01a,alligator,garlic01a,moon,brownsugar,avocado01,ring01,leaf02a,cellphone,medal02b,blankImage,blankImage,blankImage,blankImage,blankImage,blankImage,moon,,,,,,,,,,,,0,140,140,190,,,,,,,,,,,,,,,,,,,,,,,,,,,,,,,,,,,845.5107237,846.5251301,846.5084096,847.0866028,847.0866028,None,848.4472133,None,right,0.7783007,848.4472133,None,849.2443458,None,right,0.149329,849.2443458,None,,,,,,,,,,,,,,,,,,,,,,,PPT10,1,2022-06-29_10h58.31.945,ABstudy,2022.1.4,59.92541683
AB,Lag5_T1P_T2A,5,P,A,8,13,7,5,18,telescope,Did you see the telescope?,0.12,0.016,JPG\,globe,broccoli01a,binoculars01b,iron01b,avocado01,dandelion,pineapple01a,handheldtelescope,fan,pizza,celery,blueberry01,sewingmachine01a,dice05a,watermelon01,candy,blankImage,handheldtelescope,,,,,,,,,,,,0,141,141,228,,,,,,,,,,,,,,,,,,,,,,,,,,,,,,,,,,,849.4167804,850.4288527,850.41229,850.9950654,850.9950654,None,852.9325952,None,left,0.8288338,852.9325952,None,853.7822368,None,right,0.2752433,853.7822368,None,,,,,,,,,,,,,,,,,,,,,,,PPT10,1,2022-06-29_10h58.31.945,ABstudy,2022.1.4,59.92541683
AB,Lag1_T1P_T2P,1,P,P,6,7,5,5,12,bat,Did you see the bat?,0.12,0.016,JPG\,comb02a,key01,medal02b,battery02b,lighter01,bat,stapler05,sandal,pig,cellphone,computerkeyboard02,calculator01,blankImage,blankImage,blankImage,blankImage,blankImage,bat,,,,,,,,,,,,0,142,142,35,,,,,,,,,,,,,,,,,,,,,,,,,,,,,,,,,,,854.0864953,855.1001292,855.0834696,855.7383929,855.667234,None,857.1427751,None,left,0.3716276,857.1427751,None,857.5359826,None,left,0.1526036,857.5359826,None,,,,,,,,,,,,,,,,,,,,,,,PPT10,1,2022-06-29_10h58.31.945,ABstudy,2022.1.4,59.92541683
AB,Lag1_T1P_T2P,1,P,P,6,7,5,4,11,bowling pin,Did you see the bowling pin?,0.12,0.016,JPG\,strawberry,leaf02a,clock04,candle01,avocado01,bowlingpin,stapler03a,brownsugar,ring01,lemon02,fork03c,blankImage,blankImage,blankImage,blankImage,blankImage,blankImage,bowlingpin,,,,,,,,,,,,0,143,143,8,,,,,,,,,,,,,,,,,,,,,,,,,,,,,,,,,,,857.7804108,858.7871776,858.7703982,859.3549855,859.3549855,None,860.6086853,None,left,0.4329809,860.6086853,None,861.0741635,None,left,0.1512534,861.0741635,None,,,,,,,,,,,,,,,,,,,,,,,PPT10,1,2022-06-29_10h58.31.945,ABstudy,2022.1.4,59.92541683
AB,Lag5_T1P_T2A,5,P,A,8,13,7,5,18,Nunchuks,Did you see the Nunchuks?,0.12,0.016,JPG\,celery,tennisball01b,calculator01,pear01,screw02,orange,button01,nunchuk,onion,apple07,iron01b,brownsugar,banana01,paintbrush01,dandelion,toothbrush03b,blankImage,nunchuk,,,,,,,,,,,,0,144,144,218,,,,,,,,,,,,,,,,,,,,,,,,,,,,,,,,,,,861.264073,862.2739987,862.2573396,862.8387269,862.8387269,None,864.8381332,None,left,1.65862,864.8381332,None,866.5281634,None,right,0.3366895,866.5281634,None,,,,,,,,,,,,,,,,,,,,,,,PPT10,1,2022-06-29_10h58.31.945,ABstudy,2022.1.4,59.92541683
AB,Lag5_T1P_T2P,5,P,P,5,10,4,5,15,mouse,Did you see the mouse?,0.12,0.016,JPG\,pineapple01a,leaf02a,grape01,toiletpaper01a,mouse,tennisball01b,spoon01,chain01,pig,stapler03a,ring01,lemon02,dice05a,pizza,potato02b,blankImage,blankImage,mouse,,,,,,,,,,,,0,145,145,94,,,,,,,,,,,,,,,,,,,,,,,,,,,,,,,,,,,866.8981294,867.913099,867.8797576,868.469384,868.469384,None,870.2793091,None,left,2.5539799,870.2793091,None,872.8513601,None,left,1.3255651,872.8513601,None,,,,,,,,,,,,,,,,,,,,,,,PPT10,1,2022-06-29_10h58.31.945,ABstudy,2022.1.4,59.92541683
AB,Lag5_T1P_T2A,5,P,A,7,12,6,5,17,flower,Did you see the flower?,0.12,0.016,JPG\,cellphone,tomato01,comb02a,candy,celery,cucumber,craneflower,fan,feather03a,pen04b,lemon02,blueberry01,plate01b,cherry01,baseball01a,candle08b,blankImage,craneflower,,,,,,,,,,,,0,146,146,211,,,,,,,,,,,,,,,,,,,,,,,,,,,,,,,,,,,874.2035394,875.2034912,875.186922,875.7958669,875.7958669,None,877.8195311,None,left,0.8620335,877.8195311,None,878.7068605,None,left,1.1822668,878.7068605,None,,,,,,,,,,,,,,,,,,,,,,,PPT10,1,2022-06-29_10h58.31.945,ABstudy,2022.1.4,59.92541683
AB,Lag5_T1P_T2P,5,P,P,5,10,4,5,15,sword fish,Did you see the sword fish?,0.12,0.016,JPG\,scissors01,balloon01b,eraser,feather03a,swordfish,candle01,measuringcup01,calculator01,thermometer02b,stapler04b,pear01,carrot01,globe,baseball01a,leaf02a,blankImage,blankImage,swordfish,,,,,,,,,,,,0,147,147,160,,,,,,,,,,,,,,,,,,,,,,,,,,,,,,,,,,,879.910868,880.9257241,880.9089652,881.5361606,881.4684994,None,883.2820447,None,left,0.5506333,883.2820447,None,883.8622145,None,left,0.5628749,883.8622145,None,,,,,,,,,,,,,,,,,,,,,,,PPT10,1,2022-06-29_10h58.31.945,ABstudy,2022.1.4,59.92541683
AB,Lag1_T1P_T2P,1,P,P,8,9,7,5,14,bullet,Did you see the bullet?,0.12,0.016,JPG\,measuringcup01,dice05a,greenolive,lipstick02a,feather03a,balloon01b,lighter01,bullet,stapler04b,plate01b,microscope,brick,thermometer02b,screw02,blankImage,blankImage,blankImage,bullet,,,,,,,,,,,,0,148,148,57,,,,,,,,,,,,,,,,,,,,,,,,,,,,,,,,,,,884.4513617,885.4638064,885.4470993,886.0591141,886.0591141,None,887.8211066,None,left,0.3249866,887.8211066,None,888.1679855,None,left,0.1525539,888.1679855,None,,,,,,,,,,,,,,,,,,,,,,,PPT10,1,2022-06-29_10h58.31.945,ABstudy,2022.1.4,59.92541683
AB,Lag1_T1P_T2A,1,P,A,7,8,6,3,11,Armadillo,Did you see the Armadillo?,0.12,0.016,JPG\,clock01a,cellphone,toaster01,toothbrush03b,cauliflower01,microscope,armadillo,paintbrush01,scarf,clock04,sponge01,blankImage,blankImage,blankImage,blankImage,blankImage,blankImage,armadillo,,,,,,,,,,,,0,149,149,180,,,,,,,,,,,,,,,,,,,,,,,,,,,,,,,,,,,888.3533075,889.3673521,889.3507454,890.0121844,889.9211062,None,891.2694699,None,left,0.6917575,891.2694699,None,891.9871395,None,right,0.1991955,891.9871395,None,,,,,,,,,,,,,,,,,,,,,,,PPT10,1,2022-06-29_10h58.31.945,ABstudy,2022.1.4,59.92541683
AB,Lag1_T1P_T2P,1,P,P,8,9,7,5,14,Waterfall,Did you see the Waterfall?,0.12,0.016,JPG\,pizza,watch02a,greenolive,cucumber,match,violin,scissors01,waterfall,stapler03a,cherry01,ring01,cigarette,microscope,cellphone,blankImage,blankImage,blankImage,waterfall,,,,,,,,,,,,0,150,150,52,,,,,,,,,,,,,,,,,,,,,,,,,,,,,,,,,,,892.2067132,893.2214689,893.1881509,893.8090726,893.8090726,None,895.486134,None,left,0.5711545,895.486134,None,896.0754623,None,left,0.1817843,896.0754623,None,,,,,,,,,,,,,,,,,,,,,,,PPT10,1,2022-06-29_10h58.31.945,ABstudy,2022.1.4,59.92541683
AB,Lag5_T1P_T2A,5,P,A,6,11,5,5,16,World map,Did you see the World map?,0.12,0.016,JPG\,cigarette,pig,banana01,strawberry,clock01a,worldmap,spoon01,blueberry01,battery02b,pineapple01a,chain01,paintbrush01,candy,pen04b,teabag,birthdaycandle,blankImage,worldmap,,,,,,,,,,,,0,151,151,205,,,,,,,,,,,,,,,,,,,,,,,,,,,,,,,,,,,896.281101,897.2921282,897.2756034,897.841182,897.841182,None,899.7112597,None,left,0.6258885,899.7112597,None,900.3619432,None,right,0.1281458,900.3619432,None,,,,,,,,,,,,,,,,,,,,,,,PPT10,1,2022-06-29_10h58.31.945,ABstudy,2022.1.4,59.92541683
AB,Lag5_T1P_T2P,5,P,P,5,10,4,5,15,baseball bat,Did you see the baseball bat?,0.12,0.016,JPG\,pizza,printer02,medal02b,spoon01,baseballbat,lighter01,belt02a,watermelon01,celery,stapler04b,screw02,comb02a,cauliflower01,lipstick02a,potato02b,blankImage,blankImage,baseballbat,,,,,,,,,,,,0,152,152,123,,,,,,,,,,,,,,,,,,,,,,,,,,,,,,,,,,,900.5607933,901.5630587,901.5463698,902.1583715,902.1583715,None,903.9650722,None,left,0.2035274,903.9650722,None,904.1991458,None,left,0.1454673,904.1991458,None,,,,,,,,,,,,,,,,,,,,,,,PPT10,1,2022-06-29_10h58.31.945,ABstudy,2022.1.4,59.92541683
AB,Lag1_T1P_T2P,1,P,P,6,7,5,5,12,exit sign,Did you see the exit sign?,0.12,0.016,JPG\,printer02,envelope03a,potato02b,calculator01,tableknife02,exitsign,stapler01,pig,broom01,greenolive,candle08b,battery02b,blankImage,blankImage,blankImage,blankImage,blankImage,exitsign,,,,,,,,,,,,0,153,153,41,,,,,,,,,,,,,,,,,,,,,,,,,,,,,,,,,,,904.3744101,905.3838599,905.3669067,905.9692893,905.9692893,None,907.4282419,None,left,0.4122688,907.4282419,None,907.8692371,None,left,0.1552781,907.8692371,None,,,,,,,,,,,,,,,,,,,,,,,PPT10,1,2022-06-29_10h58.31.945,ABstudy,2022.1.4,59.92541683
AB,Lag5_T1A_T2P,5,A,P,8,13,7,5,18,lollipop,Did you see the lollipop?,0.12,0.016,JPG\,watermelon01,banana01,ring01,pencil01,tomato01,speaker04,cucumber,thermometer02b,key01,foosballtable,violin,spoon01,stapler04b,dice05a,pen04b,mushroom01,blankImage,jeans01,,,,,,,,,,,,0,154,154,262,,,,,,,,,,,,,,,,,,,,,,,,,,,,,,,,,,,908.0545894,909.0700691,909.0367437,909.6215908,909.6215908,None,911.5835655,None,right,1.001787,911.5835655,None,912.6071403,None,right,0.9938407,912.6071403,None,,,,,,,,,,,,,,,,,,,,,,,PPT10,1,2022-06-29_10h58.31.945,ABstudy,2022.1.4,59.92541683
AB,Lag5_T1P_T2P,5,P,P,8,13,7,5,18,sock,Did you see the sock?,0.12,0.016,JPG\,thermometer02b,avocado01,scissors01,tennisball01b,medal02b,banana01,strawberry,athleticsock,potato02b,pineapple01a,microscope,cymbal,stapler03b,celery,garlic01a,sunglasses04,blankImage,athleticsock,,,,,,,,,,,,0,155,155,141,,,,,,,,,,,,,,,,,,,,,,,,,,,,,,,,,,,913.627094,914.6424632,914.6091412,915.1872838,915.1872838,None,917.1318422,None,left,0.5421075,917.1318422,None,917.6957796,None,left,0.7935174,917.6957796,None,,,,,,,,,,,,,,,,,,,,,,,PPT10,1,2022-06-29_10h58.31.945,ABstudy,2022.1.4,59.92541683
AB,Lag5_T1P_T2P,5,P,P,6,11,5,5,16,Parking meter,Did you see the Parking meter?,0.12,0.016,JPG\,dice05a,watch02a,pig,lighter01,button01,parkingmeter,paintbrush01,microscope,plate01b,pen04b,stapler03b,weight04a,carrot01,shirt02,globe,garlic01a,blankImage,parkingmeter,,,,,,,,,,,,0,156,156,172,,,,,,,,,,,,,,,,,,,,,,,,,,,,,,,,,,,918.5198329,919.530963,919.5141596,920.0822369,920.0822369,None,922.0868564,None,right,2.6745055,922.0868564,None,924.786012,None,left,0.9348877,924.786012,None,,,,,,,,,,,,,,,,,,,,,,,PPT10,1,2022-06-29_10h58.31.945,ABstudy,2022.1.4,59.92541683
AB,Lag5_T1A_T2P,5,A,P,8,13,7,5,18,fish,Did you see the fish?,0.12,0.016,JPG\,scissors01,grape01,mushroom01,toiletpaper01a,greenolive,pizza,cigarette,ashtray01,carrot01,pineapple01a,foosballtable,lipstick02a,stapler04b,tambourine02,potato02b,violin,blankImage,chimney,,,,,,,,,,,,0,157,157,283,,,,,,,,,,,,,,,,,,,,,,,,,,,,,,,,,,,925.7558458,926.771262,926.7379359,927.3063074,927.3063074,None,929.3042148,None,right,1.1449779,929.3042148,None,930.4760905,None,right,0.7487851,930.4760905,None,,,,,,,,,,,,,,,,,,,,,,,PPT10,1,2022-06-29_10h58.31.945,ABstudy,2022.1.4,59.92541683
AB,Lag1_T1P_T2P,1,P,P,7,8,6,4,12,skunk,Did you see the skunk?,0.12,0.016,JPG\,fan,tomato01,candy,screwdriver04b,alligator,cd,skunk,stapler03b,button01,plate01b,brownsugar,lighter01,blankImage,blankImage,blankImage,blankImage,blankImage,skunk,,,,,,,,,,,,0,158,158,48,,,,,,,,,,,,,,,,,,,,,,,,,,,,,,,,,,,931.2495431,932.2600192,932.2433709,932.8213377,932.8213377,None,934.2870768,None,left,0.8898845,934.2870768,None,935.1963041,None,left,0.180522,935.1963041,None,,,,,,,,,,,,,,,,,,,,,,,PPT10,1,2022-06-29_10h58.31.945,ABstudy,2022.1.4,59.92541683
AB,Lag5_T1P_T2P,5,P,P,8,13,7,5,18,spice rack,Did you see the spice rack?,0.12,0.016,JPG\,lamp04a,broccoli01a,alligator,garlic01a,dandelion,brownsugar,avocado01,spicerack,leaf02a,cellphone,medal02b,cd,stapler05,sunglasses04,strawberry,eraser,blankImage,spicerack,,,,,,,,,,,,0,159,159,140,,,,,,,,,,,,,,,,,,,,,,,,,,,,,,,,,,,935.4445374,936.4481683,936.4314462,937.0209348,937.0209348,None,938.9670764,None,left,0.641928,938.9670764,None,939.6340619,None,left,0.1909211,939.6340619,None,,,,,,,,,,,,,,,,,,,,,,,PPT10,1,2022-06-29_10h58.31.945,ABstudy,2022.1.4,59.92541683
