TrialType,CondType,Lag,T1_PA,T2_PA,T1Loc,T2Loc,PreDistractor,PostDistractor,TotalImg,cueWord,T1cue,StimLength,isi,PicFolder,Img1,Img2,Img3,Img4,Img5,Img6,Img7,Img8,Img9,Img10,Img11,Img12,Img13,Img14,Img15,Img16,Img17,T1_Identity,ImageType,T1PA,T2PA,Picture,Image,FullPathName,FilePath,Practice_Trials.thisRepN,Practice_Trials.thisTrialN,Practice_Trials.thisN,Practice_Trials.thisIndex,trials.thisRepN,trials.thisTrialN,trials.thisN,trials.thisIndex,trials_2.thisRepN,trials_2.thisTrialN,trials_2.thisN,trials_2.thisIndex,Practice_Ins.started,Practice_Ins.stopped,End_Prac_Ins.keys,End_Prac_Ins.rt,End_Prac_Ins.started,End_Prac_Ins.stopped,text_2.started,text_2.stopped,Fixation_Cross_2.started,Fixation_Cross_2.stopped,Rapid_Image_Present_2.started,Rapid_Image_Present_2.stopped,key_resp.keys,key_resp.rt,key_resp.started,key_resp.stopped,T1Response_2.started,T1Response_2.stopped,T2Response_2.started,T2Response_2.stopped,key_resp_4.keys,key_resp_4.rt,key_resp_4.started,key_resp_4.stopped,text.started,text.stopped,End_Instructions.keys,End_Instructions.rt,End_Instructions.started,End_Instructions.stopped,text_5.started,text_5.stopped,FC.started,FC.stopped,Rapid_Image_Present.started,Rapid_Image_Present.stopped,T1Response.started,T1Response.stopped,key_resp_2.keys,key_resp_2.rt,key_resp_2.started,key_resp_2.stopped,T2Response.started,T2Response.stopped,key_resp_3.keys,key_resp_3.rt,key_resp_3.started,key_resp_3.stopped,text_6.started,text_6.stopped,Fin_ins.keys,Fin_ins.rt,Fin_ins.started,Fin_ins.stopped,MemTest.started,MemTest.stopped,MemResponse.keys,MemResponse.rt,MemResponse.started,MemResponse.stopped,Display.started,Display.stopped,text_7.started,text_7.stopped,endOfExperiment.started,endOfExperiment.stopped,key_resp_5.keys,key_resp_5.rt,key_resp_5.started,key_resp_5.stopped,participant,session,date,expName,psychopyVersion,frameRate,
,,,,,,,,,,,,,,,,,,,,,,,,,,,,,,,,,,,,,,,,,,,,,,,,,,,,51.29955319999863,None,space,26.30538549999619,51.29955319999863,None,,,,,,,,,,,,,,,,,,,,,,,,,,,,,,,,,,,,,,,,,,,,,,,,,,,,,,,,,,,,,,,,,PPT15,001,2022-06-30_09h08.37.319,ABstudy,2022.1.4,60.103739052865016,
AB_Prac,Lag5_T1A_T2A,5,A,A,6,11,5,5,16,castle,Did you see the castle?,0.5,0.016,JPG\,tape02a,englishmuffin,flask,ladle02a,monitor,peach01,keychain,squeegee01b,telephone01b,whisk,walkman,syringe02,baguette01,coaster,box01a,coffeepot03a,blankImage,None,,,,,,,,0,0,0,11,,,,,,,,,,,,,,,77.68144239999674,78.694462200001,78.6777826999969,79.29257520000101,79.29257520000101,None,left,0.8702619999967283,87.35764880000352,None,87.35764880000352,None,88.25683079999726,None,left,0.7002754999994067,88.25683079999726,None,,,,,,,,,,,,,,,,,,,,,,,,,,,,,,,,,,,,,,,,,,,,,,,PPT15,001,2022-06-30_09h08.37.319,ABstudy,2022.1.4,60.103739052865016,
AB_Prac,Lag5_T1A_T2P,5,A,P,6,11,5,3,14,dog,Did you see the dog?,0.5,0.016,JPG\,bucket01a,doorlock,cookiecutter,fireextinguisher01,gluestick,highlighter02b,sportbag,spraybottle01,suitcase,thread02,stapler05,walnut01c,icecubetray01a,vikingmask01b,blankImage,blankImage,blankImage,None,,,,,,,,0,1,1,9,,,,,,,,,,,,,,,88.9919108000031,90.00591149999673,89.98907350000081,90.57300270000269,90.57300270000269,None,left,0.7448920999959228,97.6268029999992,None,97.6268029999992,None,98.39752150000277,None,right,0.3183296999995946,98.39752150000277,None,,,,,,,,,,,,,,,,,,,,,,,,,,,,,,,,,,,,,,,,,,,,,,,PPT15,001,2022-06-30_09h08.37.319,ABstudy,2022.1.4,60.103739052865016,
AB_Prac,Lag1_T1P_T2P,1,P,P,8,9,7,5,14,Tennis racket,Did you see the Tennis racket?,0.5,0.016,JPG\,coconut,computermouse06,croissant01,deodorant02a,pillow01a,peanut01,boot02b,tennisracket,stapler03b,crayon,eggplant,marker01a,plant01,radish01,blankImage,blankImage,blankImage,tennisracket,,,,,,,,0,2,2,0,,,,,,,,,,,,,,,98.75859959999798,99.76557640000101,99.73222030000034,100.31472390000272,100.31472390000272,None,right,0.5795581999991555,107.34455889999663,None,107.34455889999663,None,107.95709219999844,None,right,0.3430045999994036,107.95709219999844,None,,,,,,,,,,,,,,,,,,,,,,,,,,,,,,,,,,,,,,,,,,,,,,,PPT15,001,2022-06-30_09h08.37.319,ABstudy,2022.1.4,60.103739052865016,
AB_Prac,Lag1_T1P_T2A,1,P,A,5,6,4,5,11,Webcam,Did you see the Webcam?,0.5,0.016,JPG\,pictureframe04,binder03b,straw,adjustablewrench01b,webcam,cane,hairdryer02a,icepack,kitchenscale01a,lifejacket,piggybank,blankImage,blankImage,blankImage,blankImage,blankImage,blankImage,webcam,,,,,,,,0,3,3,6,,,,,,,,,,,,,,,108.38393109999743,109.39189349999651,109.35865349999949,109.93419790000189,109.93419790000189,None,right,0.8778783000016119,115.4623075999989,None,115.4623075999989,None,116.36522140000307,None,left,0.4389357000036398,116.36522140000307,None,,,,,,,,,,,,,,,,,,,,,,,,,,,,,,,,,,,,,,,,,,,,,,,PPT15,001,2022-06-30_09h08.37.319,ABstudy,2022.1.4,60.103739052865016,
AB_Prac,Lag1_T1P_T2A,1,P,A,8,9,7,5,14,flower,Did you see the flower?,0.5,0.016,JPG\,razor01,axe01,binder03b,bowl01,kettle01,lettuce,lime,plasticflower01b,mitten04,pencilcase01,plunger02,strawbasket01,toothpick02,wallet02a,blankImage,blankImage,blankImage,plasticflower01b,,,,,,,,0,4,4,5,,,,,,,,,,,,,,,116.9318962000034,117.93345579999732,117.91677389999677,118.48843540000234,118.48843540000234,None,right,0.7545867999942857,125.60195950000343,None,125.60195950000343,None,126.37533280000207,None,left,0.30063109999900917,126.37533280000207,None,,,,,,,,,,,,,,,,,,,,,,,,,,,,,,,,,,,,,,,,,,,,,,,PPT15,001,2022-06-30_09h08.37.319,ABstudy,2022.1.4,60.103739052865016,
AB_Prac,Lag5_T1P_T2P,5,P,P,7,12,6,3,15,vacuum,Did you see the vacuum?,0.5,0.016,JPG\,fork07b,lightbulb01,manshoe,saw02b,shoelace,soap03a,vacuumcleaner01,floortile01,necklace,doll,cabbage,stapler03a,hanger02a,laptop01a,nailpolish03b,blankImage,blankImage,vacuumcleaner01,,,,,,,,0,5,5,2,,,,,,,,,,,,,,,126.70578540000133,127.7101365999988,127.69342860000324,128.26228139999876,128.26228139999876,None,right,0.4143095999970683,135.78250750000007,None,135.78250750000007,None,136.2185965000026,None,right,0.28956559999642195,136.2185965000026,None,,,,,,,,,,,,,,,,,,,,,,,,,,,,,,,,,,,,,,,,,,,,,,,PPT15,001,2022-06-30_09h08.37.319,ABstudy,2022.1.4,60.103739052865016,
AB_Prac,Lag1_T1A_T2A,1,A,A,8,9,7,3,12,Moose,Did you see the Moose?,0.5,0.016,JPG\,clothespin03b,corkscrew03a,drillbit03a,fusilli03a,needlenosepliers01,perfume01a,pistachio,scrubbingbrush05b,spatula03,toothpastetube,hinge,toydinosaur,blankImage,blankImage,blankImage,blankImage,blankImage,None,,,,,,,,0,6,6,10,,,,,,,,,,,,,,,136.5376619000017,137.55315580000024,137.51976329999889,138.10691780000343,138.10691780000343,None,left,0.8953110000002198,144.12519310000062,None,144.12519310000062,None,145.04401009999856,None,left,0.2238089999955264,145.04401009999856,None,,,,,,,,,,,,,,,,,,,,,,,,,,,,,,,,,,,,,,,,,,,,,,,PPT15,001,2022-06-30_09h08.37.319,ABstudy,2022.1.4,60.103739052865016,
AB_Prac,Lag1_T1P_T2P,1,P,P,6,7,5,5,12,triangle,Did you see the triangle?,0.5,0.016,JPG\,ginger,mousetrap,plum01,slipper01b,dropper01,triangle,stapler04b,pants,raspberry01,rope03,scale01a,vase01,blankImage,blankImage,blankImage,blankImage,blankImage,triangle,,,,,,,,0,7,7,1,,,,,,,,,,,,,,,145.29848779999884,146.31196259999706,146.29520860000048,146.8706097999966,146.8706097999966,None,right,0.5474034999933792,152.97626979999768,None,152.97626979999768,None,153.55316660000244,None,right,0.1862729999993462,153.55316660000244,None,,,,,,,,,,,,,,,,,,,,,,,,,,,,,,,,,,,,,,,,,,,,,,,PPT15,001,2022-06-30_09h08.37.319,ABstudy,2022.1.4,60.103739052865016,
AB_Prac,Lag5_T1P_T2P,5,P,P,5,10,4,5,15,Vulture,Did you see the Vulture?,0.5,0.016,JPG\,shorts01,toast,ramekin01,bib,vulture,cracker02,date,glasses01a,hat03b,stapler01,measuringtape01,nail,pill,drum01,starfish01,blankImage,blankImage,vulture,,,,,,,,0,8,8,3,,,,,,,,,,,,,,,153.77517870000156,154.78678460000083,154.7701406999986,155.35276290000184,155.35276290000184,None,right,0.595133299997542,162.91241389999777,None,162.91241389999777,None,163.5290640000021,None,right,0.2985906000030809,163.5290640000021,None,,,,,,,,,,,,,,,,,,,,,,,,,,,,,,,,,,,,,,,,,,,,,,,PPT15,001,2022-06-30_09h08.37.319,ABstudy,2022.1.4,60.103739052865016,
AB_Prac,Lag5_T1P_T2P,5,P,P,5,10,4,5,15,washing machine,Did you see the washing machine?,0.5,0.016,JPG\,waterbottle03,wheel01,flashlight02b,zucchini01,washingmachine,headphones02b,nutcracker01,paintroller01,paperclip03,stapler06,ribbon04,electricrazor,bottleofredwine01,pitabread,pot02a,blankImage,blankImage,washingmachine,,,,,,,,0,9,9,4,,,,,,,,,,,,,,,163.85228579999966,164.86381770000298,164.84723410000151,165.42711209999834,165.42711209999834,None,right,0.5881878000000142,172.91244719999668,None,172.91244719999668,None,173.52235369999835,None,right,0.18500189999758732,173.52235369999835,None,,,,,,,,,,,,,,,,,,,,,,,,,,,,,,,,,,,,,,,,,,,,,,,PPT15,001,2022-06-30_09h08.37.319,ABstudy,2022.1.4,60.103739052865016,
AB_Prac,Lag5_T1P_T2A,5,P,A,6,11,5,5,16,bread,Did you see the bread?,0.5,0.016,JPG\,cleaver01,clipboard,dustpan,hikingshoe01,notebook03a,baguette01,playingcard,pliers02b,styrofoamcup,rollingpin01a,swimgoggles,wineglass01,fryingpan02a,safetypin,syringe01,thimble,blankImage,baguette01,,,,,,,,0,10,10,8,,,,,,,,,,,,,,,173.74327970000013,174.7569399999993,174.74024780000036,175.31359959999827,175.31359959999827,None,right,0.6951543999966816,183.4211656999978,None,183.4211656999978,None,184.13275180000346,None,left,0.4953975999960676,184.13275180000346,None,,,,,,,,,,,,,,,,,,,,,,,,,,,,,,,,,,,,,,,,,,,,,,,PPT15,001,2022-06-30_09h08.37.319,ABstudy,2022.1.4,60.103739052865016,
AB_Prac,Lag5_T1P_T2A,5,P,A,6,11,5,5,16,Wheat,Did you see the Wheat?,0.5,0.016,JPG\,bottleopener01,dentalfloss03b,cooler01,icecreamcone01a,paperclip01b,wheat,pencilsharpener02a,plasticbasket01a,toycar04,apricot,hairclip02,rock01a,honeydewmelon,antenna,blackberry,cardboardbox,blankImage,wheat,,,,,,,,0,11,11,7,,,,,,,,,,,,,,,184.6522313000023,185.66761070000211,185.63427560000127,186.2096789999996,186.2096789999996,None,right,0.5324956999975257,194.23960480000096,None,194.23960480000096,None,194.7932901000022,None,left,0.24992239999846788,194.7932901000022,None,,,,,,,,,,,,,,,,,,,,,,,,,,,,,,,,,,,,,,,,,,,,,,,PPT15,001,2022-06-30_09h08.37.319,ABstudy,2022.1.4,60.103739052865016,
,,,,,,,,,,,,,,,,,,,,,,,,,,,,,,,,,,,,,,,,,,,,,,,,,,,,,,,,,,,,,,,,,,,,,,,,,,,,195.0602629999994,None,space,7.032133299995621,195.0602629999994,None,,,,,,,,,,,,,,,,,,,,,,,,,,,,,,,,,,,,,,,,,PPT15,001,2022-06-30_09h08.37.319,ABstudy,2022.1.4,60.103739052865016,
AB,Lag1_T1P_T2P,1,P,P,6,7,5,3,10,cupcake,Did you see the cupcake?,0.12,0.016,JPG\,printer02,leaf02a,cauliflower01,sock01a,brownsugar,cupcake,stapler01,orange,belt02a,shirt02,blankImage,blankImage,blankImage,blankImage,blankImage,blankImage,blankImage,cupcake,,,,,,,,,,,,0,0,0,38,,,,,,,,,,,,,,,,,,,,,,,,,,,,,,,,,,,202.70955870000034,203.71902599999885,203.7023745999977,204.31251399999746,204.31251399999746,None,205.57439280000108,None,right,0.7182724000012968,205.57439280000108,None,206.3214625000037,None,left,0.2982537999996566,206.3214625000037,None,,,,,,,,,,,,,,,,,,,,,,,PPT15,001,2022-06-30_09h08.37.319,ABstudy,2022.1.4,60.103739052865016,
AB,Lag1_T1P_T2A,1,P,A,7,8,6,4,12,gate,Did you see the gate?,0.12,0.016,JPG\,pen04b,speaker04,lighter01,cherry01,pintofbeer,onion,entrancegate,toothbrush03b,broom01,sewingmachine01a,book01b,iron01b,blankImage,blankImage,blankImage,blankImage,blankImage,entrancegate,,,,,,,,,,,,0,1,1,187,,,,,,,,,,,,,,,,,,,,,,,,,,,,,,,,,,,206.64067480000085,207.65612079999846,207.6227923999977,208.1992919999975,208.1992919999975,None,209.64949499999784,None,right,0.9461513999995077,209.64949499999784,None,210.62571919999755,None,left,0.19505689999641618,210.62571919999755,None,,,,,,,,,,,,,,,,,,,,,,,PPT15,001,2022-06-30_09h08.37.319,ABstudy,2022.1.4,60.103739052865016,
AB,Lag1_T1P_T2P,1,P,P,5,6,4,5,11,shark,Did you see the shark?,0.12,0.016,JPG\,cucumber,sponge01,alligator,pear01,greatwhiteshark,stapler06,clock04,battery02b,fork03c,binoculars01b,mushroom01,blankImage,blankImage,blankImage,blankImage,blankImage,blankImage,greatwhiteshark,,,,,,,,,,,,0,2,2,84,,,,,,,,,,,,,,,,,,,,,,,,,,,,,,,,,,,210.84490060000098,211.86028590000205,211.8269270000019,212.40786639999715,212.40786639999715,None,213.79762350000237,None,right,0.43785489999572746,213.79762350000237,None,214.26290670000162,None,right,0.164664999996603,214.26290670000162,None,,,,,,,,,,,,,,,,,,,,,,,PPT15,001,2022-06-30_09h08.37.319,ABstudy,2022.1.4,60.103739052865016,
AB,Lag1_T1A_T2P,1,A,P,8,9,7,4,13,Toolbox,Did you see the Toolbox?,0.12,0.016,JPG\,pizza,printer02,medal02b,spoon01,grape01,lighter01,belt02a,watermelon01,stapler03b,battery02b,screw02,comb02a,cauliflower01,blankImage,blankImage,blankImage,blankImage,ladybug03,,,,,,,,,,,,0,3,3,237,,,,,,,,,,,,,,,,,,,,,,,,,,,,,,,,,,,214.45497949999844,215.46440430000075,215.44815779999772,216.04626709999866,216.04626709999866,None,217.5967634999979,None,left,0.9028767999916454,217.5967634999979,None,218.51714229999925,None,left,0.18235049999930197,218.51714229999925,None,,,,,,,,,,,,,,,,,,,,,,,PPT15,001,2022-06-30_09h08.37.319,ABstudy,2022.1.4,60.103739052865016,
AB,Lag5_T1P_T2A,5,P,A,6,11,5,5,16,World map,Did you see the World map?,0.12,0.016,JPG\,cigarette,pig,banana01,strawberry,clock01a,worldmap,spoon01,blueberry01,battery02b,pineapple01a,chain01,paintbrush01,candy,pen04b,teabag,birthdaycandle,blankImage,worldmap,,,,,,,,,,,,0,4,4,205,,,,,,,,,,,,,,,,,,,,,,,,,,,,,,,,,,,218.72410910000326,219.73502790000202,219.71837819999928,220.30055639999773,220.30055639999773,None,222.1541556000011,None,right,0.5210974000001443,222.1541556000011,None,222.7046960000007,None,left,0.14673849999235244,222.7046960000007,None,,,,,,,,,,,,,,,,,,,,,,,PPT15,001,2022-06-30_09h08.37.319,ABstudy,2022.1.4,60.103739052865016,
AB,Lag1_T1P_T2P,1,P,P,7,8,6,5,13,disco ball,Did you see the disco ball?,0.12,0.016,JPG\,candle01,paintbrush01,scissors01,fan,microscope,toothbrush03b,discoball,stapler03b,teabag,pencil01,lemon02,ashtray01,shirt02,blankImage,blankImage,blankImage,blankImage,discoball,,,,,,,,,,,,0,5,5,60,,,,,,,,,,,,,,,,,,,,,,,,,,,,,,,,,,,222.87702770000033,223.8891444999972,223.8725648999971,224.43541350000305,224.43541350000305,None,226.0677343999996,None,right,0.38515239999833284,226.0677343999996,None,226.47488680000242,None,right,0.13680439999734517,226.47488680000242,None,,,,,,,,,,,,,,,,,,,,,,,PPT15,001,2022-06-30_09h08.37.319,ABstudy,2022.1.4,60.103739052865016,
AB,Lag1_T1P_T2P,1,P,P,7,8,6,3,11,trampoline,Did you see the trampoline?,0.12,0.016,JPG\,dice05a,watch02a,pig,lighter01,button01,strawberry,trampoline,stapler03a,plate01b,pen04b,feather03a,blankImage,blankImage,blankImage,blankImage,blankImage,blankImage,trampoline,,,,,,,,,,,,0,6,6,73,,,,,,,,,,,,,,,,,,,,,,,,,,,,,,,,,,,226.69303529999888,227.6927119000029,227.67602369999804,228.26409440000134,228.26409440000134,None,229.55376899999828,None,right,0.409374899994873,229.55376899999828,None,229.99525629999698,None,right,0.128236199998355,229.99525629999698,None,,,,,,,,,,,,,,,,,,,,,,,PPT15,001,2022-06-30_09h08.37.319,ABstudy,2022.1.4,60.103739052865016,
AB,Lag5_T1P_T2P,5,P,P,6,11,5,5,16,microwave,Did you see the microwave?,0.12,0.016,JPG\,pen04b,speaker04,lighter01,cherry01,weight04a,microwave,sock01a,toothbrush03b,broom01,sewingmachine01a,stapler06,iron01b,clock01a,sandal,cd,blueberry01,blankImage,microwave,,,,,,,,,,,,0,7,7,136,,,,,,,,,,,,,,,,,,,,,,,,,,,,,,,,,,,230.1517412999965,231.16313459999947,231.1463348000034,231.71737260000373,231.71737260000373,None,233.69966040000145,None,right,0.40081220000138273,233.69966040000145,None,234.13253729999997,None,right,0.1269343999956618,234.13253729999997,None,,,,,,,,,,,,,,,,,,,,,,,PPT15,001,2022-06-30_09h08.37.319,ABstudy,2022.1.4,60.103739052865016,
AB,Lag5_T1P_T2A,5,P,A,5,10,4,3,13,Totem Pole,Did you see the Totem Pole?,0.12,0.016,JPG\,canoftennisballs,banana01,scissors01,pig,totempole,leaf02a,pear01,sponge01,fork03c,tableknife02,balloon01b,match,toothbrush03b,blankImage,blankImage,blankImage,blankImage,totempole,,,,,,,,,,,,0,8,8,202,,,,,,,,,,,,,,,,,,,,,,,,,,,,,,,,,,,234.2906817999974,235.30036259999906,235.28363199999876,235.86749209999834,235.86749209999834,None,237.43842169999698,None,right,0.6845470999978716,237.43842169999698,None,238.1531787999993,None,left,0.13876580000214744,238.1531787999993,None,,,,,,,,,,,,,,,,,,,,,,,PPT15,001,2022-06-30_09h08.37.319,ABstudy,2022.1.4,60.103739052865016,
AB,Lag5_T1A_T2P,5,A,P,5,10,4,5,15,parachute,Did you see the parachute?,0.12,0.016,JPG\,binoculars01b,speaker04,sandal,envelope03a,plate01b,comb02a,battery02b,chain01,measuringcup01,stapler03b,medal02b,lamp04a,tennisball01b,pizza,cigarette,blankImage,blankImage,knee,,,,,,,,,,,,0,9,9,264,,,,,,,,,,,,,,,,,,,,,,,,,,,,,,,,,,,238.44283220000216,239.45478680000087,239.43803469999693,240.0304174999983,240.0304174999983,None,241.72424380000302,None,left,0.7435038999974495,241.72424380000302,None,242.49107000000367,None,left,0.1617662999924505,242.49107000000367,None,,,,,,,,,,,,,,,,,,,,,,,PPT15,001,2022-06-30_09h08.37.319,ABstudy,2022.1.4,60.103739052865016,
AB,Lag1_T1P_T2P,1,P,P,8,9,7,3,12,snow globe,Did you see the Snow globe?,0.12,0.016,JPG\,eraser,measuringcup01,chain01,birthdaycandle,ring01,rice,8ball,stapler04b,stapler01,celery,microscope,sunglasses04,blankImage,blankImage,blankImage,blankImage,blankImage,snowglobe,,,,,,,,,,,,0,10,10,56,,,,,,,,,,,,,,,,,,,,,,,,,,,,,,,,,,,242.67737179999676,243.69204570000147,243.67533900000126,244.32243870000093,244.24668219999876,None,245.71673839999858,None,left,1.0952875999937532,245.71673839999858,None,246.828454100003,None,right,0.15948549999302486,246.828454100003,None,,,,,,,,,,,,,,,,,,,,,,,PPT15,001,2022-06-30_09h08.37.319,ABstudy,2022.1.4,60.103739052865016,
AB,Lag1_T1P_T2A,1,P,A,6,7,5,5,12,Tombstone,Did you see the Tombstone?,0.12,0.016,JPG\,cigarette,ashtray01,envelope03a,sandal,chain01,tombstone,broccoli01a,tomato01,dandelion,candle01,lemon02,button01,blankImage,blankImage,blankImage,blankImage,blankImage,tombstone,,,,,,,,,,,,0,11,11,196,,,,,,,,,,,,,,,,,,,,,,,,,,,,,,,,,,,247.01431130000128,248.02970579999965,247.99629480000294,248.58002560000023,248.58002560000023,None,250.04900859999907,None,right,0.6829804999943008,250.04900859999907,None,250.74907399999938,None,left,0.1259012999944389,250.74907399999938,None,,,,,,,,,,,,,,,,,,,,,,,PPT15,001,2022-06-30_09h08.37.319,ABstudy,2022.1.4,60.103739052865016,
AB,Lag5_T1P_T2P,5,P,P,7,12,6,5,17,flamingo,Did you see the flamingo?,0.12,0.016,JPG\,pig,belt02a,rice,screwdriver04b,candle01,apple07,flamingo,pear01,feather03a,match,thermometer02b,stapler06,lemon02,violin,medal02b,pineapple01a,blankImage,flamingo,,,,,,,,,,,,0,12,12,153,,,,,,,,,,,,,,,,,,,,,,,,,,,,,,,,,,,250.90148639999825,251.91690019999805,251.88351759999932,252.38398310000048,252.38398310000048,None,254.44680730000255,None,right,0.3725267999980133,254.44680730000255,None,254.83642770000006,None,right,0.15194689999771072,254.83642770000006,None,,,,,,,,,,,,,,,,,,,,,,,PPT15,001,2022-06-30_09h08.37.319,ABstudy,2022.1.4,60.103739052865016,
AB,Lag5_T1P_T2P,5,P,P,8,13,7,3,16,Chefs hat,Did you see the Chefs hat?,0.12,0.016,JPG\,rice,watermelon01,tableknife02,scarf,computerkeyboard02,cauliflower01,battery02b,chefshat,book01b,sandal,sponge01,microscope,stapler01,fork03c,thermometer02b,apple07,blankImage,chefshat,,,,,,,,,,,,0,13,13,128,,,,,,,,,,,,,,,,,,,,,,,,,,,,,,,,,,,255.02569930000027,256.03761680000025,256.02089420000266,256.6054262000034,256.6054262000034,None,258.60555909999675,None,left,0.6540249999961816,258.60555909999675,None,259.2908610000013,None,left,0.4016517999989446,259.2908610000013,None,,,,,,,,,,,,,,,,,,,,,,,PPT15,001,2022-06-30_09h08.37.319,ABstudy,2022.1.4,60.103739052865016,
AB,Lag1_T1P_T2P,1,P,P,6,7,5,4,11,Bow,Did you see the Bow?,0.12,0.016,JPG\,broom01,plate01b,scissors01,garlic01a,paintbrush01,bow,stapler03a,shirt02,speaker04,celery,sandal,blankImage,blankImage,blankImage,blankImage,blankImage,blankImage,bow,,,,,,,,,,,,0,14,14,53,,,,,,,,,,,,,,,,,,,,,,,,,,,,,,,,,,,259.7299383999998,260.74232559999655,260.72561300000234,261.30102780000016,261.30102780000016,None,262.66452890000073,None,right,0.7304334999935236,262.66452890000073,None,263.4116992999989,None,left,0.20013949999702163,263.4116992999989,None,,,,,,,,,,,,,,,,,,,,,,,PPT15,001,2022-06-30_09h08.37.319,ABstudy,2022.1.4,60.103739052865016,
AB,Lag1_T1A_T2A,1,A,A,6,7,5,5,12,Safe,Did you see the Safe?,0.12,0.016,JPG\,hammer01,sponge01,toaster01,cherry01,feather03a,mushroom01,measuringcup01,pencil01,tennisball01b,brick,clock04,medal02b,blankImage,blankImage,blankImage,blankImage,blankImage,downhillski,,,,,,,,,,,,0,15,15,294,,,,,,,,,,,,,,,,,,,,,,,,,,,,,,,,,,,263.63153800000146,264.64620730000024,264.61287450000236,265.187047899999,265.187047899999,None,266.7235464999976,None,left,2.743496099996264,266.7235464999976,None,269.4846075000023,None,left,0.15147549999528565,269.4846075000023,None,,,,,,,,,,,,,,,,,,,,,,,PPT15,001,2022-06-30_09h08.37.319,ABstudy,2022.1.4,60.103739052865016,
AB,Lag5_T1P_T2P,5,P,P,6,11,5,4,15,saxophone,Did you see the saxophone?,0.12,0.016,JPG\,pizza,strawberry,potato02b,speaker04,battery02b,saxophone,dice05a,cellphone,globe,banana01,stapler03b,baseball01a,toaster01,broom01,ring01,blankImage,blankImage,saxophone,,,,,,,,,,,,0,16,16,117,,,,,,,,,,,,,,,,,,,,,,,,,,,,,,,,,,,269.67442960000335,270.6857321999996,270.669112399999,271.2517368999979,271.2517368999979,None,273.0472445999985,None,right,0.3644665999963763,273.0472445999985,None,273.4382353000037,None,right,0.14920249999704538,273.4382353000037,None,,,,,,,,,,,,,,,,,,,,,,,PPT15,001,2022-06-30_09h08.37.319,ABstudy,2022.1.4,60.103739052865016,
AB,Lag5_T1A_T2A,5,A,A,5,10,4,5,15,flower,Did you see the flower?,0.12,0.016,JPG\,clock01a,cellphone,toaster01,toothbrush03b,cauliflower01,microscope,comb02a,paintbrush01,scarf,clock04,sponge01,iron01b,watch02a,celery,ring01,blankImage,blankImage,stepladder,,,,,,,,,,,,0,17,17,303,,,,,,,,,,,,,,,,,,,,,,,,,,,,,,,,,,,273.6075567000007,274.62271820000024,274.5893970000034,275.1729151999971,275.1729151999971,None,276.9822929000002,None,left,0.7810469999967609,276.9822929000002,None,277.7926589999988,None,left,0.1466913999975077,277.7926589999988,None,,,,,,,,,,,,,,,,,,,,,,,PPT15,001,2022-06-30_09h08.37.319,ABstudy,2022.1.4,60.103739052865016,
AB,Lag1_T1A_T2A,1,A,A,6,7,5,5,12,flamingo,Did you see the flamingo?,0.12,0.016,JPG\,chain01,pen04b,birthdaycandle,watermelon01,broom01,scissors01,measuringcup01,candle01,hammer01,calculator01,ashtray01,feather03a,blankImage,blankImage,blankImage,blankImage,blankImage,witchhat,,,,,,,,,,,,0,18,18,288,,,,,,,,,,,,,,,,,,,,,,,,,,,,,,,,,,,277.96176469999773,278.97716650000075,278.9438181000005,279.5139560000025,279.5139560000025,None,281.0014341999995,None,left,0.7943605000036769,281.0014341999995,None,281.81321190000017,None,left,0.5985738999952446,281.81321190000017,None,,,,,,,,,,,,,,,,,,,,,,,PPT15,001,2022-06-30_09h08.37.319,ABstudy,2022.1.4,60.103739052865016,
AB,Lag1_T1P_T2P,1,P,P,7,8,6,4,12,Dog House,Did you see the Dog House?,0.12,0.016,JPG\,pineapple01a,leaf02a,grape01,toiletpaper01a,match,tennisball01b,doghouse,stapler03b,pig,measuringcup01,ring01,lemon02,blankImage,blankImage,blankImage,blankImage,blankImage,doghouse,,,,,,,,,,,,0,19,19,44,,,,,,,,,,,,,,,,,,,,,,,,,,,,,,,,,,,282.43610759999865,283.4484869000007,283.4318418999974,284.0178003999972,284.0178003999972,None,285.4771095000033,None,right,0.6140009999944596,285.4771095000033,None,286.1177871999971,None,left,0.10942559999239165,286.1177871999971,None,,,,,,,,,,,,,,,,,,,,,,,PPT15,001,2022-06-30_09h08.37.319,ABstudy,2022.1.4,60.103739052865016,
AB,Lag5_T1P_T2P,5,P,P,7,12,6,5,17,Badminton Racket,Did you see the Badminton Racket?,0.12,0.016,JPG\,paintbrush01,dice05a,watermelon01,broccoli01a,hammer01,leaf02a,badmintonracket,tennisball01b,lemon02,fan,lipstick02a,stapler04b,envelope03a,sponge01,foosballtable,orange,blankImage,badmintonracket,,,,,,,,,,,,0,20,20,163,,,,,,,,,,,,,,,,,,,,,,,,,,,,,,,,,,,286.2618835999965,287.268710700002,287.2527046000032,287.84159910000017,287.84159910000017,None,289.80950960000337,None,right,0.32971070000348845,289.80950960000337,None,290.1718028999967,None,right,0.12848030000168364,290.1718028999967,None,,,,,,,,,,,,,,,,,,,,,,,PPT15,001,2022-06-30_09h08.37.319,ABstudy,2022.1.4,60.103739052865016,
AB,Lag5_T1P_T2P,5,P,P,6,11,5,4,15,shower,Did you see the shower?,0.12,0.016,JPG\,dice05a,watch02a,pig,lighter01,button01,shower,paintbrush01,microscope,plate01b,pen04b,stapler05,weight04a,carrot01,shirt02,globe,blankImage,blankImage,shower,,,,,,,,,,,,0,21,21,121,,,,,,,,,,,,,,,,,,,,,,,,,,,,,,,,,,,290.37004880000313,291.37334779999946,291.3566690000007,291.93802940000023,291.93802940000023,None,293.75385839999944,None,left,0.4817151999959606,293.75385839999944,None,294.2589527000018,None,right,0.12869119999959366,294.2589527000018,None,,,,,,,,,,,,,,,,,,,,,,,PPT15,001,2022-06-30_09h08.37.319,ABstudy,2022.1.4,60.103739052865016,
AB,Lag5_T1P_T2P,5,P,P,5,10,4,3,13,Jellyfish,Did you see the Jellyfish?,0.12,0.016,JPG\,printer02,envelope03a,potato02b,calculator01,jellyfish,cigarette,ashtray01,pig,broom01,stapler06,candle08b,battery02b,strawberry,blankImage,blankImage,blankImage,blankImage,jellyfish,,,,,,,,,,,,0,22,22,91,,,,,,,,,,,,,,,,,,,,,,,,,,,,,,,,,,,294.41448169999785,295.42682649999915,295.4101081999979,295.9944364999974,295.9944364999974,None,297.614193100002,None,right,0.38958719999936875,297.614193100002,None,298.0294317000007,None,right,0.12536049999471288,298.0294317000007,None,,,,,,,,,,,,,,,,,,,,,,,PPT15,001,2022-06-30_09h08.37.319,ABstudy,2022.1.4,60.103739052865016,
AB,Lag5_T1P_T2P,5,P,P,5,10,4,5,15,Ipad,Did you see the Ipad?,0.12,0.016,JPG\,fork03c,toothbrush03b,cellphone,fan,ipad02,clock01a,ring01,eraser,sunglasses04,stapler06,violin,brownsugar,blueberry01,pear01,pencil01,blankImage,blankImage,ipad02,,,,,,,,,,,,0,23,23,150,,,,,,,,,,,,,,,,,,,,,,,,,,,,,,,,,,,298.1844917999988,299.19723910000175,299.180558,299.7455125999986,299.7455125999986,None,301.5600592999981,None,right,0.379685599997174,301.5600592999981,None,301.96822200000315,None,right,0.1315511999928276,301.96822200000315,None,,,,,,,,,,,,,,,,,,,,,,,PPT15,001,2022-06-30_09h08.37.319,ABstudy,2022.1.4,60.103739052865016,
AB,Lag1_T1P_T2A,1,P,A,7,8,6,4,12,Steering wheel,Did you see the Steering wheel?,0.12,0.016,JPG\,alligator,banana01,apple07,tomato01,button01,spoon01,steeringwheel,fork03c,canoftennisballs,potato02b,grape01,leaf02a,blankImage,blankImage,blankImage,blankImage,blankImage,steeringwheel,,,,,,,,,,,,0,24,24,198,,,,,,,,,,,,,,,,,,,,,,,,,,,,,,,,,,,302.1754222000018,303.1847420999984,303.1681011999972,303.66877139999997,303.66877139999997,None,305.18538219999755,None,right,0.7302775999996811,305.18538219999755,None,305.9375136000017,None,left,0.0982369999983348,305.9375136000017,None,,,,,,,,,,,,,,,,,,,,,,,PPT15,001,2022-06-30_09h08.37.319,ABstudy,2022.1.4,60.103739052865016,
AB,Lag1_T1P_T2A,1,P,A,5,6,4,4,10,bird,Did you see the bird?,0.12,0.016,JPG\,toaster01,scarf,toiletpaper01a,calculator01,swallow,sewingmachine01a,fan,teabag,strawberry,balloon01b,blankImage,blankImage,blankImage,blankImage,blankImage,blankImage,blankImage,swallow,,,,,,,,,,,,0,25,25,195,,,,,,,,,,,,,,,,,,,,,,,,,,,,,,,,,,,306.0578497000024,307.07207149999886,307.05529679999745,307.70995689999836,307.6289257000026,None,308.84403600000223,None,right,0.5749457999918377,308.84403600000223,None,309.44128620000265,None,left,0.07377329999872018,309.44128620000265,None,,,,,,,,,,,,,,,,,,,,,,,PPT15,001,2022-06-30_09h08.37.319,ABstudy,2022.1.4,60.103739052865016,
AB,Lag5_T1P_T2P,5,P,P,5,10,4,4,14,duck,Did you see the duck?,0.12,0.016,JPG\,celery,pencil01,fan,foosballtable,duck01,shirt02,potato02b,fork03c,button01,stapler03a,baseball01a,printer02,cauliflower01,dandelion,blankImage,blankImage,blankImage,duck01,,,,,,,,,,,,0,26,26,130,,,,,,,,,,,,,,,,,,,,,,,,,,,,,,,,,,,309.5966543999966,310.6088963000002,310.59219250000024,311.1828115000026,311.1828115000026,None,312.72763470000064,None,right,0.6519242999929702,312.72763470000064,None,313.4115829000002,None,right,0.1199828000026173,313.4115829000002,None,,,,,,,,,,,,,,,,,,,,,,,PPT15,001,2022-06-30_09h08.37.319,ABstudy,2022.1.4,60.103739052865016,
AB,Lag5_T1P_T2A,5,P,A,7,12,6,4,16,Bear,Did you see the Bear?,0.12,0.016,JPG\,comb02a,key01,medal02b,battery02b,lighter01,microscope,grizzly,sandal,pig,cellphone,computerkeyboard02,calculator01,cymbal,clock04,cucumber,avocado01,blankImage,grizzly,,,,,,,,,,,,0,27,27,213,,,,,,,,,,,,,,,,,,,,,,,,,,,,,,,,,,,313.5665366999965,314.5795169999983,314.56271579999884,315.13280130000203,315.13280130000203,None,317.12230460000137,None,right,0.4254028999930597,317.12230460000137,None,317.5657566000009,None,left,0.10090649999619927,317.5657566000009,None,,,,,,,,,,,,,,,,,,,,,,,PPT15,001,2022-06-30_09h08.37.319,ABstudy,2022.1.4,60.103739052865016,
AB,Lag1_T1P_T2P,1,P,P,5,6,4,3,9,mail box,Did you see the mail box?,0.12,0.016,JPG\,watermelon01,banana01,ring01,pencil01,mailbox02,stapler04b,cucumber,thermometer02b,key01,blankImage,blankImage,blankImage,blankImage,blankImage,blankImage,blankImage,blankImage,mailbox02,,,,,,,,,,,,0,28,28,21,,,,,,,,,,,,,,,,,,,,,,,,,,,,,,,,,,,317.705779099997,318.71688330000325,318.7002022000015,319.2741978999984,319.2741978999984,None,320.3583972999986,None,right,0.7727438000001712,320.3583972999986,None,321.1524386000019,None,left,0.06661509999685222,321.1524386000019,None,,,,,,,,,,,,,,,,,,,,,,,PPT15,001,2022-06-30_09h08.37.319,ABstudy,2022.1.4,60.103739052865016,
AB,Lag1_T1P_T2P,1,P,P,8,9,7,5,14,helicopter,Did you see the helicopter?,0.12,0.016,JPG\,broom01,globe,cellphone,tableknife02,cauliflower01,scissors01,ring01,helicopter,stapler01,toaster01,cigarette,grape01,microscope,cucumber,blankImage,blankImage,blankImage,helicopter,,,,,,,,,,,,0,29,29,85,,,,,,,,,,,,,,,,,,,,,,,,,,,,,,,,,,,321.2390366999971,322.2535405000017,322.2201318000007,322.78930540000147,322.78930540000147,None,324.50010920000204,None,right,0.3756837999972049,324.50010920000204,None,324.9065782000034,None,right,0.11238599999342114,324.9065782000034,None,,,,,,,,,,,,,,,,,,,,,,,PPT15,001,2022-06-30_09h08.37.319,ABstudy,2022.1.4,60.103739052865016,
AB,Lag5_T1A_T2P,5,A,P,8,13,7,3,16,ladder,Did you see the ladder?,0.12,0.016,JPG\,apple07,toiletpaper01a,pizza,dandelion,greenolive,eraser,microscope,violin,orange,lipstick02a,balloon01b,sandal,stapler01,fan,book01b,sewingmachine01a,blankImage,ostrich,,,,,,,,,,,,0,30,30,269,,,,,,,,,,,,,,,,,,,,,,,,,,,,,,,,,,,325.045915900002,326.05715670000063,326.04046180000296,326.62460409999767,326.62460409999767,None,328.5837391000023,None,left,0.6361227000015788,328.5837391000023,None,329.2441012999989,None,left,0.1509029000008013,329.2441012999989,None,,,,,,,,,,,,,,,,,,,,,,,PPT15,001,2022-06-30_09h08.37.319,ABstudy,2022.1.4,60.103739052865016,
AB,Lag5_T1P_T2P,5,P,P,7,12,6,3,15,marble,Did you see the marble?,0.12,0.016,JPG\,cigarette,ashtray01,envelope03a,sandal,chain01,cucumber,marble,tomato01,dandelion,candle01,lemon02,stapler03b,potato02b,cymbal,clock01a,blankImage,blankImage,marble,,,,,,,,,,,,0,31,31,146,,,,,,,,,,,,,,,,,,,,,,,,,,,,,,,,,,,329.4312920000011,330.44530490000034,330.4285885999998,330.9950689999969,330.9950689999969,None,332.8398376999976,None,right,0.34803919999831123,332.8398376999976,None,333.21462939999765,None,right,0.10934999999881256,333.21462939999765,None,,,,,,,,,,,,,,,,,,,,,,,PPT15,001,2022-06-30_09h08.37.319,ABstudy,2022.1.4,60.103739052865016,
AB,Lag1_T1P_T2P,1,P,P,5,6,4,5,11,football,Did you see the football?,0.12,0.016,JPG\,globe,belt02a,sponge01,violin,soccerball,stapler01,clock01a,microscope,balloon01b,scarf,teabag,blankImage,blankImage,blankImage,blankImage,blankImage,blankImage,soccerball,,,,,,,,,,,,0,32,32,26,,,,,,,,,,,,,,,,,,,,,,,,,,,,,,,,,,,333.3525490000029,334.3658034999971,334.3491385000016,334.94727660000353,334.94727660000353,None,336.2327641000011,None,right,0.3632616999966558,336.2327641000011,None,336.61806040000374,None,right,0.12104769999859855,336.61806040000374,None,,,,,,,,,,,,,,,,,,,,,,,PPT15,001,2022-06-30_09h08.37.319,ABstudy,2022.1.4,60.103739052865016,
AB,Lag5_T1P_T2P,5,P,P,6,11,5,5,16,keys,Did you see the keys?,0.12,0.016,JPG\,toiletpaper01a,mushroom01,medal02b,sandal,rice,foldingchair,feather03a,pizza,candle08b,garlic01a,stapler01,belt02a,cigarette,violin,lemon02,fork03c,blankImage,foldingchair,,,,,,,,,,,,0,33,33,125,,,,,,,,,,,,,,,,,,,,,,,,,,,,,,,,,,,336.77162990000215,337.7858822999988,337.75251990000106,338.34434019999753,338.34434019999753,None,340.30654550000327,None,left,0.7521214000007603,340.30654550000327,None,341.08924030000344,None,left,0.10651569999754429,341.08924030000344,None,,,,,,,,,,,,,,,,,,,,,,,PPT15,001,2022-06-30_09h08.37.319,ABstudy,2022.1.4,60.103739052865016,
AB,Lag5_T1P_T2P,5,P,P,6,11,5,3,14,fish,Did you see the fish?,0.12,0.016,JPG\,broom01,globe,cellphone,tableknife02,cauliflower01,holdfast,ring01,alligator,rice,toaster01,stapler03b,grape01,microscope,cucumber,blankImage,blankImage,blankImage,holdfast,,,,,,,,,,,,0,34,34,133,,,,,,,,,,,,,,,,,,,,,,,,,,,,,,,,,,,341.23744219999935,342.2400807000013,342.20672080000077,342.7844269999987,342.7844269999987,None,344.51587969999673,None,right,0.5356987999984995,344.51587969999673,None,345.07778379999945,None,left,0.07873129999643425,345.07778379999945,None,,,,,,,,,,,,,,,,,,,,,,,PPT15,001,2022-06-30_09h08.37.319,ABstudy,2022.1.4,60.103739052865016,
AB,Lag5_T1P_T2P,5,P,P,8,13,7,5,18,Kiwi,Did you see the Kiwi?,0.12,0.016,JPG\,violin,pizza,toothbrush03b,pineapple01a,banana01,ashtray01,candy,kiwi03,clock04,sock01a,microscope,speaker04,stapler04b,sunglasses04,lipstick02a,blueberry01,blankImage,kiwi03,,,,,,,,,,,,0,35,35,111,,,,,,,,,,,,,,,,,,,,,,,,,,,,,,,,,,,345.25122810000175,346.2608244000003,346.24410299999727,346.8254738999967,346.8254738999967,None,348.72206030000234,None,right,0.31325379999907454,348.72206030000234,None,349.064377900002,None,right,0.09906780000164872,349.064377900002,None,,,,,,,,,,,,,,,,,,,,,,,PPT15,001,2022-06-30_09h08.37.319,ABstudy,2022.1.4,60.103739052865016,
AB,Lag1_T1P_T2P,1,P,P,8,9,7,4,13,peacock,Did you see the peacock?,0.12,0.016,JPG\,hammer01,sponge01,toaster01,cherry01,feather03a,mushroom01,measuringcup01,peacock,stapler03a,brick,clock04,medal02b,teabag,blankImage,blankImage,blankImage,blankImage,peacock,,,,,,,,,,,,0,36,36,68,,,,,,,,,,,,,,,,,,,,,,,,,,,,,,,,,,,349.1886751999991,350.19809330000135,350.1813933000012,350.7559137999997,350.7559137999997,None,352.39302580000367,None,right,0.3459902000031434,352.39302580000367,None,352.7674964999969,None,right,0.09962099999393104,352.7674964999969,None,,,,,,,,,,,,,,,,,,,,,,,PPT15,001,2022-06-30_09h08.37.319,ABstudy,2022.1.4,60.103739052865016,
AB,Lag1_T1P_T2P,1,P,P,8,9,7,5,14,finger print,Did you see the finger print?,0.12,0.016,JPG\,chain01,pen04b,birthdaycandle,watermelon01,broom01,scissors01,measuringcup01,fingerprint,stapler01,calculator01,ashtray01,feather03a,sewingmachine01a,thermometer02b,blankImage,blankImage,blankImage,fingerprint,,,,,,,,,,,,0,37,37,62,,,,,,,,,,,,,,,,,,,,,,,,,,,,,,,,,,,352.8917880000008,353.9019302000015,353.88522450000164,354.46474450000096,354.46474450000096,None,356.17638050000096,None,right,0.6429207999972277,356.17638050000096,None,356.8379270000005,None,right,0.1254551999954856,356.8379270000005,None,,,,,,,,,,,,,,,,,,,,,,,PPT15,001,2022-06-30_09h08.37.319,ABstudy,2022.1.4,60.103739052865016,
AB,Lag5_T1A_T2P,5,A,P,7,12,6,3,15,hockey puck,Did you see the hockey puck?,0.12,0.016,JPG\,toiletpaper01a,lipstick02a,potato02b,speaker04,globe,strawberry,carrot01,plate01b,sock01a,candle08b,pen04b,stapler04b,foosballtable,brick,pear01,blankImage,blankImage,frisbee,,,,,,,,,,,,0,38,38,260,,,,,,,,,,,,,,,,,,,,,,,,,,,,,,,,,,,356.99158680000255,358.0057980999991,357.989121300001,358.64219169999706,358.555271600002,None,360.3982552000016,None,left,0.8284572999982629,360.3982552000016,None,361.2592220000006,None,right,0.11151719999907073,361.2592220000006,None,,,,,,,,,,,,,,,,,,,,,,,PPT15,001,2022-06-30_09h08.37.319,ABstudy,2022.1.4,60.103739052865016,
AB,Lag1_T1A_T2P,1,A,P,8,9,7,4,13,nose,Did you see the nose?,0.12,0.016,JPG\,pizza,strawberry,potato02b,speaker04,battery02b,iron01b,dice05a,cellphone,stapler06,banana01,medal02b,baseball01a,toaster01,blankImage,blankImage,blankImage,blankImage,cow,,,,,,,,,,,,0,39,39,231,,,,,,,,,,,,,,,,,,,,,,,,,,,,,,,,,,,361.39645759999985,362.41040729999804,362.39366300000256,363.0642211000013,362.9752969999972,None,364.5824423000013,None,left,0.6361990999939735,364.5824423000013,None,365.24661480000213,None,right,0.08489479999843752,365.24661480000213,None,,,,,,,,,,,,,,,,,,,,,,,PPT15,001,2022-06-30_09h08.37.319,ABstudy,2022.1.4,60.103739052865016,
AB,Lag1_T1P_T2P,1,P,P,8,9,7,5,14,giraffe,Did you see the giraffe?,0.12,0.016,JPG\,pencil01,foosballtable,banana01,lipstick02a,toaster01,grape01,key01,giraffe,stapler03b,pineapple01a,strawberry,teabag,dandelion,paintbrush01,blankImage,blankImage,blankImage,giraffe,,,,,,,,,,,,0,40,40,0,,,,,,,,,,,,,,,,,,,,,,,,,,,,,,,,,,,365.3686336000028,366.3810086000012,366.36433950000355,366.93022989999736,366.93022989999736,None,368.6229605999979,None,right,0.30863959999987856,368.6229605999979,None,368.95007030000124,None,right,0.1326649999973597,368.95007030000124,None,,,,,,,,,,,,,,,,,,,,,,,PPT15,001,2022-06-30_09h08.37.319,ABstudy,2022.1.4,60.103739052865016,
AB,Lag1_T1P_T2P,1,P,P,5,6,4,5,11,Basketball,Did you see the Basketball?,0.12,0.016,JPG\,pencil01,microscope,banana01,computerkeyboard02,basketball01,stapler04b,scissors01,sock01a,book01b,onion,dice05a,blankImage,blankImage,blankImage,blankImage,blankImage,blankImage,basketball01,,,,,,,,,,,,0,41,41,34,,,,,,,,,,,,,,,,,,,,,,,,,,,,,,,,,,,369.1046065999981,370.1180757999973,370.10138890000235,370.7351017999972,370.6670171000005,None,371.9906101000015,None,right,1.2204878999982611,371.9906101000015,None,373.23791480000364,None,left,0.4049899999954505,373.23791480000364,None,,,,,,,,,,,,,,,,,,,,,,,PPT15,001,2022-06-30_09h08.37.319,ABstudy,2022.1.4,60.103739052865016,
AB,Lag1_T1P_T2A,1,P,A,5,6,4,4,10,flower,Did you see the flower?,0.12,0.016,JPG\,broom01,globe,cellphone,tableknife02,daffodil,scissors01,ring01,alligator,rice,toaster01,blankImage,blankImage,blankImage,blankImage,blankImage,blankImage,blankImage,daffodil,,,,,,,,,,,,0,42,42,184,,,,,,,,,,,,,,,,,,,,,,,,,,,,,,,,,,,373.67369679999683,374.6890876000034,374.65574110000307,375.23127090000344,375.23127090000344,None,376.5072827999975,None,right,0.5203914999947301,376.5072827999975,None,377.0585854000019,None,left,0.40091539999411907,377.0585854000019,None,,,,,,,,,,,,,,,,,,,,,,,PPT15,001,2022-06-30_09h08.37.319,ABstudy,2022.1.4,60.103739052865016,
AB,Lag1_T1P_T2P,1,P,P,6,7,5,3,10,jelly beans,Did you see the jelly beans?,0.12,0.016,JPG\,lipstick02a,cucumber,candle08b,printer02,grape01,jellybean,stapler01,lighter01,belt02a,balloon01b,blankImage,blankImage,blankImage,blankImage,blankImage,blankImage,blankImage,jellybean,,,,,,,,,,,,0,43,43,15,,,,,,,,,,,,,,,,,,,,,,,,,,,,,,,,,,,377.5030998000002,378.50974490000226,378.4931024999969,379.0524160999994,379.0524160999994,None,380.3457840999981,None,right,0.32870939999702387,380.3457840999981,None,380.6952125000025,None,right,0.1082860000024084,380.6952125000025,None,,,,,,,,,,,,,,,,,,,,,,,PPT15,001,2022-06-30_09h08.37.319,ABstudy,2022.1.4,60.103739052865016,
AB,Lag1_T1P_T2A,1,P,A,6,7,5,4,11,Road,Did you see the Road?,0.12,0.016,JPG\,pizza,printer02,medal02b,spoon01,grape01,road02,belt02a,watermelon01,celery,battery02b,screw02,blankImage,blankImage,blankImage,blankImage,blankImage,blankImage,road02,,,,,,,,,,,,0,44,44,174,,,,,,,,,,,,,,,,,,,,,,,,,,,,,,,,,,,380.8728429999974,381.87976560000243,381.8630864000006,382.45618500000273,382.45618500000273,None,383.7343344000037,None,right,0.7490413999985321,383.7343344000037,None,384.51587010000367,None,left,0.08734279999771388,384.51587010000367,None,,,,,,,,,,,,,,,,,,,,,,,PPT15,001,2022-06-30_09h08.37.319,ABstudy,2022.1.4,60.103739052865016,
AB,Lag1_T1P_T2P,1,P,P,6,7,5,5,12,Snowboard,Did you see the Snowboard?,0.12,0.016,JPG\,belt02a,measuringcup01,spoon01,chain01,greenolive,snowboard,stapler01,onion,fan,strawberry,candle01,broom01,blankImage,blankImage,blankImage,blankImage,blankImage,snowboard,,,,,,,,,,,,0,45,45,49,,,,,,,,,,,,,,,,,,,,,,,,,,,,,,,,,,,384.63935749999655,385.64978910000355,385.63352339999983,386.2101862999989,386.2101862999989,None,387.63452510000207,None,right,0.29682109999703243,387.63452510000207,None,387.95212660000107,None,right,0.11511700000119163,387.95212660000107,None,,,,,,,,,,,,,,,,,,,,,,,PPT15,001,2022-06-30_09h08.37.319,ABstudy,2022.1.4,60.103739052865016,
AB,Lag1_T1A_T2P,1,A,P,5,6,4,3,9,microphone,Did you see the microphone?,0.12,0.016,JPG\,hammer01,sponge01,toaster01,cherry01,feather03a,stapler06,measuringcup01,pencil01,tennisball01b,blankImage,blankImage,blankImage,blankImage,blankImage,blankImage,blankImage,blankImage,cactus,,,,,,,,,,,,0,46,46,230,,,,,,,,,,,,,,,,,,,,,,,,,,,,,,,,,,,388.13746070000343,389.13694950000354,389.12034349999885,389.69135220000317,389.69135220000317,None,390.73904839999886,None,left,0.6476786999992328,390.73904839999886,None,391.40593069999886,None,right,0.10089509999670554,391.40593069999886,None,,,,,,,,,,,,,,,,,,,,,,,PPT15,001,2022-06-30_09h08.37.319,ABstudy,2022.1.4,60.103739052865016,
AB,Lag1_T1P_T2P,1,P,P,7,8,6,5,13,horse,Did you see the horse?,0.12,0.016,JPG\,watermelon01,pencil01,microscope,blueberry01,computerkeyboard02,lamp04a,horse,stapler03b,sock01a,key01,binoculars01b,cauliflower01,ashtray01,blankImage,blankImage,blankImage,blankImage,horse,,,,,,,,,,,,0,47,47,3,,,,,,,,,,,,,,,,,,,,,,,,,,,,,,,,,,,391.54252290000295,392.5570516000007,392.52373290000105,393.11713600000076,393.11713600000076,None,394.7243632000027,None,right,0.23845189999701688,394.7243632000027,None,394.9926570000025,None,right,0.11428139999770792,394.9926570000025,None,,,,,,,,,,,,,,,,,,,,,,,PPT15,001,2022-06-30_09h08.37.319,ABstudy,2022.1.4,60.103739052865016,
AB,Lag1_T1A_T2A,1,A,A,8,9,7,4,13,Recycling bin,Did you see the Recycling bin?,0.12,0.016,JPG\,brick,plate01b,pen04b,toaster01,screwdriver04b,candle01,envelope03a,feather03a,pig,ring01,orange,clock01a,lighter01,blankImage,blankImage,blankImage,blankImage,bumpercar,,,,,,,,,,,,0,48,48,292,,,,,,,,,,,,,,,,,,,,,,,,,,,,,,,,,,,395.18160940000234,396.19384990000253,396.17724499999895,396.76114110000344,396.76114110000344,None,398.2674651999987,None,left,0.5349573999992572,398.2674651999987,None,398.8300881000032,None,left,0.16531689999828814,398.8300881000032,None,,,,,,,,,,,,,,,,,,,,,,,PPT15,001,2022-06-30_09h08.37.319,ABstudy,2022.1.4,60.103739052865016,
AB,Lag1_T1P_T2P,1,P,P,6,7,5,4,11,bowling pin,Did you see the bowling pin?,0.12,0.016,JPG\,strawberry,leaf02a,clock04,candle01,avocado01,bowlingpin,stapler03a,brownsugar,ring01,lemon02,fork03c,blankImage,blankImage,blankImage,blankImage,blankImage,blankImage,bowlingpin,,,,,,,,,,,,0,49,49,8,,,,,,,,,,,,,,,,,,,,,,,,,,,,,,,,,,,399.0138855999976,400.0148506999976,399.9982486000008,400.59427829999913,400.59427829999913,None,401.9494909999994,None,right,0.5818369999979041,401.9494909999994,None,402.5503996999978,None,left,0.0931062000017846,402.5503996999978,None,,,,,,,,,,,,,,,,,,,,,,,PPT15,001,2022-06-30_09h08.37.319,ABstudy,2022.1.4,60.103739052865016,
AB,Lag1_T1A_T2A,1,A,A,8,9,7,5,14,Ping pong Table,Did you see the Ping pong Table?,0.12,0.016,JPG\,pineapple01a,tennisball01b,computerkeyboard02,feather03a,belt02a,acorn,violin,blueberry01,medal02b,alligator,greenolive,screwdriver04b,potato02b,fork03c,blankImage,blankImage,blankImage,statue,,,,,,,,,,,,0,50,50,287,,,,,,,,,,,,,,,,,,,,,,,,,,,,,,,,,,,402.6746727999998,403.6848059999975,403.6681211000032,404.25064730000304,404.25064730000304,None,405.9576859000008,None,left,0.8369756999964011,405.9576859000008,None,406.8211985000016,None,left,0.1345006999981706,406.8211985000016,None,,,,,,,,,,,,,,,,,,,,,,,PPT15,001,2022-06-30_09h08.37.319,ABstudy,2022.1.4,60.103739052865016,
AB,Lag1_T1P_T2A,1,P,A,7,8,6,3,11,Snowshoe,Did you see the Snowshoe?,0.12,0.016,JPG\,birthdaycandle,mushroom01,strawberry,match,cherry01,eraser,snowshoe,thermometer02b,sock01a,ring01,feather03a,blankImage,blankImage,blankImage,blankImage,blankImage,blankImage,snowshoe,,,,,,,,,,,,0,51,51,194,,,,,,,,,,,,,,,,,,,,,,,,,,,,,,,,,,,406.99135650000244,408.00585950000095,407.9893701000037,408.48964539999724,408.4728510999994,None,409.9064628999986,None,right,0.6650552999999491,409.9064628999986,None,410.59317700000247,None,left,0.08950239999830956,410.59317700000247,None,,,,,,,,,,,,,,,,,,,,,,,PPT15,001,2022-06-30_09h08.37.319,ABstudy,2022.1.4,60.103739052865016,
AB,Lag1_T1P_T2P,1,P,P,7,8,6,3,11,Moose,Did you see the Moose?,0.12,0.016,JPG\,sock01a,spoon01,alligator,comb02a,printer02,medal02b,moose,stapler03a,greenolive,computerkeyboard02,cauliflower01,blankImage,blankImage,blankImage,blankImage,blankImage,blankImage,moose,,,,,,,,,,,,0,52,52,67,,,,,,,,,,,,,,,,,,,,,,,,,,,,,,,,,,,410.7177470000024,411.72594799999933,411.7093468000021,412.3053310000032,412.3053310000032,None,413.6701651999974,None,right,0.7329610999950091,413.6701651999974,None,414.428808800003,None,left,0.05437040000106208,414.428808800003,None,,,,,,,,,,,,,,,,,,,,,,,PPT15,001,2022-06-30_09h08.37.319,ABstudy,2022.1.4,60.103739052865016,
AB,Lag5_T1A_T2A,5,A,A,5,10,4,4,14,music sheet,Did you see the music sheet?,0.12,0.016,JPG\,celery,pencil01,fan,foosballtable,iron01b,shirt02,potato02b,fork03c,button01,pineapple01a,baseball01a,printer02,cauliflower01,dandelion,blankImage,blankImage,blankImage,licenseplate,,,,,,,,,,,,0,53,53,304,,,,,,,,,,,,,,,,,,,,,,,,,,,,,,,,,,,414.56371950000175,415.5631044999973,415.5464101999969,416.13921310000296,416.13921310000296,None,417.6986956999972,None,left,1.2958048999935272,417.6986956999972,None,419.0164950000035,None,left,0.43493950000265613,419.0164950000035,None,,,,,,,,,,,,,,,,,,,,,,,PPT15,001,2022-06-30_09h08.37.319,ABstudy,2022.1.4,60.103739052865016,
AB,Lag5_T1P_T2P,5,P,P,5,10,4,5,15,mouse,Did you see the mouse?,0.12,0.016,JPG\,pineapple01a,leaf02a,grape01,toiletpaper01a,mouse,tennisball01b,spoon01,chain01,pig,stapler03a,ring01,lemon02,dice05a,pizza,potato02b,blankImage,blankImage,mouse,,,,,,,,,,,,0,54,54,94,,,,,,,,,,,,,,,,,,,,,,,,,,,,,,,,,,,419.4859970999969,420.501365600001,420.46797250000236,421.0487985,421.0487985,None,422.9967057000031,None,right,0.27837179999187356,422.9967057000031,None,423.3044364000016,None,right,0.106555299993488,423.3044364000016,None,,,,,,,,,,,,,,,,,,,,,,,PPT15,001,2022-06-30_09h08.37.319,ABstudy,2022.1.4,60.103739052865016,
AB,Lag5_T1A_T2P,5,A,P,5,10,4,4,14,duck,Did you see the duck?,0.12,0.016,JPG\,brick,eraser,cucumber,ashtray01,thermometer02b,binoculars01b,lipstick02a,screwdriver04b,grape01,stapler04b,battery02b,iron01b,dice05a,avocado01,blankImage,blankImage,blankImage,barrel01,,,,,,,,,,,,0,55,55,280,,,,,,,,,,,,,,,,,,,,,,,,,,,,,,,,,,,423.4430448999992,424.4555457000024,424.4389436999991,425.0347714000018,425.0347714000018,None,426.69968759999756,None,left,0.7201098999939859,426.69968759999756,None,427.4418263999978,None,left,0.43289889999869047,427.4418263999978,None,,,,,,,,,,,,,,,,,,,,,,,PPT15,001,2022-06-30_09h08.37.319,ABstudy,2022.1.4,60.103739052865016,
AB,Lag5_T1P_T2P,5,P,P,8,13,7,5,18,Ping pong Table,Did you see the Ping pong Table?,0.12,0.016,JPG\,shirt02,match,screw02,foosballtable,blueberry01,pineapple01a,sewingmachine01a,pingpongtable,button01,comb02a,dice05a,measuringcup01,stapler04b,printer02,carrot01,watermelon01,blankImage,pingpongtable,,,,,,,,,,,,0,56,56,152,,,,,,,,,,,,,,,,,,,,,,,,,,,,,,,,,,,427.89943610000046,428.90959160000057,428.8933012999987,429.46815320000314,429.46815320000314,None,431.4419213000001,None,right,0.3538139999945997,431.4419213000001,None,431.81281670000317,None,right,0.12590150000323774,431.81281670000317,None,,,,,,,,,,,,,,,,,,,,,,,PPT15,001,2022-06-30_09h08.37.319,ABstudy,2022.1.4,60.103739052865016,
AB,Lag5_T1A_T2P,5,A,P,7,12,6,3,15,Car,Did you see the Car?,0.12,0.016,JPG\,lighter01,hammer01,spoon01,chain01,cymbal,sponge01,lipstick02a,alligator,pig,watermelon01,cauliflower01,stapler03b,broccoli01a,tableknife02,tennisball01b,blankImage,blankImage,wallclock,,,,,,,,,,,,0,57,57,277,,,,,,,,,,,,,,,,,,,,,,,,,,,,,,,,,,,431.9684363999986,432.98068169999897,432.96388670000306,433.53313160000107,433.53313160000107,None,435.343248899997,None,left,0.9316628000015044,435.343248899997,None,436.30065599999944,None,right,0.0954524999979185,436.30065599999944,None,,,,,,,,,,,,,,,,,,,,,,,PPT15,001,2022-06-30_09h08.37.319,ABstudy,2022.1.4,60.103739052865016,
AB,Lag1_T1A_T2P,1,A,P,8,9,7,5,14,Wolf,Did you see the Wolf?,0.12,0.016,JPG\,carrot01,watch02a,clock04,microscope,toiletpaper01a,potato02b,alligator,ring01,stapler03b,watermelon01,cd,pencil01,measuringcup01,balloon01b,blankImage,blankImage,blankImage,dreamcatcher,,,,,,,,,,,,0,58,58,253,,,,,,,,,,,,,,,,,,,,,,,,,,,,,,,,,,,436.44801449999795,437.45158049999736,437.4348680999974,437.99374610000086,437.99374610000086,None,439.7071827999971,None,left,0.7514497000011033,439.7071827999971,None,440.4881626999995,None,right,0.0677642000009655,440.4881626999995,None,,,,,,,,,,,,,,,,,,,,,,,PPT15,001,2022-06-30_09h08.37.319,ABstudy,2022.1.4,60.103739052865016,
AB,Lag5_T1A_T2A,5,A,A,5,10,4,5,15,truck,Did you see the truck?,0.12,0.016,JPG\,pizza,printer02,medal02b,spoon01,grape01,lighter01,belt02a,watermelon01,celery,battery02b,screw02,comb02a,cauliflower01,lipstick02a,potato02b,blankImage,blankImage,postalmailbox01,,,,,,,,,,,,0,59,59,297,,,,,,,,,,,,,,,,,,,,,,,,,,,,,,,,,,,440.5919122999985,441.6058370000028,441.5892212000035,442.1833884000007,442.1833884000007,None,443.9723640000011,None,left,0.8939465999937966,443.9723640000011,None,444.8925301999989,None,left,0.28646439999283757,444.8925301999989,None,,,,,,,,,,,,,,,,,,,,,,,PPT15,001,2022-06-30_09h08.37.319,ABstudy,2022.1.4,60.103739052865016,
AB,Lag1_T1A_T2P,1,A,P,8,9,7,4,13,Rabbit,Did you see the Rabbit?,0.12,0.016,JPG\,lamp04a,broccoli01a,alligator,garlic01a,dandelion,brownsugar,avocado01,ring01,stapler06,cellphone,medal02b,cd,calculator01,blankImage,blankImage,blankImage,blankImage,escalator,,,,,,,,,,,,0,60,60,254,,,,,,,,,,,,,,,,,,,,,,,,,,,,,,,,,,,445.2819464999993,446.29371379999793,446.27701309999975,446.8520165000009,446.8520165000009,None,448.3931537000026,None,left,0.793433200000436,448.3931537000026,None,449.21345609999844,None,right,0.1175952999983565,449.21345609999844,None,,,,,,,,,,,,,,,,,,,,,,,PPT15,001,2022-06-30_09h08.37.319,ABstudy,2022.1.4,60.103739052865016,
AB,Lag1_T1P_T2A,1,P,A,5,6,4,4,10,paper airplane,Did you see the paper airplane?,0.12,0.016,JPG\,thermometer02b,avocado01,scissors01,tennisball01b,paperairplane,banana01,strawberry,cigarette,potato02b,pineapple01a,blankImage,blankImage,blankImage,blankImage,blankImage,blankImage,blankImage,paperairplane,,,,,,,,,,,,0,61,61,191,,,,,,,,,,,,,,,,,,,,,,,,,,,,,,,,,,,449.37101789999724,450.38133350000135,450.3645963000017,450.9492339999997,450.9492339999997,None,452.1364870999969,None,right,0.8182655999989947,452.1364870999969,None,452.98393139999826,None,left,0.07470769999781623,452.98393139999826,None,,,,,,,,,,,,,,,,,,,,,,,PPT15,001,2022-06-30_09h08.37.319,ABstudy,2022.1.4,60.103739052865016,
AB,Lag5_T1P_T2A,5,P,A,7,12,6,5,17,corn,Did you see the corn?,0.12,0.016,JPG\,avocado01,pingpongpaddle01c,match,cauliflower01,paintbrush01,clock01a,corn02,cd,balloon01b,cellphone,watch02a,pear01,toaster01,sponge01,orange,blueberry01,blankImage,corn02,,,,,,,,,,,,0,62,62,210,,,,,,,,,,,,,,,,,,,,,,,,,,,,,,,,,,,453.087617600002,454.1016518000033,454.0683891000008,454.66069280000374,454.66069280000374,None,456.6102702999997,None,right,0.7680417000010493,456.6102702999997,None,457.40472769999906,None,left,0.03758879999804776,457.40472769999906,None,,,,,,,,,,,,,,,,,,,,,,,PPT15,001,2022-06-30_09h08.37.319,ABstudy,2022.1.4,60.103739052865016,
AB,Lag1_T1P_T2P,1,P,P,6,7,5,3,10,elephant,Did you see the elephant?,0.12,0.016,JPG\,clock01a,grape01,plate01b,key01,screwdriver04b,africanelephant,stapler03b,iron01b,toothbrush03b,comb02a,blankImage,blankImage,blankImage,blankImage,blankImage,blankImage,blankImage,africanelephant,,,,,,,,,,,,0,63,63,31,,,,,,,,,,,,,,,,,,,,,,,,,,,,,,,,,,,457.4749108000033,458.48934980000195,458.45602269999654,459.0561465999999,459.0561465999999,None,460.27733219999936,None,right,0.3580595000021276,460.27733219999936,None,460.65797510000266,None,right,0.12031530000240309,460.65797510000266,None,,,,,,,,,,,,,,,,,,,,,,,PPT15,001,2022-06-30_09h08.37.319,ABstudy,2022.1.4,60.103739052865016,
AB,Lag5_T1P_T2P,5,P,P,5,10,4,5,15,Eye,Did you see the Eye?,0.12,0.016,JPG\,apple07,toiletpaper01a,pizza,dandelion,eye,eraser,microscope,violin,orange,stapler01,balloon01b,sandal,lighter01,fan,book01b,blankImage,blankImage,eye,,,,,,,,,,,,0,64,64,171,,,,,,,,,,,,,,,,,,,,,,,,,,,,,,,,,,,460.8140897999983,461.8261685000034,461.80945690000226,462.39769890000025,462.39769890000025,None,464.2371495999978,None,right,0.2530394999994314,464.2371495999978,None,464.5118521999975,None,right,0.11637619999964954,464.5118521999975,None,,,,,,,,,,,,,,,,,,,,,,,PPT15,001,2022-06-30_09h08.37.319,ABstudy,2022.1.4,60.103739052865016,
AB,Lag1_T1P_T2P,1,P,P,7,8,6,4,12,rooster,Did you see the rooster?,0.12,0.016,JPG\,pizza,strawberry,potato02b,speaker04,battery02b,iron01b,rooster,stapler03b,globe,banana01,medal02b,baseball01a,blankImage,blankImage,blankImage,blankImage,blankImage,rooster,,,,,,,,,,,,0,65,65,69,,,,,,,,,,,,,,,,,,,,,,,,,,,,,,,,,,,464.64758379999694,465.6630504999994,465.6296368999974,466.2236247000037,466.2236247000037,None,467.69558770000003,None,right,0.32355480000114767,467.69558770000003,None,468.04912239999976,None,right,0.12996399999974528,468.04912239999976,None,,,,,,,,,,,,,,,,,,,,,,,PPT15,001,2022-06-30_09h08.37.319,ABstudy,2022.1.4,60.103739052865016,
AB,Lag1_T1A_T2P,1,A,P,5,6,4,5,11,rake,Did you see the rake?,0.12,0.016,JPG\,candy,brownsugar,dice05a,cd,sock01a,stapler01,button01,potato02b,feather03a,grape01,dandelion,blankImage,blankImage,blankImage,blankImage,blankImage,blankImage,greatwhiteshark,,,,,,,,,,,,0,66,66,256,,,,,,,,,,,,,,,,,,,,,,,,,,,,,,,,,,,468.2026593999981,469.21675929999765,469.1999939000016,469.83776979999675,469.7643775000033,None,471.0352079000004,None,left,0.4553989999985788,471.0352079000004,None,471.51898919999803,None,left,0.5075957000008202,471.51898919999803,None,,,,,,,,,,,,,,,,,,,,,,,PPT15,001,2022-06-30_09h08.37.319,ABstudy,2022.1.4,60.103739052865016,
AB,Lag5_T1P_T2P,5,P,P,5,10,4,3,13,lollipop,Did you see the lollipop?,0.12,0.016,JPG\,brownsugar,candle01,match,printer02,lollipop04,balloon01b,belt02a,potato02b,computerkeyboard02,stapler03a,rice,mushroom01,pencil01,blankImage,blankImage,blankImage,blankImage,lollipop04,,,,,,,,,,,,0,67,67,112,,,,,,,,,,,,,,,,,,,,,,,,,,,,,,,,,,,472.10225139999966,473.1037546000007,473.08703349999996,473.5875945000007,473.5875945000007,None,475.19216150000284,None,right,0.30663239999557845,475.19216150000284,None,475.5228171999988,None,right,0.13587229999393458,475.5228171999988,None,,,,,,,,,,,,,,,,,,,,,,,PPT15,001,2022-06-30_09h08.37.319,ABstudy,2022.1.4,60.103739052865016,
AB,Lag1_T1P_T2P,1,P,P,5,6,4,3,9,dolphin,Did you see the dolphin?,0.12,0.016,JPG\,pig,belt02a,rice,screwdriver04b,dolphin01,stapler05,candle08b,pear01,feather03a,blankImage,blankImage,blankImage,blankImage,blankImage,blankImage,blankImage,blankImage,dolphin01,,,,,,,,,,,,0,68,68,10,,,,,,,,,,,,,,,,,,,,,,,,,,,,,,,,,,,475.6932300999979,476.70737910000025,476.6906495000003,477.1911927999972,477.1747758999991,None,478.34664709999925,None,right,0.3442066999996314,478.34664709999925,None,478.7093157999989,None,right,0.1347246000004816,478.7093157999989,None,,,,,,,,,,,,,,,,,,,,,,,PPT15,001,2022-06-30_09h08.37.319,ABstudy,2022.1.4,60.103739052865016,
AB,Lag5_T1P_T2P,5,P,P,7,12,6,5,17,flower,Did you see the flower?,0.12,0.016,JPG\,leaf02a,pear01,measuringcup01,cigarette,fan,lemon02,lily,tableknife02,ring01,pencil01,cellphone,stapler01,carrot01,binoculars01b,sock01a,book01b,blankImage,lily,,,,,,,,,,,,0,69,69,134,,,,,,,,,,,,,,,,,,,,,,,,,,,,,,,,,,,478.87841430000117,479.89385680000123,479.86049490000005,480.43906779999816,480.43906779999816,None,482.42405339999823,None,right,0.6184970000031171,482.42405339999823,None,483.0636785000024,None,left,0.07489579999673879,483.0636785000024,None,,,,,,,,,,,,,,,,,,,,,,,PPT15,001,2022-06-30_09h08.37.319,ABstudy,2022.1.4,60.103739052865016,
AB,Lag1_T1A_T2P,1,A,P,6,7,5,5,12,Treadmill,Did you see the Treadmill?,0.12,0.016,JPG\,pencil01,broccoli01a,button01,sponge01,watermelon01,lipstick02a,stapler04b,fan,lighter01,sock01a,spoon01,blueberry01,blankImage,blankImage,blankImage,blankImage,blankImage,magneticcompass,,,,,,,,,,,,0,70,70,238,,,,,,,,,,,,,,,,,,,,,,,,,,,,,,,,,,,483.1660333999971,484.18143959999725,484.1480978999971,484.71896050000214,484.71896050000214,None,486.24091380000027,None,right,0.6099561999944854,486.24091380000027,None,486.8676011999996,None,right,0.17539129999931902,486.8676011999996,None,,,,,,,,,,,,,,,,,,,,,,,PPT15,001,2022-06-30_09h08.37.319,ABstudy,2022.1.4,60.103739052865016,
AB,Lag5_T1P_T2A,5,P,A,6,11,5,5,16,fish,Did you see the fish?,0.12,0.016,JPG\,cucumber,ring01,lipstick02a,microscope,violin,redlionfish,celery,lighter01,cherry01,sewingmachine01a,belt02a,key01,binoculars01b,medal02b,watermelon01,dice05a,blankImage,redlionfish,,,,,,,,,,,,0,71,71,221,,,,,,,,,,,,,,,,,,,,,,,,,,,,,,,,,,,487.070710699998,488.08547279999766,488.05215419999877,488.6304506000015,488.6304506000015,None,490.60771620000014,None,right,0.31476979999570176,490.60771620000014,None,490.95477270000265,None,right,0.09552799999801209,490.95477270000265,None,,,,,,,,,,,,,,,,,,,,,,,PPT15,001,2022-06-30_09h08.37.319,ABstudy,2022.1.4,60.103739052865016,
AB,Lag5_T1A_T2P,5,A,P,5,10,4,5,15,shower,Did you see the shower?,0.12,0.016,JPG\,sewingmachine01a,thermometer02b,sponge01,eraser,broccoli01a,fork03c,pizza,violin,belt02a,stapler04b,pineapple01a,tennisball01b,dandelion,cauliflower01,lemon02,blankImage,blankImage,redfox,,,,,,,,,,,,0,72,72,271,,,,,,,,,,,,,,,,,,,,,,,,,,,,,,,,,,,491.0741421999992,492.0892901999978,492.0558910000036,492.647172099998,492.647172099998,None,494.5196999000036,None,left,0.8187283999941428,494.5196999000036,None,495.359234800002,None,right,0.06910489999427227,495.359234800002,None,,,,,,,,,,,,,,,,,,,,,,,PPT15,001,2022-06-30_09h08.37.319,ABstudy,2022.1.4,60.103739052865016,
AB,Lag5_T1P_T2P,5,P,P,6,11,5,5,16,sword,Did you see the sword?,0.12,0.016,JPG\,chain01,speaker04,avocado01,watermelon01,scarf,sword01,lamp04a,fork03c,toaster01,slipper03b,stapler03a,cucumber,teabag,ashtray01,computerkeyboard02,book01b,blankImage,sword01,,,,,,,,,,,,0,73,73,143,,,,,,,,,,,,,,,,,,,,,,,,,,,,,,,,,,,495.46163559999695,496.47702830000344,496.4436474999966,497.02412170000025,497.02412170000025,None,498.97906499999954,None,right,0.25585669999418315,498.97906499999954,None,499.2638192000013,None,right,0.115142199996626,499.2638192000013,None,,,,,,,,,,,,,,,,,,,,,,,PPT15,001,2022-06-30_09h08.37.319,ABstudy,2022.1.4,60.103739052865016,
AB,Lag1_T1P_T2P,1,P,P,7,8,6,3,11,tree,Did you see the tree?,0.12,0.016,JPG\,pear01,clock01a,cymbal,match,ashtray01,globe,tree,stapler03b,lemon02,pen04b,dice05a,blankImage,blankImage,blankImage,blankImage,blankImage,blankImage,tree,,,,,,,,,,,,0,74,74,51,,,,,,,,,,,,,,,,,,,,,,,,,,,,,,,,,,,499.40618910000194,500.41423139999824,500.39749770000344,500.9764206999971,500.9764206999971,None,502.2876955000029,None,right,0.4119280999948387,502.2876955000029,None,502.7167550000013,None,right,0.10978449999674922,502.7167550000013,None,,,,,,,,,,,,,,,,,,,,,,,PPT15,001,2022-06-30_09h08.37.319,ABstudy,2022.1.4,60.103739052865016,
AB,Lag5_T1A_T2P,5,A,P,7,12,6,5,17,Rollerblade,Did you see the Rollerblade?,0.12,0.016,JPG\,binoculars01b,cymbal,pizza,candy,paintbrush01,sponge01,grape01,thermometer02b,speaker04,lemon02,lipstick02a,stapler03b,candle01,8ball,plate01b,pen04b,blankImage,lion,,,,,,,,,,,,0,75,75,266,,,,,,,,,,,,,,,,,,,,,,,,,,,,,,,,,,,502.8568796999971,503.86787029999687,503.8512217000025,504.45913879999716,504.45913879999716,None,506.36822409999877,None,left,0.347604800001136,506.36822409999877,None,506.73727379999764,None,right,0.08169129999441793,506.73727379999764,None,,,,,,,,,,,,,,,,,,,,,,,PPT15,001,2022-06-30_09h08.37.319,ABstudy,2022.1.4,60.103739052865016,
AB,Lag1_T1P_T2A,1,P,A,7,8,6,3,11,walkie talkie,Did you see the walkie talkie?,0.12,0.016,JPG\,teabag,envelope03a,cellphone,apple07,cauliflower01,orange,walkietalkie,book01b,hammer01,feather03a,toaster01,blankImage,blankImage,blankImage,blankImage,blankImage,blankImage,walkietalkie,,,,,,,,,,,,0,76,76,197,,,,,,,,,,,,,,,,,,,,,,,,,,,,,,,,,,,506.8891347000026,507.88856849999866,507.87188839999726,508.4585117000024,508.4585117000024,None,509.8038185999976,None,right,0.6870015000022249,509.8038185999976,None,510.5076184999998,None,right,1.3829194999998435,510.5076184999998,None,,,,,,,,,,,,,,,,,,,,,,,PPT15,001,2022-06-30_09h08.37.319,ABstudy,2022.1.4,60.103739052865016,
AB,Lag5_T1P_T2P,5,P,P,5,10,4,3,13,Sushi,Did you see the Sushi?,0.12,0.016,JPG\,carrot01,greenolive,fork03c,chain01,makiroll,watermelon01,tableknife02,printer02,comb02a,stapler03b,orange,rice,fan,blankImage,blankImage,blankImage,blankImage,makiroll,,,,,,,,,,,,0,77,77,135,,,,,,,,,,,,,,,,,,,,,,,,,,,,,,,,,,,511.9114606000003,512.926656399999,512.8935602999991,513.470722500002,513.470722500002,None,515.1087661999991,None,right,0.27030009999725735,515.1087661999991,None,515.3959122000015,None,right,0.11020559999451507,515.3959122000015,None,,,,,,,,,,,,,,,,,,,,,,,PPT15,001,2022-06-30_09h08.37.319,ABstudy,2022.1.4,60.103739052865016,
AB,Lag5_T1P_T2P,5,P,P,8,13,7,4,17,surf board,Did you see the surf board?,0.12,0.016,JPG\,candy,brownsugar,dice05a,cd,sock01a,blueberry01,button01,surfboard,feather03a,grape01,dandelion,scissors01,stapler03b,candle08b,book01b,globe,blankImage,surfboard,,,,,,,,,,,,0,78,78,142,,,,,,,,,,,,,,,,,,,,,,,,,,,,,,,,,,,515.5944003999975,516.5975218000021,516.5809602000008,517.1707241999975,517.1707241999975,None,519.0367176,None,left,0.43791459999920335,519.0367176,None,519.4999552000008,None,right,0.07860729999811156,519.4999552000008,None,,,,,,,,,,,,,,,,,,,,,,,PPT15,001,2022-06-30_09h08.37.319,ABstudy,2022.1.4,60.103739052865016,
AB,Lag5_T1P_T2A,5,P,A,8,13,7,4,17,fountain,Did you see the fountain?,0.12,0.016,JPG\,printer02,envelope03a,potato02b,calculator01,tableknife02,cigarette,ashtray01,parkfountain,broom01,greenolive,candle08b,battery02b,strawberry,candle01,foosballtable,tennisball01b,blankImage,parkfountain,,,,,,,,,,,,0,79,79,219,,,,,,,,,,,,,,,,,,,,,,,,,,,,,,,,,,,519.6022840000005,520.601599900001,520.584892400002,521.1903539999985,521.1903539999985,None,523.1206512999997,None,right,0.7140713999979198,523.1206512999997,None,523.8544149000008,None,left,0.09243849999620579,523.8544149000008,None,,,,,,,,,,,,,,,,,,,,,,,PPT15,001,2022-06-30_09h08.37.319,ABstudy,2022.1.4,60.103739052865016,
AB,Lag1_T1P_T2P,1,P,P,7,8,6,3,11,Sand castle,Did you see the Sand castle?,0.12,0.016,JPG\,thermometer02b,candle08b,comb02a,toothbrush03b,brick,computerkeyboard02,sandcastle,stapler06,candy,birthdaycandle,clock04,blankImage,blankImage,blankImage,blankImage,blankImage,blankImage,sandcastle,,,,,,,,,,,,0,80,80,70,,,,,,,,,,,,,,,,,,,,,,,,,,,,,,,,,,,523.9779295999979,524.9889286000034,524.9722030999983,525.5555716000017,525.5555716000017,None,526.9260001000002,None,left,0.7727359999989858,526.9260001000002,None,527.7247312999971,None,left,0.7177048999947147,527.7247312999971,None,,,,,,,,,,,,,,,,,,,,,,,PPT15,001,2022-06-30_09h08.37.319,ABstudy,2022.1.4,60.103739052865016,
AB,Lag5_T1P_T2P,5,P,P,5,10,4,3,13,bathtub,Did you see the bathtub?,0.12,0.016,JPG\,belt02a,sunglasses04,computerkeyboard02,cherry01,bathtub,eraser,watch02a,dice05a,blueberry01,stapler04b,match,leaf02a,iron01b,blankImage,blankImage,blankImage,blankImage,bathtub,,,,,,,,,,,,0,81,81,103,,,,,,,,,,,,,,,,,,,,,,,,,,,,,,,,,,,528.4611461000022,529.4765231999991,529.4430901000014,530.0201261999973,530.0201261999973,None,531.6399770999997,None,right,0.26718519999849377,531.6399770999997,None,531.9290471999993,None,right,0.08894929999951273,531.9290471999993,None,,,,,,,,,,,,,,,,,,,,,,,PPT15,001,2022-06-30_09h08.37.319,ABstudy,2022.1.4,60.103739052865016,
AB,Lag5_T1P_T2P,5,P,P,6,11,5,4,15,Witch hat,Did you see the Witch hat?,0.12,0.016,JPG\,pizza,watch02a,greenolive,cucumber,match,witchhat,scissors01,broom01,globe,cherry01,stapler03a,cigarette,microscope,cellphone,speaker04,blankImage,blankImage,witchhat,,,,,,,,,,,,0,82,82,101,,,,,,,,,,,,,,,,,,,,,,,,,,,,,,,,,,,532.0479553999976,533.0633412000025,533.0300160999977,533.6196915999972,533.6196915999972,None,535.4773256999979,None,right,0.31765460000315215,535.4773256999979,None,535.8163568000018,None,right,0.09770259999640984,535.8163568000018,None,,,,,,,,,,,,,,,,,,,,,,,PPT15,001,2022-06-30_09h08.37.319,ABstudy,2022.1.4,60.103739052865016,
AB,Lag5_T1P_T2P,5,P,P,8,13,7,4,17,cruise ship,Did you see the cruise ship?,0.12,0.016,JPG\,measuringcup01,dice05a,greenolive,lipstick02a,feather03a,balloon01b,lighter01,cruiseship,carrot01,plate01b,microscope,brick,stapler05,screw02,speaker04,spoon01,blankImage,cruiseship,,,,,,,,,,,,0,83,83,105,,,,,,,,,,,,,,,,,,,,,,,,,,,,,,,,,,,535.938601599999,536.9508874000021,536.9341735999988,537.5188871999999,537.5188871999999,None,539.4105262000012,None,right,0.2874812000009115,539.4105262000012,None,539.720018,None,right,0.09791760000371141,539.720018,None,,,,,,,,,,,,,,,,,,,,,,,PPT15,001,2022-06-30_09h08.37.319,ABstudy,2022.1.4,60.103739052865016,
AB,Lag5_T1A_T2P,5,A,P,6,11,5,5,16,baseball bat,Did you see the baseball bat?,0.12,0.016,JPG\,avocado01,aceofdiamond,match,cauliflower01,paintbrush01,clock01a,pig,cd,balloon01b,cellphone,stapler01,pear01,toaster01,sponge01,orange,blueberry01,blankImage,stool01,,,,,,,,,,,,0,84,84,273,,,,,,,,,,,,,,,,,,,,,,,,,,,,,,,,,,,539.8391046000033,540.8544933000012,540.8210687000028,541.4037476000012,541.4037476000012,None,543.3972859999994,None,left,0.6050949999989825,543.3972859999994,None,544.0242760999972,None,left,0.16208300000289455,544.0242760999972,None,,,,,,,,,,,,,,,,,,,,,,,PPT15,001,2022-06-30_09h08.37.319,ABstudy,2022.1.4,60.103739052865016,
AB,Lag5_T1A_T2P,5,A,P,7,12,6,4,16,scooter,Did you see the scooter?,0.12,0.016,JPG\,cigarette,pig,banana01,strawberry,clock01a,plate01b,spoon01,blueberry01,battery02b,pineapple01a,chain01,stapler05,candy,pen04b,teabag,birthdaycandle,blankImage,1nose,,,,,,,,,,,,0,85,85,268,,,,,,,,,,,,,,,,,,,,,,,,,,,,,,,,,,,544.2101747999986,545.2255041000026,545.1921535000001,545.7630692000021,545.7630692000021,None,547.6477792000005,None,left,0.6757710999954725,547.6477792000005,None,548.3455379000006,None,right,0.04912979999789968,548.3455379000006,None,,,,,,,,,,,,,,,,,,,,,,,PPT15,001,2022-06-30_09h08.37.319,ABstudy,2022.1.4,60.103739052865016,
AB,Lag5_T1P_T2P,5,P,P,7,12,6,4,16,flower,Did you see the flower?,0.12,0.016,JPG\,cucumber,sponge01,alligator,pear01,ashtray01,hammer01,hibiscusflower02,battery02b,fork03c,binoculars01b,mushroom01,stapler01,leaf02a,acorn,comb02a,screwdriver04b,blankImage,hibiscusflower02,,,,,,,,,,,,0,86,86,132,,,,,,,,,,,,,,,,,,,,,,,,,,,,,,,,,,,548.4122732999967,549.4132257000019,549.3965366999983,549.9794350000011,549.9794350000011,None,551.9449202000033,None,right,1.6020350999970105,551.9449202000033,None,553.5672930000001,None,left,0.3394323999964399,553.5672930000001,None,,,,,,,,,,,,,,,,,,,,,,,PPT15,001,2022-06-30_09h08.37.319,ABstudy,2022.1.4,60.103739052865016,
AB,Lag1_T1P_T2P,1,P,P,7,8,6,4,12,skunk,Did you see the skunk?,0.12,0.016,JPG\,fan,tomato01,candy,screwdriver04b,alligator,cd,skunk,stapler03b,button01,plate01b,brownsugar,lighter01,blankImage,blankImage,blankImage,blankImage,blankImage,skunk,,,,,,,,,,,,0,87,87,48,,,,,,,,,,,,,,,,,,,,,,,,,,,,,,,,,,,553.9382725000032,554.9520363999982,554.935376100002,555.5310506000023,555.5310506000023,None,556.9769679000019,None,right,0.24897319999581669,556.9769679000019,None,557.2543826999972,None,right,0.0925617000029888,557.2543826999972,None,,,,,,,,,,,,,,,,,,,,,,,PPT15,001,2022-06-30_09h08.37.319,ABstudy,2022.1.4,60.103739052865016,
AB,Lag1_T1A_T2P,1,A,P,5,6,4,4,10,Bull,Did you see the Bull?,0.12,0.016,JPG\,celery,pencil01,fan,foosballtable,iron01b,stapler01,potato02b,fork03c,button01,pineapple01a,blankImage,blankImage,blankImage,blankImage,blankImage,blankImage,blankImage,spiderweb,,,,,,,,,,,,0,88,88,244,,,,,,,,,,,,,,,,,,,,,,,,,,,,,,,,,,,557.3763655000002,558.3888487000004,558.3720221999974,558.9406403999965,558.9406403999965,None,560.2355026000005,None,left,0.5584185999978217,560.2355026000005,None,560.8251167999988,None,right,0.048855000000912696,560.8251167999988,None,,,,,,,,,,,,,,,,,,,,,,,PPT15,001,2022-06-30_09h08.37.319,ABstudy,2022.1.4,60.103739052865016,
AB,Lag5_T1A_T2P,5,A,P,7,12,6,4,16,ear,Did you see the ear?,0.12,0.016,JPG\,candle01,shirt02,brick,orange,greenolive,toothbrush03b,pizza,thermometer02b,book01b,toiletpaper01a,sewingmachine01a,stapler01,candy,cymbal,potato02b,plate01b,blankImage,chair,,,,,,,,,,,,0,89,89,257,,,,,,,,,,,,,,,,,,,,,,,,,,,,,,,,,,,560.9009997999965,561.9089911999981,561.8922557999977,562.4648123000006,562.4648123000006,None,564.4049674999987,None,left,0.8383359999934328,564.4049674999987,None,565.2623688000022,None,left,0.06826369999907911,565.2623688000022,None,,,,,,,,,,,,,,,,,,,,,,,PPT15,001,2022-06-30_09h08.37.319,ABstudy,2022.1.4,60.103739052865016,
AB,Lag1_T1P_T2P,1,P,P,6,7,5,3,10,fortune cookie,Did you see the fortune cookie?,0.12,0.016,JPG\,scissors01,grape01,mushroom01,toiletpaper01a,greenolive,fortunecookie,stapler03b,ashtray01,carrot01,pineapple01a,blankImage,blankImage,blankImage,blankImage,blankImage,blankImage,blankImage,fortunecookie,,,,,,,,,,,,0,90,90,42,,,,,,,,,,,,,,,,,,,,,,,,,,,,,,,,,,,565.3677260999975,566.3802671000012,566.3635053999969,566.9384774999999,566.9384774999999,None,568.2434114999996,None,right,0.33618510000087554,568.2434114999996,None,568.5990366999977,None,right,0.0915954999945825,568.5990366999977,None,,,,,,,,,,,,,,,,,,,,,,,PPT15,001,2022-06-30_09h08.37.319,ABstudy,2022.1.4,60.103739052865016,
AB,Lag5_T1P_T2P,5,P,P,5,10,4,5,15,rake,Did you see the rake?,0.12,0.016,JPG\,scissors01,grape01,mushroom01,toiletpaper01a,leafrake,pizza,cigarette,ashtray01,carrot01,stapler03b,foosballtable,lipstick02a,teabag,acorn,potato02b,blankImage,blankImage,leafrake,,,,,,,,,,,,0,91,91,92,,,,,,,,,,,,,,,,,,,,,,,,,,,,,,,,,,,568.7190400999971,569.733424799997,569.7000804999989,570.2797114999994,570.2797114999994,None,572.1654505999977,None,right,0.24495529999694554,572.1654505999977,None,572.437440499998,None,right,0.10177889999613399,572.437440499998,None,,,,,,,,,,,,,,,,,,,,,,,PPT15,001,2022-06-30_09h08.37.319,ABstudy,2022.1.4,60.103739052865016,
AB,Lag1_T1P_T2A,1,P,A,7,8,6,3,11,fish,Did you see the fish?,0.12,0.016,JPG\,rice,watermelon01,tableknife02,scarf,computerkeyboard02,cauliflower01,salmon,binoculars01b,book01b,sandal,sponge01,blankImage,blankImage,blankImage,blankImage,blankImage,blankImage,salmon,,,,,,,,,,,,0,92,92,179,,,,,,,,,,,,,,,,,,,,,,,,,,,,,,,,,,,572.5719649000021,573.5870461000013,573.553813999999,574.1497973000005,574.1497973000005,None,575.5434392000025,None,right,0.6267967999956454,575.5434392000025,None,576.189692699998,None,left,0.11645569999382133,576.189692699998,None,,,,,,,,,,,,,,,,,,,,,,,PPT15,001,2022-06-30_09h08.37.319,ABstudy,2022.1.4,60.103739052865016,
AB,Lag5_T1P_T2P,5,P,P,5,10,4,4,14,Christmas lights,Did you see the Christmas lights?,0.12,0.016,JPG\,binoculars01b,cymbal,pizza,candy,christmaslights,sponge01,grape01,thermometer02b,speaker04,stapler03a,lipstick02a,strawberry,candle01,tambourine02,blankImage,blankImage,blankImage,christmaslights,,,,,,,,,,,,0,93,93,168,,,,,,,,,,,,,,,,,,,,,,,,,,,,,,,,,,,576.3260540999981,577.3410404000024,577.3077233000004,577.896104899999,577.896104899999,None,579.5729489000005,None,right,0.26147629999468336,579.5729489000005,None,579.8599738999983,None,right,0.10231489999569021,579.8599738999983,None,,,,,,,,,,,,,,,,,,,,,,,PPT15,001,2022-06-30_09h08.37.319,ABstudy,2022.1.4,60.103739052865016,
AB,Lag5_T1P_T2P,5,P,P,6,11,5,5,16,scooter,Did you see the scooter?,0.12,0.016,JPG\,thermometer02b,candle08b,comb02a,toothbrush03b,brick,scooter,key01,pineapple01a,candy,birthdaycandle,stapler04b,canoftennisballs,teabag,medal02b,balloon01b,banana01,blankImage,scooter,,,,,,,,,,,,0,94,94,118,,,,,,,,,,,,,,,,,,,,,,,,,,,,,,,,,,,579.9960644000021,581.0111037000024,580.9777735000025,581.5630816999983,581.5630816999983,None,583.5309438999975,None,right,0.047319399993284605,583.5309438999975,None,583.5971904000035,None,right,0.1331865000029211,583.5971904000035,None,,,,,,,,,,,,,,,,,,,,,,,PPT15,001,2022-06-30_09h08.37.319,ABstudy,2022.1.4,60.103739052865016,
AB,Lag5_T1P_T2A,5,P,A,7,12,6,5,17,flower,Did you see the flower?,0.12,0.016,JPG\,cellphone,tomato01,comb02a,candy,celery,cucumber,craneflower,fan,feather03a,pen04b,lemon02,blueberry01,plate01b,cherry01,baseball01a,candle08b,blankImage,craneflower,,,,,,,,,,,,0,95,95,211,,,,,,,,,,,,,,,,,,,,,,,,,,,,,,,,,,,583.752352800002,584.7650519000017,584.7484255000018,585.3296771000023,585.3296771000023,None,587.2814058000004,None,right,0.5369991999978083,587.2814058000004,None,587.8348546999987,None,left,0.07158659999549855,587.8348546999987,None,,,,,,,,,,,,,,,,,,,,,,,PPT15,001,2022-06-30_09h08.37.319,ABstudy,2022.1.4,60.103739052865016,
AB,Lag1_T1A_T2P,1,A,P,5,6,4,3,9,chimney,Did you see the chimney?,0.12,0.016,JPG\,cucumber,sponge01,alligator,pear01,ashtray01,stapler06,clock04,battery02b,fork03c,blankImage,blankImage,blankImage,blankImage,blankImage,blankImage,blankImage,blankImage,trophy01,,,,,,,,,,,,0,96,96,246,,,,,,,,,,,,,,,,,,,,,,,,,,,,,,,,,,,587.9343599999993,588.9357041999974,588.9190223999976,589.4950692999992,589.4950692999992,None,590.6020875999966,None,left,0.7121311999944737,590.6020875999966,None,591.3383923000001,None,right,0.03981819999899017,591.3383923000001,None,,,,,,,,,,,,,,,,,,,,,,,PPT15,001,2022-06-30_09h08.37.319,ABstudy,2022.1.4,60.103739052865016,
AB,Lag1_T1P_T2P,1,P,P,5,6,4,5,11,beaver,Did you see the beaver?,0.12,0.016,JPG\,belt02a,sunglasses04,computerkeyboard02,cherry01,beaver,stapler03a,watch02a,dice05a,blueberry01,spoon01,match,blankImage,blankImage,blankImage,blankImage,blankImage,blankImage,beaver,,,,,,,,,,,,0,97,97,55,,,,,,,,,,,,,,,,,,,,,,,,,,,,,,,,,,,591.4103386999996,592.4223445000025,592.4056530000016,592.9785998000007,592.9785998000007,None,594.314234999998,None,right,0.2891101999921375,594.314234999998,None,594.6247146000023,None,right,0.08166769999661483,594.6247146000023,None,,,,,,,,,,,,,,,,,,,,,,,PPT15,001,2022-06-30_09h08.37.319,ABstudy,2022.1.4,60.103739052865016,
AB,Lag1_T1P_T2P,1,P,P,5,6,4,4,10,Ladybug,Did you see the Ladybug?,0.12,0.016,JPG\,key01,apple07,ring01,leaf02a,ladybug03,stapler04b,violin,sponge01,baseball01a,thermometer02b,blankImage,blankImage,blankImage,blankImage,blankImage,blankImage,blankImage,ladybug03,,,,,,,,,,,,0,98,98,65,,,,,,,,,,,,,,,,,,,,,,,,,,,,,,,,,,,594.7311817000009,595.7427320999996,595.7260708000031,596.2887843999997,596.2887843999997,None,597.517571999997,None,right,0.3011851999981445,597.517571999997,None,597.8445893000026,None,right,0.1012060999928508,597.8445893000026,None,,,,,,,,,,,,,,,,,,,,,,,PPT15,001,2022-06-30_09h08.37.319,ABstudy,2022.1.4,60.103739052865016,
AB,Lag5_T1P_T2P,5,P,P,6,11,5,5,16,table,Did you see the table?,0.12,0.016,JPG\,birthdaycandle,mushroom01,strawberry,match,cherry01,table01,hammer01,thermometer02b,sock01a,ring01,stapler06,banana01,toiletpaper01a,key01,sponge01,teabag,blankImage,table01,,,,,,,,,,,,0,99,99,144,,,,,,,,,,,,,,,,,,,,,,,,,,,,,,,,,,,597.9802876999966,598.9957704999979,598.9624130000011,599.4630012999987,599.4630012999987,None,601.5210468000005,None,right,0.19345890000113286,601.5210468000005,None,601.7318339999983,None,right,0.1115910000007716,601.7318339999983,None,,,,,,,,,,,,,,,,,,,,,,,PPT15,001,2022-06-30_09h08.37.319,ABstudy,2022.1.4,60.103739052865016,
AB,Lag1_T1P_T2P,1,P,P,8,9,7,3,12,Eiffel tower,Did you see the Eiffel tower?,0.12,0.016,JPG\,celery,tennisball01b,calculator01,pear01,screw02,orange,button01,eiffeltower,stapler03b,apple07,iron01b,brownsugar,blankImage,blankImage,blankImage,blankImage,blankImage,eiffeltower,,,,,,,,,,,,0,100,100,40,,,,,,,,,,,,,,,,,,,,,,,,,,,,,,,,,,,601.9200369000027,602.9331843999971,602.9164891999972,603.5012676999977,603.5012676999977,None,604.8184841999973,None,right,0.5918937999958871,604.8184841999973,None,605.4356939999998,None,right,0.09486799999285722,605.4356939999998,None,,,,,,,,,,,,,,,,,,,,,,,PPT15,001,2022-06-30_09h08.37.319,ABstudy,2022.1.4,60.103739052865016,
AB,Lag5_T1P_T2P,5,P,P,7,12,6,4,16,Recycling bin,Did you see the Recycling bin?,0.12,0.016,JPG\,broccoli01a,scissors01,toothbrush03b,foosballtable,iron01b,brick,recyclingbin,toiletpaper01a,cd,garlic01a,carrot01,stapler03a,envelope03a,battery02b,balloon01b,broom01,blankImage,recyclingbin,,,,,,,,,,,,0,101,101,157,,,,,,,,,,,,,,,,,,,,,,,,,,,,,,,,,,,605.5597010999991,606.570251899997,606.5534699999989,607.123731300002,607.123731300002,None,609.0362023999987,None,right,0.246153799998865,609.0362023999987,None,609.3060003999999,None,right,0.1041616999937105,609.3060003999999,None,,,,,,,,,,,,,,,,,,,,,,,PPT15,001,2022-06-30_09h08.37.319,ABstudy,2022.1.4,60.103739052865016,
AB,Lag1_T1A_T2A,1,A,A,5,6,4,4,10,rose,Did you see the rose?,0.12,0.016,JPG\,sock01a,spoon01,alligator,comb02a,printer02,medal02b,lamp04a,cymbal,greenolive,computerkeyboard02,blankImage,blankImage,blankImage,blankImage,blankImage,blankImage,blankImage,cruiseship,,,,,,,,,,,,0,102,102,293,,,,,,,,,,,,,,,,,,,,,,,,,,,,,,,,,,,609.442020100003,610.4571920000017,610.4238339000003,611.0194097999993,611.0194097999993,None,612.2691169000027,None,left,0.4931444999965606,612.2691169000027,None,612.7929846999978,None,left,0.09721319999516709,612.7929846999978,None,,,,,,,,,,,,,,,,,,,,,,,PPT15,001,2022-06-30_09h08.37.319,ABstudy,2022.1.4,60.103739052865016,
AB,Lag1_T1P_T2P,1,P,P,8,9,7,4,13,kite,Did you see the kite?,0.12,0.016,JPG\,scissors01,balloon01b,eraser,feather03a,banana01,candle01,measuringcup01,kite,stapler04b,strawberry,pear01,carrot01,globe,blankImage,blankImage,blankImage,blankImage,kite,,,,,,,,,,,,0,103,103,17,,,,,,,,,,,,,,,,,,,,,,,,,,,,,,,,,,,612.912003999998,613.9272730000012,613.8939160000009,614.4677262999976,614.4677262999976,None,616.1271181999982,None,right,0.27558529999805614,616.1271181999982,None,616.4310935999965,None,right,0.09079599999677157,616.4310935999965,None,,,,,,,,,,,,,,,,,,,,,,,PPT15,001,2022-06-30_09h08.37.319,ABstudy,2022.1.4,60.103739052865016,
AB,Lag1_T1P_T2P,1,P,P,7,8,6,3,11,compass,Did you see the compass?,0.12,0.016,JPG\,brick,plate01b,pen04b,toaster01,screwdriver04b,candle01,magneticcompass,stapler03a,pig,ring01,orange,blankImage,blankImage,blankImage,blankImage,blankImage,blankImage,magneticcompass,,,,,,,,,,,,0,104,104,66,,,,,,,,,,,,,,,,,,,,,,,,,,,,,,,,,,,616.5591606000016,617.5647429000019,617.5481137000024,618.1494913999995,618.1494913999995,None,619.4448561000027,None,right,0.6851967999973567,619.4448561000027,None,620.1516486999972,None,left,0.12235099999816157,620.1516486999972,None,,,,,,,,,,,,,,,,,,,,,,,PPT15,001,2022-06-30_09h08.37.319,ABstudy,2022.1.4,60.103739052865016,
AB,Lag5_T1P_T2A,5,P,A,5,10,4,4,14,rocket,Did you see the rocket?,0.12,0.016,JPG\,fan,tomato01,candy,screwdriver04b,spacerocket,cd,thermometer02b,apple07,button01,plate01b,brownsugar,lighter01,clock01a,envelope03a,blankImage,blankImage,blankImage,spacerocket,,,,,,,,,,,,0,105,105,226,,,,,,,,,,,,,,,,,,,,,,,,,,,,,,,,,,,620.3099426999979,621.3185082999989,621.3018341999996,621.9015657999989,621.9015657999989,None,623.5503865999999,None,right,0.4435306000013952,623.5503865999999,None,624.0206108999992,None,left,0.07830239999748301,624.0206108999992,None,,,,,,,,,,,,,,,,,,,,,,,PPT15,001,2022-06-30_09h08.37.319,ABstudy,2022.1.4,60.103739052865016,
AB,Lag1_T1P_T2P,1,P,P,8,9,7,3,12,cactus,Did you see the cactus?,0.12,0.016,JPG\,tennisball01b,paintbrush01,medal02b,apple07,speaker04,iron01b,avocado01,cactus,stapler03b,toiletpaper01a,watermelon01,candle01,blankImage,blankImage,blankImage,blankImage,blankImage,cactus,,,,,,,,,,,,0,106,106,58,,,,,,,,,,,,,,,,,,,,,,,,,,,,,,,,,,,624.1233031000011,625.1384174999985,625.1050583000033,625.6949292999998,625.6949292999998,None,627.1321226,None,right,0.3263970999978483,627.1321226,None,627.4910748999973,None,right,0.08740060000127414,627.4910748999973,None,,,,,,,,,,,,,,,,,,,,,,,PPT15,001,2022-06-30_09h08.37.319,ABstudy,2022.1.4,60.103739052865016,
AB,Lag5_T1P_T2P,5,P,P,8,13,7,4,17,butterfly,Did you see the butterfly?,0.12,0.016,JPG\,speaker04,sewingmachine01a,eraser,violin,globe,belt02a,sunglasses04,butterfly,cd,greenolive,alligator,pear01,stapler01,screwdriver04b,banana01,cigarette,blankImage,butterfly,,,,,,,,,,,,0,107,107,126,,,,,,,,,,,,,,,,,,,,,,,,,,,,,,,,,,,627.6122210999965,628.6253929000013,628.6087245000017,629.1972561000002,629.1972561000002,None,631.1380436999971,None,right,0.5043251000024611,631.1380436999971,None,631.6618048000018,None,left,0.053576199992676266,631.6618048000018,None,,,,,,,,,,,,,,,,,,,,,,,PPT15,001,2022-06-30_09h08.37.319,ABstudy,2022.1.4,60.103739052865016,
AB,Lag1_T1P_T2P,1,P,P,8,9,7,4,13,dart board,Did you see the dart board?,0.12,0.016,JPG\,rice,watermelon01,tableknife02,scarf,computerkeyboard02,cauliflower01,battery02b,dartboard,stapler01,sandal,sponge01,microscope,tomato01,blankImage,blankImage,blankImage,blankImage,dartboard,,,,,,,,,,,,0,108,108,80,,,,,,,,,,,,,,,,,,,,,,,,,,,,,,,,,,,631.7504886000024,632.7628678999972,632.7462347999972,633.3236191000033,633.3236191000033,None,634.926999700001,None,right,0.29141990000061924,634.926999700001,None,635.2485113000002,None,right,0.07411779999529244,635.2485113000002,None,,,,,,,,,,,,,,,,,,,,,,,PPT15,001,2022-06-30_09h08.37.319,ABstudy,2022.1.4,60.103739052865016,
AB,Lag1_T1P_T2P,1,P,P,7,8,6,3,11,cloud,Did you see the cloud?,0.12,0.016,JPG\,lighter01,hammer01,spoon01,chain01,cymbal,sponge01,cloud,stapler06,pig,watermelon01,cauliflower01,blankImage,blankImage,blankImage,blankImage,blankImage,blankImage,cloud,,,,,,,,,,,,0,109,109,36,,,,,,,,,,,,,,,,,,,,,,,,,,,,,,,,,,,635.3509365999998,636.3663215999986,636.332922900001,636.9107539999968,636.9107539999968,None,638.2535473000025,None,right,0.30983179999748245,638.2535473000025,None,638.5851397000006,None,right,0.08142469999438617,638.5851397000006,None,,,,,,,,,,,,,,,,,,,,,,,PPT15,001,2022-06-30_09h08.37.319,ABstudy,2022.1.4,60.103739052865016,
AB,Lag5_T1P_T2P,5,P,P,5,10,4,3,13,rose,Did you see the rose?,0.12,0.016,JPG\,lipstick02a,cucumber,candle08b,printer02,rose,violin,paintbrush01,lighter01,belt02a,stapler03b,thermometer02b,microscope,cigarette,blankImage,blankImage,blankImage,blankImage,rose,,,,,,,,,,,,0,110,110,158,,,,,,,,,,,,,,,,,,,,,,,,,,,,,,,,,,,638.6875694999981,639.7029703000007,639.6695897000027,640.255788399998,640.255788399998,None,641.8045754999985,None,right,0.27763649999542395,641.8045754999985,None,642.1053379000004,None,right,0.09676819999731379,642.1053379000004,None,,,,,,,,,,,,,,,,,,,,,,,PPT15,001,2022-06-30_09h08.37.319,ABstudy,2022.1.4,60.103739052865016,
AB,Lag5_T1P_T2P,5,P,P,6,11,5,4,15,shovel,Did you see the shovel?,0.12,0.016,JPG\,carrot01,watch02a,clock04,microscope,toiletpaper01a,shovel01,alligator,ring01,brick,watermelon01,stapler03b,pencil01,measuringcup01,balloon01b,computerkeyboard02,blankImage,blankImage,shovel01,,,,,,,,,,,,0,111,111,139,,,,,,,,,,,,,,,,,,,,,,,,,,,,,,,,,,,642.2261954999994,643.2397618999967,643.2233227000033,643.8569121999972,643.7812513000026,None,645.614284700001,None,right,0.8682259999986854,645.614284700001,None,646.5101243000026,None,left,0.07640259999607224,646.5101243000026,None,,,,,,,,,,,,,,,,,,,,,,,PPT15,001,2022-06-30_09h08.37.319,ABstudy,2022.1.4,60.103739052865016,
AB,Lag5_T1P_T2A,5,P,A,6,11,5,5,16,hat,Did you see the hat?,0.12,0.016,JPG\,apple07,toiletpaper01a,pizza,dandelion,greenolive,pilgrimhat,microscope,violin,orange,lipstick02a,balloon01b,sandal,lighter01,fan,book01b,sewingmachine01a,blankImage,pilgrimhat,,,,,,,,,,,,0,112,112,206,,,,,,,,,,,,,,,,,,,,,,,,,,,,,,,,,,,646.6136907999971,647.627679899997,647.5943782999966,648.1668490000011,648.1668490000011,None,650.1066276999991,None,right,0.6639215999966837,650.1066276999991,None,650.7975551999989,None,left,0.05202179999469081,650.7975551999989,None,,,,,,,,,,,,,,,,,,,,,,,PPT15,001,2022-06-30_09h08.37.319,ABstudy,2022.1.4,60.103739052865016,
AB,Lag5_T1P_T2P,5,P,P,5,10,4,5,15,scorpion,Did you see the scorpion?,0.12,0.016,JPG\,fan,tomato01,candy,screwdriver04b,scorpion,cd,thermometer02b,apple07,button01,stapler01,brownsugar,lighter01,clock01a,envelope03a,clock04,blankImage,blankImage,scorpion,,,,,,,,,,,,0,113,113,97,,,,,,,,,,,,,,,,,,,,,,,,,,,,,,,,,,,650.9488332000037,651.9486596999996,651.931974500003,652.5202160999979,652.5202160999979,None,654.2601873000021,None,right,0.2301727999947616,654.2601873000021,None,654.5177066000033,None,right,0.10081010000430979,654.5177066000033,None,,,,,,,,,,,,,,,,,,,,,,,PPT15,001,2022-06-30_09h08.37.319,ABstudy,2022.1.4,60.103739052865016,
AB,Lag5_T1P_T2P,5,P,P,5,10,4,5,15,sword fish,Did you see the sword fish?,0.12,0.016,JPG\,scissors01,balloon01b,eraser,feather03a,swordfish,candle01,measuringcup01,calculator01,thermometer02b,stapler04b,pear01,carrot01,globe,baseball01a,leaf02a,blankImage,blankImage,swordfish,,,,,,,,,,,,0,114,114,160,,,,,,,,,,,,,,,,,,,,,,,,,,,,,,,,,,,654.6536769000013,655.6688218999989,655.6354509000012,656.2064107999977,656.2064107999977,None,658.1422668000014,None,right,0.22001879999879748,658.1422668000014,None,658.3884349,None,right,0.08666359999915585,658.3884349,None,,,,,,,,,,,,,,,,,,,,,,,PPT15,001,2022-06-30_09h08.37.319,ABstudy,2022.1.4,60.103739052865016,
AB,Lag1_T1P_T2P,1,P,P,5,6,4,5,11,candy cane,Did you see the candy cane?,0.12,0.016,JPG\,shirt02,match,screw02,foosballtable,candycane01a,stapler04b,sewingmachine01a,watch02a,button01,comb02a,dice05a,blankImage,blankImage,blankImage,blankImage,blankImage,blankImage,candycane01a,,,,,,,,,,,,0,115,115,9,,,,,,,,,,,,,,,,,,,,,,,,,,,,,,,,,,,658.5100843000037,659.5227057000011,659.5060337999967,660.0955972000011,660.0955972000011,None,661.451298,None,right,0.2867329000000609,661.451298,None,661.7584462000013,None,right,0.08362830000260146,661.7584462000013,None,,,,,,,,,,,,,,,,,,,,,,,PPT15,001,2022-06-30_09h08.37.319,ABstudy,2022.1.4,60.103739052865016,
AB,Lag5_T1P_T2P,5,P,P,8,13,7,5,18,bed,Did you see the bed?,0.12,0.016,JPG\,pencil01,broccoli01a,button01,sponge01,watermelon01,lipstick02a,comb02a,bed,lighter01,sock01a,spoon01,blueberry01,stapler04b,onion,grape01,avocado01,blankImage,bed,,,,,,,,,,,,0,116,116,124,,,,,,,,,,,,,,,,,,,,,,,,,,,,,,,,,,,661.8621576000005,662.8761395999973,662.8427796000033,663.4166017000025,663.4166017000025,None,665.3948157999985,None,right,0.30302659999142634,665.3948157999985,None,665.7296766,None,right,0.08826459999545477,665.7296766,None,,,,,,,,,,,,,,,,,,,,,,,PPT15,001,2022-06-30_09h08.37.319,ABstudy,2022.1.4,60.103739052865016,
AB,Lag5_T1A_T2A,5,A,A,7,12,6,4,16,Eye,Did you see the Eye?,0.12,0.016,JPG\,rice,watermelon01,tableknife02,scarf,computerkeyboard02,cauliflower01,battery02b,binoculars01b,book01b,sandal,sponge01,microscope,tomato01,fork03c,thermometer02b,apple07,blankImage,scooter,,,,,,,,,,,,0,117,117,302,,,,,,,,,,,,,,,,,,,,,,,,,,,,,,,,,,,665.8567919999987,666.8631101999999,666.8464218000008,667.4180067999987,667.4180067999987,None,669.3558549000008,None,left,0.6698359000001801,669.3558549000008,None,670.0498368999979,None,left,0.09567599999718368,670.0498368999979,None,,,,,,,,,,,,,,,,,,,,,,,PPT15,001,2022-06-30_09h08.37.319,ABstudy,2022.1.4,60.103739052865016,
AB,Lag1_T1P_T2P,1,P,P,8,9,7,4,13,crab,Did you see the crab?,0.12,0.016,JPG\,candle01,fork03c,plate01b,violin,computerkeyboard02,candy,calculator01,crab01,stapler04b,sock01a,teabag,banana01,cd,blankImage,blankImage,blankImage,blankImage,crab01,,,,,,,,,,,,0,118,118,37,,,,,,,,,,,,,,,,,,,,,,,,,,,,,,,,,,,670.1689141000024,671.184282299997,671.1508695000011,671.729221499998,671.729221499998,None,673.3055471999978,None,right,0.20938899999600835,673.3055471999978,None,673.5366074999984,None,right,0.0892422999968403,673.5366074999984,None,,,,,,,,,,,,,,,,,,,,,,,PPT15,001,2022-06-30_09h08.37.319,ABstudy,2022.1.4,60.103739052865016,
AB,Lag5_T1A_T2P,5,A,P,7,12,6,4,16,church,Did you see the church?,0.12,0.016,JPG\,printer02,leaf02a,cauliflower01,sock01a,brownsugar,paintbrush01,pig,orange,belt02a,shirt02,key01,stapler06,cigarette,scissors01,envelope03a,blueberry01,blankImage,ant,,,,,,,,,,,,0,119,119,279,,,,,,,,,,,,,,,,,,,,,,,,,,,,,,,,,,,673.655657299998,674.6710351000002,674.6376558999982,675.2224564999997,675.2224564999997,None,677.1477584000022,None,left,0.711131199997908,677.1477584000022,None,677.890957399999,None,right,0.07887830000254326,677.890957399999,None,,,,,,,,,,,,,,,,,,,,,,,PPT15,001,2022-06-30_09h08.37.319,ABstudy,2022.1.4,60.103739052865016,
AB,Lag1_T1P_T2A,1,P,A,5,6,4,5,11,Toaster oven,Did you see the Toaster oven?,0.12,0.016,JPG\,fork03c,toothbrush03b,cellphone,fan,toasteroven,clock01a,ring01,eraser,sunglasses04,thermometer02b,violin,blankImage,blankImage,blankImage,blankImage,blankImage,blankImage,toasteroven,,,,,,,,,,,,0,120,120,200,,,,,,,,,,,,,,,,,,,,,,,,,,,,,,,,,,,677.9964617000005,679.0090184000001,678.9923275999972,679.5553728000014,679.5553728000014,None,680.9921488000036,None,left,0.7057628999973531,680.9921488000036,None,681.728231699999,None,left,0.36204909999651136,681.728231699999,None,,,,,,,,,,,,,,,,,,,,,,,PPT15,001,2022-06-30_09h08.37.319,ABstudy,2022.1.4,60.103739052865016,
AB,Lag5_T1P_T2P,5,P,P,8,13,7,5,18,spice rack,Did you see the spice rack?,0.12,0.016,JPG\,lamp04a,broccoli01a,alligator,garlic01a,dandelion,brownsugar,avocado01,spicerack,leaf02a,cellphone,medal02b,cd,stapler05,sunglasses04,strawberry,eraser,blankImage,spicerack,,,,,,,,,,,,0,121,121,140,,,,,,,,,,,,,,,,,,,,,,,,,,,,,,,,,,,682.1192834999965,683.1300674000013,683.1128427000003,683.7081554000033,683.7081554000033,None,685.6579323999977,None,left,0.6081802999979118,685.6579323999977,None,686.282782299997,None,right,0.06330829999933485,686.282782299997,None,,,,,,,,,,,,,,,,,,,,,,,PPT15,001,2022-06-30_09h08.37.319,ABstudy,2022.1.4,60.103739052865016,
AB,Lag5_T1P_T2P,5,P,P,6,11,5,3,14,ladder,Did you see the ladder?,0.12,0.016,JPG\,celery,orange,scissors01,balloon01b,avocado01,stepladder,mushroom01,sewingmachine01a,lighter01,dice05a,stapler01,fan,cd,sock01a,blankImage,blankImage,blankImage,stepladder,,,,,,,,,,,,0,122,122,119,,,,,,,,,,,,,,,,,,,,,,,,,,,,,,,,,,,686.4064444000032,687.4170640000011,687.400659699997,687.9905627999979,687.9905627999979,None,689.6869185999967,None,right,0.26707840000017313,689.6869185999967,None,689.9863186000002,None,right,0.08773019999352982,689.9863186000002,None,,,,,,,,,,,,,,,,,,,,,,,PPT15,001,2022-06-30_09h08.37.319,ABstudy,2022.1.4,60.103739052865016,
AB,Lag1_T1A_T2P,1,A,P,5,6,4,3,9,Spider,Did you see the Spider?,0.12,0.016,JPG\,pen04b,speaker04,lighter01,cherry01,8ball,stapler04b,sock01a,toothbrush03b,broom01,blankImage,blankImage,blankImage,blankImage,blankImage,blankImage,blankImage,blankImage,bridge,,,,,,,,,,,,0,123,123,250,,,,,,,,,,,,,,,,,,,,,,,,,,,,,,,,,,,690.1059881999972,691.1208053000009,691.0874712000004,691.6597432999988,691.6597432999988,None,692.7788613000012,None,left,0.6228663000001688,692.7788613000012,None,693.4231224999967,None,right,0.050723399996059015,693.4231224999967,None,,,,,,,,,,,,,,,,,,,,,,,PPT15,001,2022-06-30_09h08.37.319,ABstudy,2022.1.4,60.103739052865016,
AB,Lag1_T1P_T2P,1,P,P,6,7,5,5,12,owl,Did you see the owl?,0.12,0.016,JPG\,paintbrush01,eraser,medal02b,hammer01,speaker04,greathornowl,stapler01,comb02a,plate01b,clock01a,button01,globe,blankImage,blankImage,blankImage,blankImage,blankImage,greathornowl,,,,,,,,,,,,0,124,124,1,,,,,,,,,,,,,,,,,,,,,,,,,,,,,,,,,,,693.5090074999971,694.5241650000025,694.4907819,695.0781790000037,695.0781790000037,None,696.5433724999966,None,right,0.27452279999124585,696.5433724999966,None,696.8433413000021,None,right,0.10255689999758033,696.8433413000021,None,,,,,,,,,,,,,,,,,,,,,,,PPT15,001,2022-06-30_09h08.37.319,ABstudy,2022.1.4,60.103739052865016,
AB,Lag1_T1P_T2P,1,P,P,8,9,7,4,13,Hula hoop,Did you see the Hula hoop?,0.12,0.016,JPG\,brownsugar,candle01,match,printer02,broom01,balloon01b,belt02a,hulahoop,stapler04b,feather03a,rice,mushroom01,pencil01,blankImage,blankImage,blankImage,blankImage,hulahoop,,,,,,,,,,,,0,125,125,64,,,,,,,,,,,,,,,,,,,,,,,,,,,,,,,,,,,696.9835549999989,697.9945509000027,697.9778447999997,698.4782916999975,698.4782916999975,None,700.1138762999981,None,right,0.26371349999681115,700.1138762999981,None,700.3967067999984,None,right,0.09383759999764152,700.3967067999984,None,,,,,,,,,,,,,,,,,,,,,,,PPT15,001,2022-06-30_09h08.37.319,ABstudy,2022.1.4,60.103739052865016,
AB,Lag1_T1A_T2P,1,A,P,6,7,5,5,12,Piano,Did you see the Piano?,0.12,0.016,JPG\,toiletpaper01a,mushroom01,medal02b,sandal,rice,cd,stapler01,pizza,candle08b,garlic01a,toaster01,belt02a,blankImage,blankImage,blankImage,blankImage,blankImage,moose,,,,,,,,,,,,0,126,126,239,,,,,,,,,,,,,,,,,,,,,,,,,,,,,,,,,,,700.5712016999969,701.5817652999976,701.5650788999992,702.1631135999996,702.1631135999996,None,703.5565009999991,None,left,0.6698012999986531,703.5565009999991,None,704.2507823999986,None,left,0.4484650000013062,704.2507823999986,None,,,,,,,,,,,,,,,,,,,,,,,PPT15,001,2022-06-30_09h08.37.319,ABstudy,2022.1.4,60.103739052865016,
AB,Lag5_T1P_T2P,5,P,P,5,10,4,5,15,penguin,Did you see the penguin?,0.12,0.016,JPG\,watermelon01,cigarette,pintofbeer,cymbal,penguin,feather03a,cherry01,broom01,battery02b,stapler05,baseball01a,iron01b,garlic01a,computerkeyboard02,pig,blankImage,blankImage,penguin,,,,,,,,,,,,0,127,127,137,,,,,,,,,,,,,,,,,,,,,,,,,,,,,,,,,,,704.7244063000035,705.7356052999967,705.7189875999975,706.3233292000004,706.3233292000004,None,708.084883399999,None,right,0.26988449999771547,708.084883399999,None,708.3714646000008,None,right,0.11817099999461789,708.3714646000008,None,,,,,,,,,,,,,,,,,,,,,,,PPT15,001,2022-06-30_09h08.37.319,ABstudy,2022.1.4,60.103739052865016,
AB,Lag1_T1A_T2P,1,A,P,5,6,4,3,9,Crown,Did you see the Crown?,0.12,0.016,JPG\,leaf02a,pear01,measuringcup01,cigarette,fan,stapler04b,teabag,tableknife02,ring01,blankImage,blankImage,blankImage,blankImage,blankImage,blankImage,blankImage,blankImage,arrow02,,,,,,,,,,,,0,128,128,248,,,,,,,,,,,,,,,,,,,,,,,,,,,,,,,,,,,708.5272341000018,709.5394530999984,709.5226308999991,710.110242499999,710.110242499999,None,711.2027429000009,None,left,0.9434527999983402,711.2027429000009,None,712.1752144999991,None,right,0.05902029999560909,712.1752144999991,None,,,,,,,,,,,,,,,,,,,,,,,PPT15,001,2022-06-30_09h08.37.319,ABstudy,2022.1.4,60.103739052865016,
AB,Lag5_T1A_T2P,5,A,P,7,12,6,4,16,flower,Did you see the flower?,0.12,0.016,JPG\,printer02,envelope03a,potato02b,calculator01,tableknife02,cigarette,ashtray01,pig,broom01,greenolive,candle08b,stapler03a,strawberry,candle01,foosballtable,tennisball01b,blankImage,calendar,,,,,,,,,,,,0,129,129,282,,,,,,,,,,,,,,,,,,,,,,,,,,,,,,,,,,,712.2629059000028,713.2763563999979,713.2595691000024,713.8341016999984,713.8341016999984,None,715.8639012999993,None,left,0.5855716000005486,715.8639012999993,None,716.4802859999982,None,left,0.12921320000168635,716.4802859999982,None,,,,,,,,,,,,,,,,,,,,,,,PPT15,001,2022-06-30_09h08.37.319,ABstudy,2022.1.4,60.103739052865016,
AB,Lag5_T1A_T2P,5,A,P,5,10,4,4,14,Chefs hat,Did you see the Chefs hat?,0.12,0.016,JPG\,candle01,fork03c,plate01b,violin,computerkeyboard02,candy,calculator01,paintbrush01,cherry01,stapler06,teabag,banana01,cd,lighter01,blankImage,blankImage,blankImage,horseshoe,,,,,,,,,,,,0,130,130,278,,,,,,,,,,,,,,,,,,,,,,,,,,,,,,,,,,,716.6428649000009,717.6469874999966,717.6303626000008,718.2034550000026,718.2034550000026,None,719.8933500999992,None,left,0.6039902999982587,719.8933500999992,None,720.516750499999,None,right,0.06161419999989448,720.516750499999,None,,,,,,,,,,,,,,,,,,,,,,,PPT15,001,2022-06-30_09h08.37.319,ABstudy,2022.1.4,60.103739052865016,
AB,Lag1_T1P_T2P,1,P,P,5,6,4,3,9,elephant,Did you see the elephant?,0.12,0.016,JPG\,celery,brownsugar,key01,sunglasses04,arugula,stapler04b,dice05a,tennisball01b,scarf,blankImage,blankImage,blankImage,blankImage,blankImage,blankImage,blankImage,blankImage,arugula,,,,,,,,,,,,0,131,131,54,,,,,,,,,,,,,,,,,,,,,,,,,,,,,,,,,,,720.6041221999985,721.6178274999984,721.5844358999966,722.1686661999993,722.1686661999993,None,723.3202856999997,None,left,0.5452245999986189,723.3202856999997,None,723.8869507999989,None,right,0.0675998000006075,723.8869507999989,None,,,,,,,,,,,,,,,,,,,,,,,PPT15,001,2022-06-30_09h08.37.319,ABstudy,2022.1.4,60.103739052865016,
AB,Lag5_T1P_T2P,5,P,P,8,13,7,3,16,parachute,Did you see the parachute?,0.12,0.016,JPG\,brick,plate01b,pen04b,toaster01,screwdriver04b,candle01,envelope03a,parachute,pig,ring01,orange,clock01a,stapler03b,calculator01,mushroom01,chain01,blankImage,parachute,,,,,,,,,,,,0,132,132,114,,,,,,,,,,,,,,,,,,,,,,,,,,,,,,,,,,,723.9925589999984,725.0045317999975,724.9880954999971,725.5572678000026,725.5572678000026,None,727.4755469000011,None,right,0.5022921999916434,727.4755469000011,None,728.0076760000011,None,right,0.10632299999997485,728.0076760000011,None,,,,,,,,,,,,,,,,,,,,,,,PPT15,001,2022-06-30_09h08.37.319,ABstudy,2022.1.4,60.103739052865016,
AB,Lag5_T1A_T2P,5,A,P,7,12,6,5,17,funnel,Did you see the funnel?,0.12,0.016,JPG\,iron01b,orange,birthdaycandle,potato02b,cauliflower01,pencil01,key01,candle08b,celery,tableknife02,pen04b,stapler04b,ring01,rice,lemon02,tomato01,blankImage,englishcucumber,,,,,,,,,,,,0,133,133,259,,,,,,,,,,,,,,,,,,,,,,,,,,,,,,,,,,,728.1453067999973,729.1592002999969,729.142712599998,729.7328594999999,729.7328594999999,None,731.6747660000037,None,left,0.41482620000169845,731.6747660000037,None,732.113119499998,None,right,0.0661541999943438,732.113119499998,None,,,,,,,,,,,,,,,,,,,,,,,PPT15,001,2022-06-30_09h08.37.319,ABstudy,2022.1.4,60.103739052865016,
AB,Lag5_T1A_T2A,5,A,A,5,10,4,5,15,window,Did you see the window?,0.12,0.016,JPG\,leaf02a,apple07,cd,pineapple01a,envelope03a,paintbrush01,pig,canoftennisballs,rice,feather03a,lemon02,balloon01b,avocado01,calculator01,watermelon01,blankImage,blankImage,saxophone,,,,,,,,,,,,0,134,134,301,,,,,,,,,,,,,,,,,,,,,,,,,,,,,,,,,,,732.2018766000037,733.2127600000022,733.1960781000016,733.775364699999,733.775364699999,None,735.6326782000033,None,left,0.8736042000018642,735.6326782000033,None,736.5326180999982,None,left,0.4456016999974963,736.5326180999982,None,,,,,,,,,,,,,,,,,,,,,,,PPT15,001,2022-06-30_09h08.37.319,ABstudy,2022.1.4,60.103739052865016,
AB,Lag5_T1P_T2P,5,P,P,7,12,6,5,17,truck,Did you see the truck?,0.12,0.016,JPG\,binoculars01b,speaker04,sandal,envelope03a,plate01b,comb02a,boxtruck,chain01,measuringcup01,key01,medal02b,stapler05,tennisball01b,pizza,cigarette,sunglasses04,blankImage,boxtruck,,,,,,,,,,,,0,135,135,166,,,,,,,,,,,,,,,,,,,,,,,,,,,,,,,,,,,737.0021234000014,738.0177564999976,737.9844137000036,738.5755425000025,738.5755425000025,None,740.5448262999998,None,right,0.5445395999995526,740.5448262999998,None,741.1208630999972,None,right,0.43243109999457374,741.1208630999972,None,,,,,,,,,,,,,,,,,,,,,,,PPT15,001,2022-06-30_09h08.37.319,ABstudy,2022.1.4,60.103739052865016,
AB,Lag1_T1P_T2P,1,P,P,8,9,7,5,14,Waterfall,Did you see the Waterfall?,0.12,0.016,JPG\,pizza,watch02a,greenolive,cucumber,match,violin,scissors01,waterfall,stapler03a,cherry01,ring01,cigarette,microscope,cellphone,blankImage,blankImage,blankImage,waterfall,,,,,,,,,,,,0,136,136,52,,,,,,,,,,,,,,,,,,,,,,,,,,,,,,,,,,,741.5723901000019,742.5718619000036,742.5551456999965,743.1473712000006,743.1473712000006,None,744.8322800000024,None,right,0.8263147999969078,744.8322800000024,None,745.6752180999974,None,left,0.09518620000017108,745.6752180999974,None,,,,,,,,,,,,,,,,,,,,,,,PPT15,001,2022-06-30_09h08.37.319,ABstudy,2022.1.4,60.103739052865016,
