TrialType,CondType,Lag,T1_PA,T2_PA,T1Loc,T2Loc,PreDistractor,PostDistractor,TotalImg,cueWord,T1cue,StimLength,isi,PicFolder,Img1,Img2,Img3,Img4,Img5,Img6,Img7,Img8,Img9,Img10,Img11,Img12,Img13,Img14,Img15,Img16,Img17,T1_Identity,ImageType,T1PA,T2PA,Picture,Image,FullPathName,FilePath,Practice_Trials.thisRepN,Practice_Trials.thisTrialN,Practice_Trials.thisN,Practice_Trials.thisIndex,trials.thisRepN,trials.thisTrialN,trials.thisN,trials.thisIndex,trials_2.thisRepN,trials_2.thisTrialN,trials_2.thisN,trials_2.thisIndex,Practice_Ins.started,Practice_Ins.stopped,End_Prac_Ins.keys,End_Prac_Ins.rt,End_Prac_Ins.started,End_Prac_Ins.stopped,text_2.started,text_2.stopped,Fixation_Cross_2.started,Fixation_Cross_2.stopped,Rapid_Image_Present_2.started,Rapid_Image_Present_2.stopped,key_resp.keys,key_resp.rt,key_resp.started,key_resp.stopped,T1Response_2.started,T1Response_2.stopped,T2Response_2.started,T2Response_2.stopped,key_resp_4.keys,key_resp_4.rt,key_resp_4.started,key_resp_4.stopped,text.started,text.stopped,End_Instructions.keys,End_Instructions.rt,End_Instructions.started,End_Instructions.stopped,text_5.started,text_5.stopped,FC.started,FC.stopped,Rapid_Image_Present.started,Rapid_Image_Present.stopped,T1Response.started,T1Response.stopped,key_resp_2.keys,key_resp_2.rt,key_resp_2.started,key_resp_2.stopped,T2Response.started,T2Response.stopped,key_resp_3.keys,key_resp_3.rt,key_resp_3.started,key_resp_3.stopped,text_6.started,text_6.stopped,Fin_ins.keys,Fin_ins.rt,Fin_ins.started,Fin_ins.stopped,MemTest.started,MemTest.stopped,MemResponse.keys,MemResponse.rt,MemResponse.started,MemResponse.stopped,Display.started,Display.stopped,text_7.started,text_7.stopped,endOfExperiment.started,endOfExperiment.stopped,key_resp_5.keys,key_resp_5.rt,key_resp_5.started,key_resp_5.stopped,participant,session,date,expName,psychopyVersion,frameRate,
,,,,,,,,,,,,,,,,,,,,,,,,,,,,,,,,,,,,,,,,,,,,,,,,,,,,26.578900499999918,None,space,8.355501600000025,26.578900499999918,None,,,,,,,,,,,,,,,,,,,,,,,,,,,,,,,,,,,,,,,,,,,,,,,,,,,,,,,,,,,,,,,,,PPT14,001,2022-06-29_16h26.54.527,ABstudy,2022.1.4,59.90534954776281,
AB_Prac,Lag1_T1P_T2A,1,P,A,5,6,4,5,11,Webcam,Did you see the Webcam?,0.5,0.016,JPG\,pictureframe04,binder03b,straw,adjustablewrench01b,webcam,cane,hairdryer02a,icepack,kitchenscale01a,lifejacket,piggybank,blankImage,blankImage,blankImage,blankImage,blankImage,blankImage,webcam,,,,,,,,0,0,0,6,,,,,,,,,,,,,,,34.99712139999997,36.00910040000008,35.992544799999905,36.59302180000009,36.59302180000009,None,left,1.6986632000000554,42.14802959999997,None,42.14802959999997,None,43.86686349999991,None,right,1.6753869000001487,43.86686349999991,None,,,,,,,,,,,,,,,,,,,,,,,,,,,,,,,,,,,,,,,,,,,,,,,PPT14,001,2022-06-29_16h26.54.527,ABstudy,2022.1.4,59.90534954776281,
AB_Prac,Lag5_T1A_T2A,5,A,A,6,11,5,5,16,castle,Did you see the castle?,0.5,0.016,JPG\,tape02a,englishmuffin,flask,ladle02a,monitor,peach01,keychain,squeegee01b,telephone01b,whisk,walkman,syringe02,baguette01,coaster,box01a,coffeepot03a,blankImage,None,,,,,,,,0,1,1,11,,,,,,,,,,,,,,,45.617614499999945,46.619622299999946,46.60292340000001,47.177080799999885,47.177080799999885,None,right,1.300744499999837,55.14429079999991,None,55.14429079999991,None,56.46283850000009,None,right,1.5509197999999742,56.46283850000009,None,,,,,,,,,,,,,,,,,,,,,,,,,,,,,,,,,,,,,,,,,,,,,,,PPT14,001,2022-06-29_16h26.54.527,ABstudy,2022.1.4,59.90534954776281,
AB_Prac,Lag5_T1P_T2P,5,P,P,5,10,4,5,15,washing machine,Did you see the washing machine?,0.5,0.016,JPG\,waterbottle03,wheel01,flashlight02b,zucchini01,washingmachine,headphones02b,nutcracker01,paintroller01,paperclip03,stapler06,ribbon04,electricrazor,bottleofredwine01,pitabread,pot02a,blankImage,blankImage,washingmachine,,,,,,,,0,2,2,4,,,,,,,,,,,,,,,58.030789299999924,59.0318706999999,59.015332700000044,59.57659269999999,59.57659269999999,None,right,2.0577564000000166,67.1319438999999,None,67.1319438999999,None,69.20878900000002,None,left,1.100637900000038,69.20878900000002,None,,,,,,,,,,,,,,,,,,,,,,,,,,,,,,,,,,,,,,,,,,,,,,,PPT14,001,2022-06-29_16h26.54.527,ABstudy,2022.1.4,59.90534954776281,
AB_Prac,Lag5_T1P_T2P,5,P,P,5,10,4,5,15,Vulture,Did you see the Vulture?,0.5,0.016,JPG\,shorts01,toast,ramekin01,bib,vulture,cracker02,date,glasses01a,hat03b,stapler01,measuringtape01,nail,pill,drum01,starfish01,blankImage,blankImage,vulture,,,,,,,,0,3,3,3,,,,,,,,,,,,,,,70.32707249999999,71.32768839999994,71.31097049999994,71.87699599999996,71.87699599999996,None,left,1.5366503000000193,79.46885029999999,None,79.46885029999999,None,81.03753140000003,None,right,1.671700699999974,81.03753140000003,None,,,,,,,,,,,,,,,,,,,,,,,,,,,,,,,,,,,,,,,,,,,,,,,PPT14,001,2022-06-29_16h26.54.527,ABstudy,2022.1.4,59.90534954776281,
AB_Prac,Lag1_T1P_T2P,1,P,P,8,9,7,5,14,Tennis racket,Did you see the Tennis racket?,0.5,0.016,JPG\,coconut,computermouse06,croissant01,deodorant02a,pillow01a,peanut01,boot02b,tennisracket,stapler03b,crayon,eggplant,marker01a,plant01,radish01,blankImage,blankImage,blankImage,tennisracket,,,,,,,,0,4,4,0,,,,,,,,,,,,,,,82.7404403999999,83.74011780000001,83.72328309999989,84.29790920000005,84.29790920000005,None,left,1.1675402000000759,91.3173792,None,91.3173792,None,92.5154222000001,None,right,1.6500540999998066,92.5154222000001,None,,,,,,,,,,,,,,,,,,,,,,,,,,,,,,,,,,,,,,,,,,,,,,,PPT14,001,2022-06-29_16h26.54.527,ABstudy,2022.1.4,59.90534954776281,
AB_Prac,Lag1_T1P_T2A,1,P,A,8,9,7,5,14,flower,Did you see the flower?,0.5,0.016,JPG\,razor01,axe01,binder03b,bowl01,kettle01,lettuce,lime,plasticflower01b,mitten04,pencilcase01,plunger02,strawbasket01,toothpick02,wallet02a,blankImage,blankImage,blankImage,plasticflower01b,,,,,,,,0,5,5,5,,,,,,,,,,,,,,,94.18371879999995,95.18465779999997,95.16801420000002,95.72895459999995,95.72895459999995,None,left,0.7535976000001483,102.82752170000003,None,102.82752170000003,None,103.6097006,None,right,1.2598453000000518,103.6097006,None,,,,,,,,,,,,,,,,,,,,,,,,,,,,,,,,,,,,,,,,,,,,,,,PPT14,001,2022-06-29_16h26.54.527,ABstudy,2022.1.4,59.90534954776281,
AB_Prac,Lag1_T1P_T2P,1,P,P,6,7,5,5,12,triangle,Did you see the triangle?,0.5,0.016,JPG\,ginger,mousetrap,plum01,slipper01b,dropper01,triangle,stapler04b,pants,raspberry01,rope03,scale01a,vase01,blankImage,blankImage,blankImage,blankImage,blankImage,triangle,,,,,,,,0,6,6,1,,,,,,,,,,,,,,,104.96648499999992,105.97876049999991,105.9619494000001,106.53047659999993,106.53047659999993,None,left,1.1697491000002174,112.4593903,None,112.4593903,None,113.65300430000002,None,right,1.1604549999999563,113.65300430000002,None,,,,,,,,,,,,,,,,,,,,,,,,,,,,,,,,,,,,,,,,,,,,,,,PPT14,001,2022-06-29_16h26.54.527,ABstudy,2022.1.4,59.90534954776281,
AB_Prac,Lag5_T1P_T2A,5,P,A,6,11,5,5,16,Wheat,Did you see the Wheat?,0.5,0.016,JPG\,bottleopener01,dentalfloss03b,cooler01,icecreamcone01a,paperclip01b,wheat,pencilsharpener02a,plasticbasket01a,toycar04,apricot,hairclip02,rock01a,honeydewmelon,antenna,blackberry,cardboardbox,blankImage,wheat,,,,,,,,0,7,7,7,,,,,,,,,,,,,,,114.83734879999997,115.8385816,115.82194350000009,116.37835399999994,116.37835399999994,None,left,0.9172051000000465,124.4159302999999,None,124.4159302999999,None,125.36480149999988,None,right,0.9840878000002249,125.36480149999988,None,,,,,,,,,,,,,,,,,,,,,,,,,,,,,,,,,,,,,,,,,,,,,,,PPT14,001,2022-06-29_16h26.54.527,ABstudy,2022.1.4,59.90534954776281,
AB_Prac,Lag5_T1A_T2P,5,A,P,6,11,5,3,14,dog,Did you see the dog?,0.5,0.016,JPG\,bucket01a,doorlock,cookiecutter,fireextinguisher01,gluestick,highlighter02b,sportbag,spraybottle01,suitcase,thread02,stapler05,walnut01c,icecubetray01a,vikingmask01b,blankImage,blankImage,blankImage,None,,,,,,,,0,8,8,9,,,,,,,,,,,,,,,126.36571449999997,127.36669080000001,127.35003570000003,127.9243805000001,127.9243805000001,None,left,0.834741699999995,134.9699806000001,None,134.9699806000001,None,135.82515009999997,None,right,0.956104600000117,135.82515009999997,None,,,,,,,,,,,,,,,,,,,,,,,,,,,,,,,,,,,,,,,,,,,,,,,PPT14,001,2022-06-29_16h26.54.527,ABstudy,2022.1.4,59.90534954776281,
AB_Prac,Lag5_T1P_T2P,5,P,P,7,12,6,3,15,vacuum,Did you see the vacuum?,0.5,0.016,JPG\,fork07b,lightbulb01,manshoe,saw02b,shoelace,soap03a,vacuumcleaner01,floortile01,necklace,doll,cabbage,stapler03a,hanger02a,laptop01a,nailpolish03b,blankImage,blankImage,vacuumcleaner01,,,,,,,,0,9,9,2,,,,,,,,,,,,,,,136.80946919999997,137.81043419999992,137.7938514,138.35039589999997,138.35039589999997,None,left,1.0208620999999312,145.8959761000001,None,145.8959761000001,None,146.93628310000008,None,left,0.5093319999998585,146.93628310000008,None,,,,,,,,,,,,,,,,,,,,,,,,,,,,,,,,,,,,,,,,,,,,,,,PPT14,001,2022-06-29_16h26.54.527,ABstudy,2022.1.4,59.90534954776281,
AB_Prac,Lag5_T1P_T2A,5,P,A,6,11,5,5,16,bread,Did you see the bread?,0.5,0.016,JPG\,cleaver01,clipboard,dustpan,hikingshoe01,notebook03a,baguette01,playingcard,pliers02b,styrofoamcup,rollingpin01a,swimgoggles,wineglass01,fryingpan02a,safetypin,syringe01,thimble,blankImage,baguette01,,,,,,,,0,10,10,8,,,,,,,,,,,,,,,147.47004560000005,148.4710164999999,148.45421800000008,149.0084245999999,149.0084245999999,None,left,0.8085951000000478,157.07704639999997,None,157.07704639999997,None,157.9136848999999,None,right,0.5314811000000645,157.9136848999999,None,,,,,,,,,,,,,,,,,,,,,,,,,,,,,,,,,,,,,,,,,,,,,,,PPT14,001,2022-06-29_16h26.54.527,ABstudy,2022.1.4,59.90534954776281,
AB_Prac,Lag1_T1A_T2A,1,A,A,8,9,7,3,12,Moose,Did you see the Moose?,0.5,0.016,JPG\,clothespin03b,corkscrew03a,drillbit03a,fusilli03a,needlenosepliers01,perfume01a,pistachio,scrubbingbrush05b,spatula03,toothpastetube,hinge,toydinosaur,blankImage,blankImage,blankImage,blankImage,blankImage,None,,,,,,,,0,11,11,10,,,,,,,,,,,,,,,158.46432679999998,159.46527539999988,159.4487446999999,160.0063600000001,160.0063600000001,None,left,0.8397108000001481,166.03706850000003,None,166.03706850000003,None,166.90591289999998,None,right,1.6277721000001293,166.90591289999998,None,,,,,,,,,,,,,,,,,,,,,,,,,,,,,,,,,,,,,,,,,,,,,,,PPT14,001,2022-06-29_16h26.54.527,ABstudy,2022.1.4,59.90534954776281,
,,,,,,,,,,,,,,,,,,,,,,,,,,,,,,,,,,,,,,,,,,,,,,,,,,,,,,,,,,,,,,,,,,,,,,,,,,,,168.55772159999992,None,space,2.1115966999998363,168.55772159999992,None,,,,,,,,,,,,,,,,,,,,,,,,,,,,,,,,,,,,,,,,,PPT14,001,2022-06-29_16h26.54.527,ABstudy,2022.1.4,59.90534954776281,
AB,Lag5_T1P_T2P,5,P,P,6,11,5,4,15,Witch hat,Did you see the Witch hat?,0.12,0.016,JPG\,pizza,watch02a,greenolive,cucumber,match,witchhat,scissors01,broom01,globe,cherry01,stapler03a,cigarette,microscope,cellphone,speaker04,blankImage,blankImage,witchhat,,,,,,,,,,,,0,0,0,101,,,,,,,,,,,,,,,,,,,,,,,,,,,,,,,,,,,171.2944394000001,172.2946449000001,172.27806910000004,172.89343510000003,172.89343510000003,None,174.7441601999999,None,left,0.9006843999998182,174.7441601999999,None,175.66472079999994,None,right,1.260955499999909,175.66472079999994,None,,,,,,,,,,,,,,,,,,,,,,,PPT14,001,2022-06-29_16h26.54.527,ABstudy,2022.1.4,59.90534954776281,
AB,Lag1_T1A_T2A,1,A,A,8,9,7,3,12,popcorn,Did you see the popcorn?,0.12,0.016,JPG\,brownsugar,candle01,match,printer02,broom01,balloon01b,belt02a,potato02b,computerkeyboard02,feather03a,rice,mushroom01,blankImage,blankImage,blankImage,blankImage,blankImage,banjo,,,,,,,,,,,,0,1,1,290,,,,,,,,,,,,,,,,,,,,,,,,,,,,,,,,,,,176.9494999000001,177.95041100000003,177.93373599999995,178.43420930000002,178.43420930000002,None,179.98943009999994,None,left,0.8648951000000125,179.98943009999994,None,180.88655560000007,None,right,2.263529800000015,180.88655560000007,None,,,,,,,,,,,,,,,,,,,,,,,PPT14,001,2022-06-29_16h26.54.527,ABstudy,2022.1.4,59.90534954776281,
AB,Lag5_T1P_T2A,5,P,A,6,11,5,5,16,World map,Did you see the World map?,0.12,0.016,JPG\,cigarette,pig,banana01,strawberry,clock01a,worldmap,spoon01,blueberry01,battery02b,pineapple01a,chain01,paintbrush01,candy,pen04b,teabag,birthdaycandle,blankImage,worldmap,,,,,,,,,,,,0,2,2,205,,,,,,,,,,,,,,,,,,,,,,,,,,,,,,,,,,,183.1865444,184.19003840000005,184.17323269999997,184.72636979999993,184.72636979999993,None,186.60906309999996,None,left,0.8997984000000088,186.60906309999996,None,187.52663979999988,None,right,0.5181828000002042,187.52663979999988,None,,,,,,,,,,,,,,,,,,,,,,,PPT14,001,2022-06-29_16h26.54.527,ABstudy,2022.1.4,59.90534954776281,
AB,Lag5_T1P_T2P,5,P,P,6,11,5,5,16,motorcycle,Did you see the motorcycle?,0.12,0.016,JPG\,cucumber,ring01,lipstick02a,microscope,violin,motorcycle,celery,lighter01,cherry01,sewingmachine01a,stapler04b,key01,binoculars01b,medal02b,watermelon01,dice05a,blankImage,motorcycle,,,,,,,,,,,,0,3,3,93,,,,,,,,,,,,,,,,,,,,,,,,,,,,,,,,,,,188.0772053999999,189.07821760000002,189.06148069999995,189.62159859999997,189.62159859999997,None,191.5864039999999,None,left,0.7869175999999243,191.5864039999999,None,192.39825059999998,None,right,0.5267385999998169,192.39825059999998,None,,,,,,,,,,,,,,,,,,,,,,,PPT14,001,2022-06-29_16h26.54.527,ABstudy,2022.1.4,59.90534954776281,
AB,Lag5_T1P_T2P,5,P,P,7,12,6,4,16,Bird feeder,Did you see the Bird feeder?,0.12,0.016,JPG\,watermelon01,banana01,ring01,pencil01,tomato01,speaker04,birdfeeder,thermometer02b,key01,foosballtable,violin,stapler06,clock04,dice05a,pen04b,mushroom01,blankImage,birdfeeder,,,,,,,,,,,,0,4,4,164,,,,,,,,,,,,,,,,,,,,,,,,,,,,,,,,,,,192.94904670000005,193.9496428,193.93285949999995,194.49804679999988,194.49804679999988,None,196.5361628999999,None,left,1.1411789000001136,196.5361628999999,None,197.70322929999998,None,right,0.583138100000042,197.70322929999998,None,,,,,,,,,,,,,,,,,,,,,,,PPT14,001,2022-06-29_16h26.54.527,ABstudy,2022.1.4,59.90534954776281,
AB,Lag1_T1P_T2P,1,P,P,6,7,5,4,11,Bow,Did you see the Bow?,0.12,0.016,JPG\,broom01,plate01b,scissors01,garlic01a,paintbrush01,bow,stapler03a,shirt02,speaker04,celery,sandal,blankImage,blankImage,blankImage,blankImage,blankImage,blankImage,bow,,,,,,,,,,,,0,5,5,53,,,,,,,,,,,,,,,,,,,,,,,,,,,,,,,,,,,198.3041983999999,199.30502049999996,199.2883821999999,199.8409939999999,199.8409939999999,None,201.22506249999992,None,right,1.1958628999998382,201.22506249999992,None,202.4415047,None,left,0.5554799999999886,202.4415047,None,,,,,,,,,,,,,,,,,,,,,,,PPT14,001,2022-06-29_16h26.54.527,ABstudy,2022.1.4,59.90534954776281,
AB,Lag1_T1P_T2P,1,P,P,6,7,5,3,10,elephant,Did you see the elephant?,0.12,0.016,JPG\,clock01a,grape01,plate01b,key01,screwdriver04b,africanelephant,stapler03b,iron01b,toothbrush03b,comb02a,blankImage,blankImage,blankImage,blankImage,blankImage,blankImage,blankImage,africanelephant,,,,,,,,,,,,0,6,6,31,,,,,,,,,,,,,,,,,,,,,,,,,,,,,,,,,,,203.0253863999999,204.02649580000002,204.0097083999999,204.58630330000005,204.58630330000005,None,205.88036080000006,None,left,1.5249820000001364,205.88036080000006,None,207.4293186,None,right,1.6472091000000546,207.4293186,None,,,,,,,,,,,,,,,,,,,,,,,PPT14,001,2022-06-29_16h26.54.527,ABstudy,2022.1.4,59.90534954776281,
AB,Lag1_T1P_T2P,1,P,P,6,7,5,4,11,no parking sign,Did you see the no parking sign?,0.12,0.016,JPG\,fork03c,belt02a,grape01,computerkeyboard02,lemon02,parkingsign,stapler05,toiletpaper01a,toaster01,lipstick02a,book01b,blankImage,blankImage,blankImage,blankImage,blankImage,blankImage,parkingsign,,,,,,,,,,,,0,7,7,47,,,,,,,,,,,,,,,,,,,,,,,,,,,,,,,,,,,209.0981142999999,210.09909560000006,210.08230909999997,210.63840800000003,210.63840800000003,None,212.00181369999996,None,left,1.1633170999998583,212.00181369999996,None,213.18557450000003,None,right,0.6354745999999523,213.18557450000003,None,,,,,,,,,,,,,,,,,,,,,,,PPT14,001,2022-06-29_16h26.54.527,ABstudy,2022.1.4,59.90534954776281,
AB,Lag1_T1P_T2A,1,P,A,6,7,5,4,11,bird,Did you see the bird?,0.12,0.016,JPG\,foosballtable,candy,envelope03a,microscope,pencil01,cedarwaxwing,scissors01,watermelon01,grape01,dandelion,pineapple01a,blankImage,blankImage,blankImage,blankImage,blankImage,blankImage,cedarwaxwing,,,,,,,,,,,,0,8,8,182,,,,,,,,,,,,,,,,,,,,,,,,,,,,,,,,,,,213.85271970000008,214.85375980000003,214.83715370000004,215.33757379999997,215.33757379999997,None,216.74991780000005,None,left,1.2631441000000905,216.74991780000005,None,218.0401827999999,None,left,0.8689878000000135,218.0401827999999,None,,,,,,,,,,,,,,,,,,,,,,,PPT14,001,2022-06-29_16h26.54.527,ABstudy,2022.1.4,59.90534954776281,
AB,Lag5_T1P_T2P,5,P,P,5,10,4,5,15,Safe,Did you see the Safe?,0.12,0.016,JPG\,candle01,shirt02,brick,orange,safe,toothbrush03b,pizza,thermometer02b,book01b,stapler01,sewingmachine01a,toaster01,candy,cymbal,potato02b,blankImage,blankImage,safe,,,,,,,,,,,,0,9,9,159,,,,,,,,,,,,,,,,,,,,,,,,,,,,,,,,,,,218.9412130999999,219.94218569999998,219.9255806000001,220.47553119999998,220.47553119999998,None,222.3865237,None,left,1.450603000000001,222.3865237,None,223.86289420000003,None,left,0.7979857000000266,223.86289420000003,None,,,,,,,,,,,,,,,,,,,,,,,PPT14,001,2022-06-29_16h26.54.527,ABstudy,2022.1.4,59.90534954776281,
AB,Lag1_T1P_T2P,1,P,P,7,8,6,5,13,arrow,Did you see the arrow?,0.12,0.016,JPG\,pencil01,broccoli01a,button01,sponge01,watermelon01,lipstick02a,arrow02,stapler04b,lighter01,sock01a,spoon01,blueberry01,belt02a,blankImage,blankImage,blankImage,blankImage,arrow02,,,,,,,,,,,,0,10,10,76,,,,,,,,,,,,,,,,,,,,,,,,,,,,,,,,,,,224.68029509999997,225.68127200000004,225.6645261000001,226.21647239999993,226.21647239999993,None,227.83841570000004,None,left,0.5979823000000124,227.83841570000004,None,228.46731580000005,None,left,0.3056748999999854,228.46731580000005,None,,,,,,,,,,,,,,,,,,,,,,,PPT14,001,2022-06-29_16h26.54.527,ABstudy,2022.1.4,59.90534954776281,
AB,Lag1_T1P_T2P,1,P,P,6,7,5,3,10,spider web,Did you see the spider web?,0.12,0.016,JPG\,toaster01,chain01,sponge01,baseball01a,carrot01,spiderweb,stapler03b,iron01b,grape01,brick,blankImage,blankImage,blankImage,blankImage,blankImage,blankImage,blankImage,spiderweb,,,,,,,,,,,,0,11,11,72,,,,,,,,,,,,,,,,,,,,,,,,,,,,,,,,,,,228.8009294000001,229.8021423,229.7853325000001,230.35041449999994,230.35041449999994,None,231.6061388999999,None,left,1.4069922000001043,231.6061388999999,None,233.0385632,None,left,1.1424948999999742,233.0385632,None,,,,,,,,,,,,,,,,,,,,,,,PPT14,001,2022-06-29_16h26.54.527,ABstudy,2022.1.4,59.90534954776281,
AB,Lag5_T1A_T2P,5,A,P,5,10,4,4,14,mail box,Did you see the mail box?,0.12,0.016,JPG\,button01,celery,birthdaycandle,apple07,avocado01,tennisball01b,dice05a,teabag,clock01a,stapler05,tomato01,scarf,orange,battery02b,blankImage,blankImage,blankImage,jeep,,,,,,,,,,,,0,12,12,263,,,,,,,,,,,,,,,,,,,,,,,,,,,,,,,,,,,234.20642320000002,235.20745110000007,235.19029969999997,235.7490868,235.7490868,None,237.50560610000002,None,right,1.652163999999857,237.50560610000002,None,239.17789330000005,None,left,0.5066532000000734,239.17789330000005,None,,,,,,,,,,,,,,,,,,,,,,,PPT14,001,2022-06-29_16h26.54.527,ABstudy,2022.1.4,59.90534954776281,
AB,Lag5_T1A_T2P,5,A,P,7,12,6,5,17,Rollerblade,Did you see the Rollerblade?,0.12,0.016,JPG\,binoculars01b,cymbal,pizza,candy,paintbrush01,sponge01,grape01,thermometer02b,speaker04,lemon02,lipstick02a,stapler03b,candle01,8ball,plate01b,pen04b,blankImage,lion,,,,,,,,,,,,0,13,13,266,,,,,,,,,,,,,,,,,,,,,,,,,,,,,,,,,,,239.7439852,240.7462662999999,240.7296477,241.2951946999999,241.2951946999999,None,243.22694589999992,None,right,0.977798200000052,243.22694589999992,None,244.2328930000001,None,left,0.4044426000000385,244.2328930000001,None,,,,,,,,,,,,,,,,,,,,,,,PPT14,001,2022-06-29_16h26.54.527,ABstudy,2022.1.4,59.90534954776281,
AB,Lag5_T1P_T2P,5,P,P,5,10,4,5,15,Eye,Did you see the Eye?,0.12,0.016,JPG\,apple07,toiletpaper01a,pizza,dandelion,eye,eraser,microscope,violin,orange,stapler01,balloon01b,sandal,lighter01,fan,book01b,blankImage,blankImage,eye,,,,,,,,,,,,0,14,14,171,,,,,,,,,,,,,,,,,,,,,,,,,,,,,,,,,,,244.66690889999995,245.6678750000001,245.65111589999992,246.21906949999993,246.21906949999993,None,248.0409866,None,left,0.8836857999999665,248.0409866,None,248.95444150000003,None,left,0.38610220000009576,248.95444150000003,None,,,,,,,,,,,,,,,,,,,,,,,PPT14,001,2022-06-29_16h26.54.527,ABstudy,2022.1.4,59.90534954776281,
AB,Lag5_T1P_T2A,5,P,A,7,12,6,3,15,Toy soldier,Did you see the Toy soldier?,0.12,0.016,JPG\,binoculars01b,cymbal,pizza,candy,paintbrush01,sponge01,toysoldier01b,thermometer02b,speaker04,lemon02,lipstick02a,strawberry,candle01,acorn,plate01b,blankImage,blankImage,toysoldier01b,,,,,,,,,,,,0,15,15,203,,,,,,,,,,,,,,,,,,,,,,,,,,,,,,,,,,,249.37155119999989,250.3725090999999,250.35592859999997,250.9197001,250.9197001,None,252.75527650000004,None,left,0.985043800000085,252.75527650000004,None,253.7592059000001,None,right,0.5972351999998864,253.7592059000001,None,,,,,,,,,,,,,,,,,,,,,,,PPT14,001,2022-06-29_16h26.54.527,ABstudy,2022.1.4,59.90534954776281,
AB,Lag5_T1P_T2A,5,P,A,5,10,4,3,13,cork,Did you see the cork?,0.12,0.016,JPG\,clock01a,grape01,plate01b,key01,cork02,feather03a,pineapple01a,iron01b,toothbrush03b,comb02a,broom01,toaster01,pizza,blankImage,blankImage,blankImage,blankImage,cork02,,,,,,,,,,,,0,16,16,209,,,,,,,,,,,,,,,,,,,,,,,,,,,,,,,,,,,254.40210389999993,255.41086829999995,255.39439659999994,255.9584872999999,255.9584872999999,None,257.5869685,None,left,0.8500031000000945,257.5869685,None,258.4638373,None,right,1.0610744999999042,258.4638373,None,,,,,,,,,,,,,,,,,,,,,,,PPT14,001,2022-06-29_16h26.54.527,ABstudy,2022.1.4,59.90534954776281,
AB,Lag1_T1P_T2P,1,P,P,5,6,4,5,11,Guitar case,Did you see the Guitar case?,0.12,0.016,JPG\,broccoli01a,scissors01,toothbrush03b,foosballtable,guitarcase,stapler05,hammer01,toiletpaper01a,cd,garlic01a,carrot01,blankImage,blankImage,blankImage,blankImage,blankImage,blankImage,guitarcase,,,,,,,,,,,,0,17,17,14,,,,,,,,,,,,,,,,,,,,,,,,,,,,,,,,,,,259.5485120999999,260.5493021,260.5327013000001,261.09338460000004,261.09338460000004,None,262.52673329999993,None,left,0.7179057999999259,262.52673329999993,None,263.2686271,None,left,0.34542420000002494,263.2686271,None,,,,,,,,,,,,,,,,,,,,,,,PPT14,001,2022-06-29_16h26.54.527,ABstudy,2022.1.4,59.90534954776281,
AB,Lag5_T1A_T2P,5,A,P,5,10,4,3,13,License Plate,Did you see the License Plate?,0.12,0.016,JPG\,tomato01,pen04b,shirt02,carrot01,lamp04a,key01,pizza,avocado01,sewingmachine01a,stapler06,iron01b,book01b,chain01,blankImage,blankImage,blankImage,blankImage,porcupine,,,,,,,,,,,,0,18,18,270,,,,,,,,,,,,,,,,,,,,,,,,,,,,,,,,,,,263.6369291000001,264.6366645999999,264.6201311,265.1815859000001,265.1815859000001,None,266.76585019999993,None,right,1.2711355999999796,266.76585019999993,None,268.05680789999997,None,left,0.492272899999989,268.05680789999997,None,,,,,,,,,,,,,,,,,,,,,,,PPT14,001,2022-06-29_16h26.54.527,ABstudy,2022.1.4,59.90534954776281,
AB,Lag5_T1P_T2A,5,P,A,5,10,4,3,13,fan,Did you see the fan?,0.12,0.016,JPG\,scissors01,grape01,mushroom01,toiletpaper01a,fanheater,pizza,cigarette,ashtray01,carrot01,pineapple01a,foosballtable,lipstick02a,teabag,blankImage,blankImage,blankImage,blankImage,fanheater,,,,,,,,,,,,0,19,19,220,,,,,,,,,,,,,,,,,,,,,,,,,,,,,,,,,,,268.5739484999999,269.57494270000007,269.5583718999999,270.1096952999999,270.1096952999999,None,271.72941579999997,None,left,0.7957443000000239,271.72941579999997,None,272.5446368999999,None,right,0.34757300000001123,272.5446368999999,None,,,,,,,,,,,,,,,,,,,,,,,PPT14,001,2022-06-29_16h26.54.527,ABstudy,2022.1.4,59.90534954776281,
AB,Lag1_T1P_T2P,1,P,P,8,9,7,3,12,cactus,Did you see the cactus?,0.12,0.016,JPG\,tennisball01b,paintbrush01,medal02b,apple07,speaker04,iron01b,avocado01,cactus,stapler03b,toiletpaper01a,watermelon01,candle01,blankImage,blankImage,blankImage,blankImage,blankImage,cactus,,,,,,,,,,,,0,20,20,58,,,,,,,,,,,,,,,,,,,,,,,,,,,,,,,,,,,272.9116517,273.9125876999999,273.89598060000003,274.4646926999999,274.4646926999999,None,275.9693976000001,None,left,0.6274172000000817,275.9693976000001,None,276.6153419,None,left,0.3177341000000524,276.6153419,None,,,,,,,,,,,,,,,,,,,,,,,PPT14,001,2022-06-29_16h26.54.527,ABstudy,2022.1.4,59.90534954776281,
AB,Lag1_T1A_T2P,1,A,P,8,9,7,3,12,seal,Did you see the seal?,0.12,0.016,JPG\,dice05a,watch02a,pig,lighter01,button01,strawberry,paintbrush01,microscope,stapler03a,pen04b,feather03a,8ball,blankImage,blankImage,blankImage,blankImage,blankImage,hockeystick,,,,,,,,,,,,0,21,21,235,,,,,,,,,,,,,,,,,,,,,,,,,,,,,,,,,,,276.96565910000004,277.9666050999999,277.9500908,278.5116608999999,278.5116608999999,None,280.07879690000004,None,right,0.9503493000001981,280.07879690000004,None,281.05310940000004,None,left,0.36015100000008715,281.05310940000004,None,,,,,,,,,,,,,,,,,,,,,,,PPT14,001,2022-06-29_16h26.54.527,ABstudy,2022.1.4,59.90534954776281,
AB,Lag5_T1P_T2P,5,P,P,6,11,5,4,15,sword,Did you see the sword?,0.12,0.016,JPG\,8ball,banana01,scissors01,pig,shirt02,broadsword,pear01,sponge01,fork03c,tableknife02,stapler06,match,toothbrush03b,birthdaycandle,candle01,blankImage,blankImage,broadsword,,,,,,,,,,,,0,22,22,167,,,,,,,,,,,,,,,,,,,,,,,,,,,,,,,,,,,281.43671029999996,282.43768109999996,282.4210951,282.9842214,282.9842214,None,284.81433590000006,None,right,2.998173500000121,284.81433590000006,None,287.8431977,None,left,0.6338179000001674,287.8431977,None,,,,,,,,,,,,,,,,,,,,,,,PPT14,001,2022-06-29_16h26.54.527,ABstudy,2022.1.4,59.90534954776281,
AB,Lag1_T1P_T2P,1,P,P,7,8,6,4,12,Dog House,Did you see the Dog House?,0.12,0.016,JPG\,pineapple01a,leaf02a,grape01,toiletpaper01a,match,tennisball01b,doghouse,stapler03b,pig,measuringcup01,ring01,lemon02,blankImage,blankImage,blankImage,blankImage,blankImage,doghouse,,,,,,,,,,,,0,23,23,44,,,,,,,,,,,,,,,,,,,,,,,,,,,,,,,,,,,288.50416900000005,289.51141329999996,289.4948325999999,290.06231090000006,290.06231090000006,None,291.5167366999999,None,left,1.143813899999941,291.5167366999999,None,292.6812652000001,None,right,0.755932699999903,292.6812652000001,None,,,,,,,,,,,,,,,,,,,,,,,PPT14,001,2022-06-29_16h26.54.527,ABstudy,2022.1.4,59.90534954776281,
AB,Lag1_T1A_T2P,1,A,P,5,6,4,3,9,Crown,Did you see the Crown?,0.12,0.016,JPG\,leaf02a,pear01,measuringcup01,cigarette,fan,stapler04b,teabag,tableknife02,ring01,blankImage,blankImage,blankImage,blankImage,blankImage,blankImage,blankImage,blankImage,arrow02,,,,,,,,,,,,0,24,24,248,,,,,,,,,,,,,,,,,,,,,,,,,,,,,,,,,,,293.4652767,294.46643500000005,294.4496862000001,295.0039460999999,295.0039460999999,None,296.1074495999999,None,right,1.481070900000077,296.1074495999999,None,297.61949159999995,None,left,1.2023896999999124,297.61949159999995,None,,,,,,,,,,,,,,,,,,,,,,,PPT14,001,2022-06-29_16h26.54.527,ABstudy,2022.1.4,59.90534954776281,
AB,Lag1_T1P_T2P,1,P,P,8,9,7,4,13,kite,Did you see the kite?,0.12,0.016,JPG\,scissors01,balloon01b,eraser,feather03a,banana01,candle01,measuringcup01,kite,stapler04b,strawberry,pear01,carrot01,globe,blankImage,blankImage,blankImage,blankImage,kite,,,,,,,,,,,,0,25,25,17,,,,,,,,,,,,,,,,,,,,,,,,,,,,,,,,,,,298.85412640000004,299.8551433,299.838397,300.3900917000001,300.3900917000001,None,301.9848809,None,left,0.9640082999999322,301.9848809,None,302.9748437999999,None,left,1.84578109999984,302.9748437999999,None,,,,,,,,,,,,,,,,,,,,,,,PPT14,001,2022-06-29_16h26.54.527,ABstudy,2022.1.4,59.90534954776281,
AB,Lag5_T1A_T2P,5,A,P,6,11,5,3,14,Kiwi,Did you see the Kiwi?,0.12,0.016,JPG\,paintbrush01,dice05a,watermelon01,broccoli01a,hammer01,leaf02a,match,tennisball01b,lemon02,fan,stapler06,grape01,envelope03a,sponge01,blankImage,blankImage,blankImage,granolabar01,,,,,,,,,,,,0,26,26,261,,,,,,,,,,,,,,,,,,,,,,,,,,,,,,,,,,,304.8440178999999,305.8442586000001,305.82774829999994,306.38158739999994,306.38158739999994,None,308.1496459,None,right,3.5998551000000134,308.1496459,None,311.76690770000005,None,right,1.1655298000000585,311.76690770000005,None,,,,,,,,,,,,,,,,,,,,,,,PPT14,001,2022-06-29_16h26.54.527,ABstudy,2022.1.4,59.90534954776281,
AB,Lag1_T1P_T2P,1,P,P,6,7,5,3,10,jelly beans,Did you see the jelly beans?,0.12,0.016,JPG\,lipstick02a,cucumber,candle08b,printer02,grape01,jellybean,stapler01,lighter01,belt02a,balloon01b,blankImage,blankImage,blankImage,blankImage,blankImage,blankImage,blankImage,jellybean,,,,,,,,,,,,0,27,27,15,,,,,,,,,,,,,,,,,,,,,,,,,,,,,,,,,,,312.9515176000002,313.9524617999998,313.93572740000013,314.4892855999999,314.4892855999999,None,315.7615119999998,None,left,1.106842200000301,315.7615119999998,None,316.88883520000013,None,right,1.1559864000000744,316.88883520000013,None,,,,,,,,,,,,,,,,,,,,,,,PPT14,001,2022-06-29_16h26.54.527,ABstudy,2022.1.4,59.90534954776281,
AB,Lag1_T1P_T2P,1,P,P,8,9,7,4,13,crab,Did you see the crab?,0.12,0.016,JPG\,candle01,fork03c,plate01b,violin,computerkeyboard02,candy,calculator01,crab01,stapler04b,sock01a,teabag,banana01,cd,blankImage,blankImage,blankImage,blankImage,crab01,,,,,,,,,,,,0,28,28,37,,,,,,,,,,,,,,,,,,,,,,,,,,,,,,,,,,,318.07333589999985,319.0743742000002,319.0574918,319.64014569999995,319.64014569999995,None,321.24007460000007,None,left,0.7722564000000602,321.24007460000007,None,322.04392440000015,None,right,0.5770907999999508,322.04392440000015,None,,,,,,,,,,,,,,,,,,,,,,,PPT14,001,2022-06-29_16h26.54.527,ABstudy,2022.1.4,59.90534954776281,
AB,Lag1_T1P_T2A,1,P,A,6,7,5,5,12,Tombstone,Did you see the Tombstone?,0.12,0.016,JPG\,cigarette,ashtray01,envelope03a,sandal,chain01,tombstone,broccoli01a,tomato01,dandelion,candle01,lemon02,button01,blankImage,blankImage,blankImage,blankImage,blankImage,tombstone,,,,,,,,,,,,0,29,29,196,,,,,,,,,,,,,,,,,,,,,,,,,,,,,,,,,,,322.6445059,323.64532799999984,323.6287642,324.1816434,324.1816434,None,325.67649000000006,None,right,0.864134599999943,325.67649000000006,None,326.56509759999994,None,right,1.4390128000000004,326.56509759999994,None,,,,,,,,,,,,,,,,,,,,,,,PPT14,001,2022-06-29_16h26.54.527,ABstudy,2022.1.4,59.90534954776281,
AB,Lag1_T1P_T2P,1,P,P,7,8,6,3,11,Daddy Long Legs,Did you see the Daddy Long Legs?,0.12,0.016,JPG\,lighter01,hammer01,spoon01,chain01,cymbal,sponge01,daddylonglegs,stapler03b,pig,watermelon01,cauliflower01,blankImage,blankImage,blankImage,blankImage,blankImage,blankImage,daddylonglegs,,,,,,,,,,,,0,30,30,86,,,,,,,,,,,,,,,,,,,,,,,,,,,,,,,,,,,328.03322649999996,329.0341679999999,329.01748900000007,329.57423760000006,329.57423760000006,None,330.93298329999993,None,left,2.3278521000002,330.93298329999993,None,333.2885368999998,None,left,0.7957070000002204,333.2885368999998,None,,,,,,,,,,,,,,,,,,,,,,,PPT14,001,2022-06-29_16h26.54.527,ABstudy,2022.1.4,59.90534954776281,
AB,Lag5_T1P_T2A,5,P,A,5,10,4,3,13,martini glass,Did you see the martini glass?,0.12,0.016,JPG\,brick,eraser,cucumber,ashtray01,martiniglass01b,binoculars01b,lipstick02a,screwdriver04b,grape01,brownsugar,battery02b,iron01b,dice05a,blankImage,blankImage,blankImage,blankImage,martiniglass01b,,,,,,,,,,,,0,31,31,217,,,,,,,,,,,,,,,,,,,,,,,,,,,,,,,,,,,334.1256943000001,335.1403237000002,335.10689320000006,335.6700094999999,335.6700094999999,None,337.2544085000002,None,right,0.8779173999996601,337.2544085000002,None,338.16008110000007,None,left,0.6687072000004264,338.16008110000007,None,,,,,,,,,,,,,,,,,,,,,,,PPT14,001,2022-06-29_16h26.54.527,ABstudy,2022.1.4,59.90534954776281,
AB,Lag5_T1A_T2P,5,A,P,5,10,4,4,14,duck,Did you see the duck?,0.12,0.016,JPG\,brick,eraser,cucumber,ashtray01,thermometer02b,binoculars01b,lipstick02a,screwdriver04b,grape01,stapler04b,battery02b,iron01b,dice05a,avocado01,blankImage,blankImage,blankImage,barrel01,,,,,,,,,,,,0,32,32,280,,,,,,,,,,,,,,,,,,,,,,,,,,,,,,,,,,,338.86068520000003,339.86160240000004,339.8449638999998,340.4083962000002,340.4083962000002,None,342.2294776000001,None,right,1.2073322999999618,342.2294776000001,None,343.46502429999987,None,right,1.347702599999593,343.46502429999987,None,,,,,,,,,,,,,,,,,,,,,,,PPT14,001,2022-06-29_16h26.54.527,ABstudy,2022.1.4,59.90534954776281,
AB,Lag5_T1P_T2P,5,P,P,7,12,6,5,17,statue,Did you see the statue?,0.12,0.016,JPG\,pear01,clock01a,cymbal,match,ashtray01,globe,statue,button01,lemon02,pen04b,dice05a,stapler06,toothbrush03b,screwdriver04b,feather03a,key01,blankImage,statue,,,,,,,,,,,,0,33,33,100,,,,,,,,,,,,,,,,,,,,,,,,,,,,,,,,,,,344.8333679,345.83416379999994,345.81760580000014,346.37619329999984,346.37619329999984,None,348.3468153000001,None,left,0.9380119000002196,348.3468153000001,None,349.3045023000002,None,right,0.4036556999999448,349.3045023000002,None,,,,,,,,,,,,,,,,,,,,,,,PPT14,001,2022-06-29_16h26.54.527,ABstudy,2022.1.4,59.90534954776281,
AB,Lag5_T1P_T2P,5,P,P,8,13,7,3,16,parachute,Did you see the parachute?,0.12,0.016,JPG\,brick,plate01b,pen04b,toaster01,screwdriver04b,candle01,envelope03a,parachute,pig,ring01,orange,clock01a,stapler03b,calculator01,mushroom01,chain01,blankImage,parachute,,,,,,,,,,,,0,34,34,114,,,,,,,,,,,,,,,,,,,,,,,,,,,,,,,,,,,349.7381244999999,350.7390711999999,350.7223934000001,351.28558450000014,351.28558450000014,None,353.2446966,None,left,0.8721101000000999,353.2446966,None,354.1425665999998,None,right,0.5335454000000937,354.1425665999998,None,,,,,,,,,,,,,,,,,,,,,,,PPT14,001,2022-06-29_16h26.54.527,ABstudy,2022.1.4,59.90534954776281,
AB,Lag5_T1P_T2P,5,P,P,5,10,4,4,14,Salt shaker,Did you see the Salt shaker?,0.12,0.016,JPG\,fork03c,belt02a,grape01,computerkeyboard02,saltshaker03a,printer02,broom01,toiletpaper01a,toaster01,stapler01,book01b,blueberry01,spoon01,apple07,blankImage,blankImage,blankImage,saltshaker03a,,,,,,,,,,,,0,35,35,96,,,,,,,,,,,,,,,,,,,,,,,,,,,,,,,,,,,354.6931259999999,355.694072,355.67723649999994,356.22984359999987,356.22984359999987,None,358.06106909999994,None,left,0.5116914999998698,358.06106909999994,None,358.5967552999998,None,left,2.3115504000002147,358.5967552999998,None,,,,,,,,,,,,,,,,,,,,,,,PPT14,001,2022-06-29_16h26.54.527,ABstudy,2022.1.4,59.90534954776281,
AB,Lag5_T1P_T2A,5,P,A,6,11,5,5,16,fish,Did you see the fish?,0.12,0.016,JPG\,cucumber,ring01,lipstick02a,microscope,violin,redlionfish,celery,lighter01,cherry01,sewingmachine01a,belt02a,key01,binoculars01b,medal02b,watermelon01,dice05a,blankImage,redlionfish,,,,,,,,,,,,0,36,36,221,,,,,,,,,,,,,,,,,,,,,,,,,,,,,,,,,,,360.93254980000006,361.9335785999999,361.9167983,362.4747702000002,362.4747702000002,None,364.4407772000002,None,left,4.115631399999984,364.4407772000002,None,368.57340739999995,None,right,1.4709363000001758,368.57340739999995,None,,,,,,,,,,,,,,,,,,,,,,,PPT14,001,2022-06-29_16h26.54.527,ABstudy,2022.1.4,59.90534954776281,
AB,Lag5_T1P_T2P,5,P,P,6,11,5,4,15,punching bag,Did you see the punching bag?,0.12,0.016,JPG\,foosballtable,cigarette,pen04b,birthdaycandle,hammer01,punchingbag,binoculars01b,chain01,potato02b,cauliflower01,stapler04b,ashtray01,scarf,cellphone,calculator01,blankImage,blankImage,punchingbag,,,,,,,,,,,,0,37,37,156,,,,,,,,,,,,,,,,,,,,,,,,,,,,,,,,,,,370.0751210000001,371.0759134000002,371.0594192000001,371.55986959999996,371.55986959999996,None,373.5006212999999,None,left,0.7272816999998213,373.5006212999999,None,374.2457280000001,None,right,0.35894610000013927,374.2457280000001,None,,,,,,,,,,,,,,,,,,,,,,,PPT14,001,2022-06-29_16h26.54.527,ABstudy,2022.1.4,59.90534954776281,
AB,Lag1_T1P_T2P,1,P,P,7,8,6,3,11,Moose,Did you see the Moose?,0.12,0.016,JPG\,sock01a,spoon01,alligator,comb02a,printer02,medal02b,moose,stapler03a,greenolive,computerkeyboard02,cauliflower01,blankImage,blankImage,blankImage,blankImage,blankImage,blankImage,moose,,,,,,,,,,,,0,38,38,67,,,,,,,,,,,,,,,,,,,,,,,,,,,,,,,,,,,374.6295044000001,375.6304584000002,375.61396579999996,376.17719409999995,376.17719409999995,None,377.5792733999999,None,left,1.2807084000000941,377.5792733999999,None,378.88378979999993,None,right,0.44018750000032014,378.88378979999993,None,,,,,,,,,,,,,,,,,,,,,,,PPT14,001,2022-06-29_16h26.54.527,ABstudy,2022.1.4,59.90534954776281,
AB,Lag1_T1P_T2A,1,P,A,7,8,6,3,11,Seagull,Did you see the Seagull?,0.12,0.016,JPG\,toiletpaper01a,mushroom01,medal02b,sandal,rice,cd,seagull,pizza,candle08b,garlic01a,toaster01,blankImage,blankImage,blankImage,blankImage,blankImage,blankImage,seagull,,,,,,,,,,,,0,39,39,176,,,,,,,,,,,,,,,,,,,,,,,,,,,,,,,,,,,379.38614459999985,380.385258,380.3685272,380.9361580000002,380.9361580000002,None,382.2477271,None,left,0.7579172000000653,382.2477271,None,383.0378965000002,None,right,0.7340361000001394,383.0378965000002,None,,,,,,,,,,,,,,,,,,,,,,,PPT14,001,2022-06-29_16h26.54.527,ABstudy,2022.1.4,59.90534954776281,
AB,Lag5_T1P_T2P,5,P,P,6,11,5,3,14,ladder,Did you see the ladder?,0.12,0.016,JPG\,celery,orange,scissors01,balloon01b,avocado01,stepladder,mushroom01,sewingmachine01a,lighter01,dice05a,stapler01,fan,cd,sock01a,blankImage,blankImage,blankImage,stepladder,,,,,,,,,,,,0,40,40,119,,,,,,,,,,,,,,,,,,,,,,,,,,,,,,,,,,,383.78855640000006,384.7896763000001,384.7729271999999,385.33182740000007,385.33182740000007,None,387.06043179999983,None,left,1.0074060000001737,387.06043179999983,None,388.09308350000015,None,left,0.3114607000002252,388.09308350000015,None,,,,,,,,,,,,,,,,,,,,,,,PPT14,001,2022-06-29_16h26.54.527,ABstudy,2022.1.4,59.90534954776281,
AB,Lag5_T1A_T2P,5,A,P,5,10,4,5,15,parachute,Did you see the parachute?,0.12,0.016,JPG\,binoculars01b,speaker04,sandal,envelope03a,plate01b,comb02a,battery02b,chain01,measuringcup01,stapler03b,medal02b,lamp04a,tennisball01b,pizza,cigarette,blankImage,blankImage,knee,,,,,,,,,,,,0,41,41,264,,,,,,,,,,,,,,,,,,,,,,,,,,,,,,,,,,,388.46872199999984,389.47774079999976,389.4609770999998,390.0195216999998,390.0195216999998,None,391.83120619999977,None,right,1.604932600000211,391.83120619999977,None,393.46492349999994,None,right,0.3548731000000771,393.46492349999994,None,,,,,,,,,,,,,,,,,,,,,,,PPT14,001,2022-06-29_16h26.54.527,ABstudy,2022.1.4,59.90534954776281,
AB,Lag1_T1P_T2P,1,P,P,7,8,6,4,12,rooster,Did you see the rooster?,0.12,0.016,JPG\,pizza,strawberry,potato02b,speaker04,battery02b,iron01b,rooster,stapler03b,globe,banana01,medal02b,baseball01a,blankImage,blankImage,blankImage,blankImage,blankImage,rooster,,,,,,,,,,,,0,42,42,69,,,,,,,,,,,,,,,,,,,,,,,,,,,,,,,,,,,393.8487619,394.8497060000002,394.8330540999998,395.4023052,395.4023052,None,396.9010528000001,None,left,1.606858000000102,396.9010528000001,None,398.53678809999997,None,left,1.1312343000004148,398.53678809999997,None,,,,,,,,,,,,,,,,,,,,,,,PPT14,001,2022-06-29_16h26.54.527,ABstudy,2022.1.4,59.90534954776281,
AB,Lag5_T1A_T2P,5,A,P,5,10,4,3,13,flower,Did you see the flower?,0.12,0.016,JPG\,cucumber,ring01,lipstick02a,microscope,violin,garlic01a,celery,lighter01,cherry01,stapler03a,belt02a,key01,binoculars01b,blankImage,blankImage,blankImage,blankImage,christmastree,,,,,,,,,,,,0,43,43,284,,,,,,,,,,,,,,,,,,,,,,,,,,,,,,,,,,,399.73431370000003,400.73875840000005,400.7221296,401.2792849,401.2792849,None,402.81753730000014,None,right,0.8588365999999041,402.81753730000014,None,403.7082895000001,None,left,0.31977850000021135,403.7082895000001,None,,,,,,,,,,,,,,,,,,,,,,,PPT14,001,2022-06-29_16h26.54.527,ABstudy,2022.1.4,59.90534954776281,
AB,Lag5_T1P_T2P,5,P,P,7,12,6,4,16,Wolf,Did you see the Wolf?,0.12,0.016,JPG\,brick,eraser,cucumber,ashtray01,thermometer02b,binoculars01b,greywolf,screwdriver04b,grape01,brownsugar,battery02b,stapler03b,dice05a,avocado01,birthdaycandle,watch02a,blankImage,greywolf,,,,,,,,,,,,0,44,44,89,,,,,,,,,,,,,,,,,,,,,,,,,,,,,,,,,,,404.05896099999995,405.0598597999999,405.0432804999998,405.6065463000002,405.6065463000002,None,407.6167205999998,None,left,0.7558835999998337,407.6167205999998,None,408.39656020000007,None,left,0.19995419999986552,408.39656020000007,None,,,,,,,,,,,,,,,,,,,,,,,PPT14,001,2022-06-29_16h26.54.527,ABstudy,2022.1.4,59.90534954776281,
AB,Lag5_T1P_T2P,5,P,P,7,12,6,5,17,flamingo,Did you see the flamingo?,0.12,0.016,JPG\,pig,belt02a,rice,screwdriver04b,candle01,apple07,flamingo,pear01,feather03a,match,thermometer02b,stapler06,lemon02,violin,medal02b,pineapple01a,blankImage,flamingo,,,,,,,,,,,,0,45,45,153,,,,,,,,,,,,,,,,,,,,,,,,,,,,,,,,,,,408.61326940000004,409.6144594,409.5976234000002,410.0982523,410.0982523,None,412.13598260000003,None,left,0.5242044000001442,412.13598260000003,None,412.68406530000016,None,left,0.20836989999997968,412.68406530000016,None,,,,,,,,,,,,,,,,,,,,,,,PPT14,001,2022-06-29_16h26.54.527,ABstudy,2022.1.4,59.90534954776281,
AB,Lag1_T1A_T2P,1,A,P,8,9,7,5,14,clock,Did you see the clock?,0.12,0.016,JPG\,speaker04,sewingmachine01a,eraser,violin,globe,belt02a,sunglasses04,cymbal,stapler01,greenolive,alligator,pear01,watch02a,screwdriver04b,blankImage,blankImage,blankImage,peacock,,,,,,,,,,,,0,46,46,240,,,,,,,,,,,,,,,,,,,,,,,,,,,,,,,,,,,412.91744540000013,413.91865630000007,413.901979,414.46710740000003,414.46710740000003,None,416.1567809999999,None,right,1.1519171999998434,416.1567809999999,None,417.33875550000016,None,left,0.4014670000001388,417.33875550000016,None,,,,,,,,,,,,,,,,,,,,,,,PPT14,001,2022-06-29_16h26.54.527,ABstudy,2022.1.4,59.90534954776281,
AB,Lag1_T1A_T2P,1,A,P,7,8,6,3,11,Fox,Did you see the Fox?,0.12,0.016,JPG\,toaster01,chain01,sponge01,baseball01a,carrot01,belt02a,book01b,stapler03b,grape01,brick,celery,blankImage,blankImage,blankImage,blankImage,blankImage,blankImage,fingerprint,,,,,,,,,,,,0,47,47,234,,,,,,,,,,,,,,,,,,,,,,,,,,,,,,,,,,,417.7724445000001,418.77339340000003,418.7567741999999,419.31946200000016,419.31946200000016,None,420.70393660000013,None,right,0.8437331000000086,420.70393660000013,None,421.5761672000001,None,left,0.33308900000020003,421.5761672000001,None,,,,,,,,,,,,,,,,,,,,,,,PPT14,001,2022-06-29_16h26.54.527,ABstudy,2022.1.4,59.90534954776281,
AB,Lag1_T1P_T2A,1,P,A,5,6,4,5,11,Electric toothbrush,Did you see the Electric toothbrush?,0.12,0.016,JPG\,carrot01,greenolive,fork03c,chain01,electrictoothbrush01c,watermelon01,tableknife02,printer02,comb02a,toaster01,orange,blankImage,blankImage,blankImage,blankImage,blankImage,blankImage,electrictoothbrush01c,,,,,,,,,,,,0,48,48,186,,,,,,,,,,,,,,,,,,,,,,,,,,,,,,,,,,,421.9624803999998,422.9777182,422.94435850000013,423.50369290000003,423.50369290000003,None,424.8583903000001,None,left,1.0418987999996716,424.8583903000001,None,425.9306614999998,None,right,0.24958999999989828,425.9306614999998,None,,,,,,,,,,,,,,,,,,,,,,,PPT14,001,2022-06-29_16h26.54.527,ABstudy,2022.1.4,59.90534954776281,
AB,Lag5_T1A_T2P,5,A,P,6,11,5,5,16,bed,Did you see the bed?,0.12,0.016,JPG\,cellphone,tomato01,comb02a,candy,celery,cucumber,toaster01,fan,feather03a,pen04b,stapler03b,blueberry01,plate01b,cherry01,baseball01a,candle08b,blankImage,toolbox02,,,,,,,,,,,,0,49,49,274,,,,,,,,,,,,,,,,,,,,,,,,,,,,,,,,,,,426.1976047999999,427.1985674,427.18184240000005,427.74200769999993,427.74200769999993,None,429.76775470000007,None,right,1.0688310000000456,429.76775470000007,None,430.8688236999999,None,left,1.4077056999999513,430.8688236999999,None,,,,,,,,,,,,,,,,,,,,,,,PPT14,001,2022-06-29_16h26.54.527,ABstudy,2022.1.4,59.90534954776281,
AB,Lag1_T1P_T2A,1,P,A,7,8,6,4,12,gorilla,Did you see the gorilla?,0.12,0.016,JPG\,scissors01,ashtray01,garlic01a,medal02b,cigarette,candle08b,gorilla,envelope03a,cucumber,rice,toiletpaper01a,greenolive,blankImage,blankImage,blankImage,blankImage,blankImage,gorilla,,,,,,,,,,,,0,50,50,189,,,,,,,,,,,,,,,,,,,,,,,,,,,,,,,,,,,432.3035427000002,433.30456660000004,433.2880548999999,433.8385274999998,433.8385274999998,None,435.3336883999998,None,left,0.8540502999999262,435.3336883999998,None,436.20758090000004,None,right,0.32482019999997647,436.20758090000004,None,,,,,,,,,,,,,,,,,,,,,,,PPT14,001,2022-06-29_16h26.54.527,ABstudy,2022.1.4,59.90534954776281,
AB,Lag5_T1P_T2P,5,P,P,7,12,6,4,16,flower,Did you see the flower?,0.12,0.016,JPG\,cucumber,sponge01,alligator,pear01,ashtray01,hammer01,hibiscusflower02,battery02b,fork03c,binoculars01b,mushroom01,stapler01,leaf02a,acorn,comb02a,screwdriver04b,blankImage,hibiscusflower02,,,,,,,,,,,,0,51,51,132,,,,,,,,,,,,,,,,,,,,,,,,,,,,,,,,,,,436.5579755000001,437.5588365000001,437.5421675,438.09994759999995,438.09994759999995,None,440.06976640000016,None,right,1.1663426999998592,440.06976640000016,None,441.2625343000002,None,right,0.8292364999997517,441.2625343000002,None,,,,,,,,,,,,,,,,,,,,,,,PPT14,001,2022-06-29_16h26.54.527,ABstudy,2022.1.4,59.90534954776281,
AB,Lag5_T1P_T2P,5,P,P,7,12,6,5,17,truck,Did you see the truck?,0.12,0.016,JPG\,binoculars01b,speaker04,sandal,envelope03a,plate01b,comb02a,boxtruck,chain01,measuringcup01,key01,medal02b,stapler05,tennisball01b,pizza,cigarette,sunglasses04,blankImage,boxtruck,,,,,,,,,,,,0,52,52,166,,,,,,,,,,,,,,,,,,,,,,,,,,,,,,,,,,,442.1133941999999,443.1144700000002,443.0976271000002,443.6585871,443.6585871,None,445.65702380000016,None,left,0.7229210999998941,445.65702380000016,None,446.4009136000002,None,left,0.2910990000000311,446.4009136000002,None,,,,,,,,,,,,,,,,,,,,,,,PPT14,001,2022-06-29_16h26.54.527,ABstudy,2022.1.4,59.90534954776281,
AB,Lag1_T1A_T2P,1,A,P,5,6,4,3,9,microphone,Did you see the microphone?,0.12,0.016,JPG\,hammer01,sponge01,toaster01,cherry01,feather03a,stapler06,measuringcup01,pencil01,tennisball01b,blankImage,blankImage,blankImage,blankImage,blankImage,blankImage,blankImage,blankImage,cactus,,,,,,,,,,,,0,53,53,230,,,,,,,,,,,,,,,,,,,,,,,,,,,,,,,,,,,446.7180466000002,447.7189526999998,447.70226119999984,448.2566459000002,448.2566459000002,None,449.47664039999995,None,right,1.0229432000000998,449.47664039999995,None,450.5217310999999,None,right,0.779262000000017,450.5217310999999,None,,,,,,,,,,,,,,,,,,,,,,,PPT14,001,2022-06-29_16h26.54.527,ABstudy,2022.1.4,59.90534954776281,
AB,Lag5_T1P_T2P,5,P,P,8,13,7,3,16,shrimp,Did you see the shrimp?,0.12,0.016,JPG\,globe,belt02a,sponge01,violin,fork03c,tomato01,clock01a,cocktailshrimp02,balloon01b,scarf,teabag,pen04b,stapler03a,brownsugar,speaker04,screwdriver04b,blankImage,cocktailshrimp02,,,,,,,,,,,,0,54,54,169,,,,,,,,,,,,,,,,,,,,,,,,,,,,,,,,,,,451.32270059999996,452.3234725,452.3069595999998,452.8743059000001,452.8743059000001,None,454.8630899000002,None,right,1.7648340000000644,454.8630899000002,None,456.6445633999999,None,right,0.16727609999998094,456.6445633999999,None,,,,,,,,,,,,,,,,,,,,,,,PPT14,001,2022-06-29_16h26.54.527,ABstudy,2022.1.4,59.90534954776281,
AB,Lag1_T1P_T2P,1,P,P,8,9,7,3,12,Fire hydrant,Did you see the Fire hydrant?,0.12,0.016,JPG\,foosballtable,candy,envelope03a,microscope,pencil01,leaf02a,scissors01,firehydrant,stapler01,dandelion,pineapple01a,hammer01,blankImage,blankImage,blankImage,blankImage,blankImage,firehydrant,,,,,,,,,,,,0,55,55,83,,,,,,,,,,,,,,,,,,,,,,,,,,,,,,,,,,,456.8683738000002,457.8790713000001,457.8623248000001,458.3628080000001,458.3628080000001,None,459.8946665000001,None,left,0.9330826000000343,459.8946665000001,None,460.8487174999998,None,right,0.43572149999999965,460.8487174999998,None,,,,,,,,,,,,,,,,,,,,,,,PPT14,001,2022-06-29_16h26.54.527,ABstudy,2022.1.4,59.90534954776281,
AB,Lag5_T1A_T2A,5,A,A,5,10,4,5,15,truck,Did you see the truck?,0.12,0.016,JPG\,pizza,printer02,medal02b,spoon01,grape01,lighter01,belt02a,watermelon01,celery,battery02b,screw02,comb02a,cauliflower01,lipstick02a,potato02b,blankImage,blankImage,postalmailbox01,,,,,,,,,,,,0,56,56,297,,,,,,,,,,,,,,,,,,,,,,,,,,,,,,,,,,,461.31589259999987,462.31677749999994,462.30017710000016,462.8712158000001,462.8712158000001,None,464.80745869999987,None,left,2.5489164999999048,464.80745869999987,None,467.38844240000003,None,right,0.26367630000004283,467.38844240000003,None,,,,,,,,,,,,,,,,,,,,,,,PPT14,001,2022-06-29_16h26.54.527,ABstudy,2022.1.4,59.90534954776281,
AB,Lag5_T1A_T2A,5,A,A,6,11,5,5,16,shrimp,Did you see the shrimp?,0.12,0.016,JPG\,speaker04,sewingmachine01a,eraser,violin,globe,belt02a,sunglasses04,cymbal,cd,greenolive,alligator,pear01,watch02a,screwdriver04b,banana01,cigarette,blankImage,rollerblade,,,,,,,,,,,,0,57,57,300,,,,,,,,,,,,,,,,,,,,,,,,,,,,,,,,,,,467.6721239000001,468.6731615000001,468.65644240000006,469.2239757,469.2239757,None,471.1578922000001,None,right,0.9498023000001012,471.1578922000001,None,472.12654080000016,None,right,1.7010977999998431,472.12654080000016,None,,,,,,,,,,,,,,,,,,,,,,,PPT14,001,2022-06-29_16h26.54.527,ABstudy,2022.1.4,59.90534954776281,
AB,Lag5_T1A_T2P,5,A,P,7,12,6,3,15,hockey puck,Did you see the hockey puck?,0.12,0.016,JPG\,toiletpaper01a,lipstick02a,potato02b,speaker04,globe,strawberry,carrot01,plate01b,sock01a,candle08b,pen04b,stapler04b,foosballtable,brick,pear01,blankImage,blankImage,frisbee,,,,,,,,,,,,0,58,58,260,,,,,,,,,,,,,,,,,,,,,,,,,,,,,,,,,,,473.8447386999999,474.84592940000016,474.82926139999995,475.3956796,475.3956796,None,477.26396709999995,None,right,2.7644844000001285,477.26396709999995,None,480.05093150000016,None,left,0.5532226999998784,480.05093150000016,None,,,,,,,,,,,,,,,,,,,,,,,PPT14,001,2022-06-29_16h26.54.527,ABstudy,2022.1.4,59.90534954776281,
AB,Lag5_T1P_T2P,5,P,P,7,12,6,3,15,mail box,Did you see the mail box?,0.12,0.016,JPG\,key01,apple07,ring01,leaf02a,hammer01,tableknife02,postalmailbox01,sponge01,baseball01a,thermometer02b,celery,stapler06,grape01,cucumber,tennisball01b,blankImage,blankImage,postalmailbox01,,,,,,,,,,,,0,59,59,113,,,,,,,,,,,,,,,,,,,,,,,,,,,,,,,,,,,480.63510199999996,481.63616209999986,481.61930240000015,482.17535410000005,482.17535410000005,None,484.08144370000014,None,right,3.0500953000000663,484.08144370000014,None,487.15822349999985,None,right,0.31735900000012407,487.15822349999985,None,,,,,,,,,,,,,,,,,,,,,,,PPT14,001,2022-06-29_16h26.54.527,ABstudy,2022.1.4,59.90534954776281,
AB,Lag1_T1P_T2A,1,P,A,8,9,7,4,13,boat,Did you see the boat?,0.12,0.016,JPG\,fork03c,dandelion,dice05a,belt02a,onion,watch02a,key01,boat,eraser,medal02b,greenolive,shirt02,candle08b,blankImage,blankImage,blankImage,blankImage,boat,,,,,,,,,,,,0,60,60,199,,,,,,,,,,,,,,,,,,,,,,,,,,,,,,,,,,,487.50854090000007,488.5095389999999,488.4928203000002,489.04399309999985,489.04399309999985,None,490.652147,None,left,0.7755075999998553,490.652147,None,491.4456775000001,None,right,0.5113690000002862,491.4456775000001,None,,,,,,,,,,,,,,,,,,,,,,,PPT14,001,2022-06-29_16h26.54.527,ABstudy,2022.1.4,59.90534954776281,
AB,Lag1_T1P_T2P,1,P,P,8,9,7,4,13,mattress,Did you see the mattress?,0.12,0.016,JPG\,button01,celery,birthdaycandle,apple07,avocado01,tennisball01b,dice05a,mattress,stapler01,feather03a,tomato01,scarf,orange,blankImage,blankImage,blankImage,blankImage,mattress,,,,,,,,,,,,0,61,61,22,,,,,,,,,,,,,,,,,,,,,,,,,,,,,,,,,,,491.9797295000001,492.98061729999995,492.9640483999999,493.52375959999995,493.52375959999995,None,495.13117780000016,None,left,1.0017153000003418,495.13117780000016,None,496.15009699999996,None,left,0.5582143999999971,496.15009699999996,None,,,,,,,,,,,,,,,,,,,,,,,PPT14,001,2022-06-29_16h26.54.527,ABstudy,2022.1.4,59.90534954776281,
AB,Lag5_T1P_T2P,5,P,P,5,10,4,5,15,scorpion,Did you see the scorpion?,0.12,0.016,JPG\,fan,tomato01,candy,screwdriver04b,scorpion,cd,thermometer02b,apple07,button01,stapler01,brownsugar,lighter01,clock01a,envelope03a,clock04,blankImage,blankImage,scorpion,,,,,,,,,,,,0,62,62,97,,,,,,,,,,,,,,,,,,,,,,,,,,,,,,,,,,,496.7706860999999,497.78547189999995,497.75214359999995,498.3163272999998,498.3163272999998,None,500.1167191000002,None,left,0.8791994000002887,500.1167191000002,None,501.0219288999999,None,right,0.26231189999998605,501.0219288999999,None,,,,,,,,,,,,,,,,,,,,,,,PPT14,001,2022-06-29_16h26.54.527,ABstudy,2022.1.4,59.90534954776281,
AB,Lag5_T1P_T2A,5,P,A,5,10,4,4,14,rocket,Did you see the rocket?,0.12,0.016,JPG\,fan,tomato01,candy,screwdriver04b,spacerocket,cd,thermometer02b,apple07,button01,plate01b,brownsugar,lighter01,clock01a,envelope03a,blankImage,blankImage,blankImage,spacerocket,,,,,,,,,,,,0,63,63,226,,,,,,,,,,,,,,,,,,,,,,,,,,,,,,,,,,,501.3056488,502.30658370000015,502.2901181,502.8562969000002,502.8562969000002,None,504.56425220000006,None,right,1.1437575999998444,504.56425220000006,None,505.72671430000014,None,right,0.29299689999970724,505.72671430000014,None,,,,,,,,,,,,,,,,,,,,,,,PPT14,001,2022-06-29_16h26.54.527,ABstudy,2022.1.4,59.90534954776281,
AB,Lag5_T1P_T2P,5,P,P,5,10,4,5,15,Bee,Did you see the Bee?,0.12,0.016,JPG\,fork03c,dandelion,dice05a,belt02a,honeybee,watch02a,key01,globe,eraser,stapler03a,greenolive,shirt02,candle08b,cigarette,garlic01a,blankImage,blankImage,honeybee,,,,,,,,,,,,0,64,64,149,,,,,,,,,,,,,,,,,,,,,,,,,,,,,,,,,,,506.04365010000015,507.0449102,507.0281616,507.57993379999994,507.57993379999994,None,509.4180752,None,left,0.514827200000127,509.4180752,None,509.9642884000002,None,left,0.24760220000007394,509.9642884000002,None,,,,,,,,,,,,,,,,,,,,,,,PPT14,001,2022-06-29_16h26.54.527,ABstudy,2022.1.4,59.90534954776281,
AB,Lag1_T1A_T2A,1,A,A,5,6,4,3,9,Pigeon,Did you see the Pigeon?,0.12,0.016,JPG\,candle01,paintbrush01,scissors01,fan,microscope,toothbrush03b,candle08b,watermelon01,teabag,blankImage,blankImage,blankImage,blankImage,blankImage,blankImage,blankImage,blankImage,floorlamp,,,,,,,,,,,,0,65,65,286,,,,,,,,,,,,,,,,,,,,,,,,,,,,,,,,,,,510.23121389999983,511.23225549999984,511.2154299000001,511.7692533000002,511.7692533000002,None,512.9229400000002,None,right,0.9614181000001736,512.9229400000002,None,513.9013885000002,None,right,0.18301409999958196,513.9013885000002,None,,,,,,,,,,,,,,,,,,,,,,,PPT14,001,2022-06-29_16h26.54.527,ABstudy,2022.1.4,59.90534954776281,
AB,Lag5_T1P_T2P,5,P,P,7,12,6,4,16,window,Did you see the window?,0.12,0.016,JPG\,cigarette,pig,banana01,strawberry,clock01a,plate01b,dormer,blueberry01,battery02b,pineapple01a,chain01,stapler01,candy,pen04b,teabag,birthdaycandle,blankImage,dormer,,,,,,,,,,,,0,66,66,170,,,,,,,,,,,,,,,,,,,,,,,,,,,,,,,,,,,514.1015120999998,515.1025849999999,515.0859772000001,515.6383374,515.6383374,None,517.5384682000001,None,left,1.0091848000001846,517.5384682000001,None,518.5727135999998,None,right,0.639443300000039,518.5727135999998,None,,,,,,,,,,,,,,,,,,,,,,,PPT14,001,2022-06-29_16h26.54.527,ABstudy,2022.1.4,59.90534954776281,
AB,Lag1_T1P_T2A,1,P,A,7,8,6,4,12,Steering wheel,Did you see the Steering wheel?,0.12,0.016,JPG\,alligator,banana01,apple07,tomato01,button01,spoon01,steeringwheel,fork03c,canoftennisballs,potato02b,grape01,leaf02a,blankImage,blankImage,blankImage,blankImage,blankImage,steeringwheel,,,,,,,,,,,,0,67,67,198,,,,,,,,,,,,,,,,,,,,,,,,,,,,,,,,,,,519.2401839000001,520.2411033000001,520.2244726000001,520.7250433000002,520.7250433000002,None,522.3074496000002,None,right,2.1200974000003043,522.3074496000002,None,524.4453070000002,None,right,0.7665555000003224,524.4453070000002,None,,,,,,,,,,,,,,,,,,,,,,,PPT14,001,2022-06-29_16h26.54.527,ABstudy,2022.1.4,59.90534954776281,
AB,Lag5_T1P_T2A,5,P,A,6,11,5,5,16,hat,Did you see the hat?,0.12,0.016,JPG\,apple07,toiletpaper01a,pizza,dandelion,greenolive,pilgrimhat,microscope,violin,orange,lipstick02a,balloon01b,sandal,lighter01,fan,book01b,sewingmachine01a,blankImage,pilgrimhat,,,,,,,,,,,,0,68,68,206,,,,,,,,,,,,,,,,,,,,,,,,,,,,,,,,,,,525.2295541000001,526.2304215000001,526.2138204,526.7789584,526.7789584,None,528.803353,None,right,1.2001252999998542,528.803353,None,530.0343067000001,None,right,0.41700600000012855,530.0343067000001,None,,,,,,,,,,,,,,,,,,,,,,,PPT14,001,2022-06-29_16h26.54.527,ABstudy,2022.1.4,59.90534954776281,
AB,Lag1_T1P_T2P,1,P,P,8,9,7,5,14,bullet,Did you see the bullet?,0.12,0.016,JPG\,measuringcup01,dice05a,greenolive,lipstick02a,feather03a,balloon01b,lighter01,bullet,stapler04b,plate01b,microscope,brick,thermometer02b,screw02,blankImage,blankImage,blankImage,bullet,,,,,,,,,,,,0,69,69,57,,,,,,,,,,,,,,,,,,,,,,,,,,,,,,,,,,,530.468071,531.4689517999998,531.4522633999998,532.0152860999999,532.0152860999999,None,533.7358660000002,None,left,1.387822199999846,533.7358660000002,None,535.1559346000001,None,left,0.31946289999996225,535.1559346000001,None,,,,,,,,,,,,,,,,,,,,,,,PPT14,001,2022-06-29_16h26.54.527,ABstudy,2022.1.4,59.90534954776281,
AB,Lag5_T1P_T2P,5,P,P,5,10,4,4,14,bell,Did you see the bell?,0.12,0.016,JPG\,teabag,envelope03a,cellphone,apple07,callbell,orange,brownsugar,book01b,hammer01,stapler03b,toaster01,calculator01,globe,battery02b,blankImage,blankImage,blankImage,callbell,,,,,,,,,,,,0,70,70,147,,,,,,,,,,,,,,,,,,,,,,,,,,,,,,,,,,,535.5063851000002,536.5073261,536.4906314000002,537.0512261000001,537.0512261000001,None,538.8414248000001,None,right,3.202987799999846,538.8414248000001,None,542.0629624000001,None,right,0.5246654000002309,542.0629624000001,None,,,,,,,,,,,,,,,,,,,,,,,PPT14,001,2022-06-29_16h26.54.527,ABstudy,2022.1.4,59.90534954776281,
AB,Lag1_T1P_T2P,1,P,P,5,6,4,5,11,Basketball,Did you see the Basketball?,0.12,0.016,JPG\,pencil01,microscope,banana01,computerkeyboard02,basketball01,stapler04b,scissors01,sock01a,book01b,onion,dice05a,blankImage,blankImage,blankImage,blankImage,blankImage,blankImage,basketball01,,,,,,,,,,,,0,71,71,34,,,,,,,,,,,,,,,,,,,,,,,,,,,,,,,,,,,542.6134427999998,543.6143890999999,543.5977762999999,544.1502846000001,544.1502846000001,None,545.5240040000001,None,left,1.1201828999996906,545.5240040000001,None,546.6674492,None,right,1.7764199000002918,546.6674492,None,,,,,,,,,,,,,,,,,,,,,,,PPT14,001,2022-06-29_16h26.54.527,ABstudy,2022.1.4,59.90534954776281,
AB,Lag5_T1P_T2A,5,P,A,6,11,5,4,15,Spear,Did you see the Spear?,0.12,0.016,JPG\,belt02a,measuringcup01,spoon01,chain01,greenolive,spear02,computerkeyboard02,onion,fan,strawberry,candle01,broom01,binoculars01b,ashtray01,pingpongpaddle01c,blankImage,blankImage,spear02,,,,,,,,,,,,0,72,72,227,,,,,,,,,,,,,,,,,,,,,,,,,,,,,,,,,,,548.4692468000001,549.4700841000001,549.4536224999999,550.0102717000002,550.0102717000002,None,551.8509717999998,None,left,0.6097386999999799,551.8509717999998,None,552.4899066,None,left,0.22606190000033166,552.4899066,None,,,,,,,,,,,,,,,,,,,,,,,PPT14,001,2022-06-29_16h26.54.527,ABstudy,2022.1.4,59.90534954776281,
AB,Lag5_T1P_T2A,5,P,A,7,12,6,5,17,corn,Did you see the corn?,0.12,0.016,JPG\,avocado01,pingpongpaddle01c,match,cauliflower01,paintbrush01,clock01a,corn02,cd,balloon01b,cellphone,watch02a,pear01,toaster01,sponge01,orange,blueberry01,blankImage,corn02,,,,,,,,,,,,0,73,73,210,,,,,,,,,,,,,,,,,,,,,,,,,,,,,,,,,,,552.7400553999998,553.7411386000001,553.7246404999999,554.2911855999998,554.2911855999998,None,556.2581899999998,None,left,0.9941815000001952,556.2581899999998,None,557.2781311000001,None,right,0.8453673000003619,557.2781311000001,None,,,,,,,,,,,,,,,,,,,,,,,PPT14,001,2022-06-29_16h26.54.527,ABstudy,2022.1.4,59.90534954776281,
AB,Lag5_T1A_T2P,5,A,P,7,12,6,4,16,flower,Did you see the flower?,0.12,0.016,JPG\,printer02,envelope03a,potato02b,calculator01,tableknife02,cigarette,ashtray01,pig,broom01,greenolive,candle08b,stapler03a,strawberry,candle01,foosballtable,tennisball01b,blankImage,calendar,,,,,,,,,,,,0,74,74,282,,,,,,,,,,,,,,,,,,,,,,,,,,,,,,,,,,,558.1455472999999,559.1465709000001,559.1297661000001,559.6932702000001,559.6932702000001,None,561.6845297000002,None,right,0.8072175000002062,561.6845297000002,None,562.5166381000001,None,right,0.639292899999873,562.5166381000001,None,,,,,,,,,,,,,,,,,,,,,,,PPT14,001,2022-06-29_16h26.54.527,ABstudy,2022.1.4,59.90534954776281,
AB,Lag1_T1P_T2P,1,P,P,6,7,5,3,10,drum sticks,Did you see the drum sticks?,0.12,0.016,JPG\,pineapple01a,tennisball01b,computerkeyboard02,feather03a,belt02a,drumstick,stapler03b,blueberry01,medal02b,alligator,blankImage,blankImage,blankImage,blankImage,blankImage,blankImage,blankImage,drumstick,,,,,,,,,,,,0,75,75,61,,,,,,,,,,,,,,,,,,,,,,,,,,,,,,,,,,,563.1838922,564.1848071000002,564.1682423999998,564.7309695000001,564.7309695000001,None,565.8866698999998,None,left,0.8288099000001239,565.8866698999998,None,566.737378,None,right,0.3702415999996447,566.737378,None,,,,,,,,,,,,,,,,,,,,,,,PPT14,001,2022-06-29_16h26.54.527,ABstudy,2022.1.4,59.90534954776281,
AB,Lag1_T1P_T2P,1,P,P,7,8,6,3,11,tree,Did you see the tree?,0.12,0.016,JPG\,pear01,clock01a,cymbal,match,ashtray01,globe,tree,stapler03b,lemon02,pen04b,dice05a,blankImage,blankImage,blankImage,blankImage,blankImage,blankImage,tree,,,,,,,,,,,,0,76,76,51,,,,,,,,,,,,,,,,,,,,,,,,,,,,,,,,,,,567.1639588,568.1721426000001,568.1555019999998,568.7109947000001,568.7109947000001,None,570.0662903999998,None,left,0.8493085999998584,570.0662903999998,None,570.9416840000001,None,right,0.21489410000003772,570.9416840000001,None,,,,,,,,,,,,,,,,,,,,,,,PPT14,001,2022-06-29_16h26.54.527,ABstudy,2022.1.4,59.90534954776281,
AB,Lag1_T1P_T2P,1,P,P,8,9,7,4,13,dart board,Did you see the dart board?,0.12,0.016,JPG\,rice,watermelon01,tableknife02,scarf,computerkeyboard02,cauliflower01,battery02b,dartboard,stapler01,sandal,sponge01,microscope,tomato01,blankImage,blankImage,blankImage,blankImage,dartboard,,,,,,,,,,,,0,77,77,80,,,,,,,,,,,,,,,,,,,,,,,,,,,,,,,,,,,571.1751861,572.1762224000001,572.1592613999999,572.7202915999999,572.7202915999999,None,574.3686985000002,None,left,0.7323402000001806,574.3686985000002,None,575.1291082999999,None,right,0.20259649999979956,575.1291082999999,None,,,,,,,,,,,,,,,,,,,,,,,PPT14,001,2022-06-29_16h26.54.527,ABstudy,2022.1.4,59.90534954776281,
AB,Lag1_T1P_T2P,1,P,P,5,6,4,5,11,owl,Did you see the owl?,0.12,0.016,JPG\,cellphone,tomato01,comb02a,candy,barnowl,stapler03a,toaster01,fan,feather03a,pen04b,lemon02,blankImage,blankImage,blankImage,blankImage,blankImage,blankImage,barnowl,,,,,,,,,,,,0,78,78,33,,,,,,,,,,,,,,,,,,,,,,,,,,,,,,,,,,,575.362785,576.3637489,576.3470233,576.9050617999999,576.9050617999999,None,578.2439434999999,None,left,0.9514036000000488,578.2439434999999,None,579.2164973000001,None,right,0.14705590000039592,579.2164973000001,None,,,,,,,,,,,,,,,,,,,,,,,PPT14,001,2022-06-29_16h26.54.527,ABstudy,2022.1.4,59.90534954776281,
AB,Lag1_T1A_T2P,1,A,P,8,9,7,4,13,Christmas tree,Did you see the Christmas tree?,0.12,0.016,JPG\,broom01,globe,cellphone,tableknife02,cauliflower01,scissors01,ring01,alligator,stapler03a,toaster01,cigarette,grape01,microscope,blankImage,blankImage,blankImage,blankImage,windmill,,,,,,,,,,,,0,79,79,247,,,,,,,,,,,,,,,,,,,,,,,,,,,,,,,,,,,579.3835271,580.3844400999999,580.3676917,580.9200440000002,580.9200440000002,None,582.5551644999998,None,right,1.2724037000002681,582.5551644999998,None,583.8544967,None,right,0.5089044000001195,583.8544967,None,,,,,,,,,,,,,,,,,,,,,,,PPT14,001,2022-06-29_16h26.54.527,ABstudy,2022.1.4,59.90534954776281,
AB,Lag1_T1P_T2P,1,P,P,6,7,5,3,10,handcuffs,Did you see the handcuffs?,0.12,0.016,JPG\,sewingmachine01a,scarf,carrot01,book01b,eraser,handcuffs,stapler05,lipstick02a,printer02,garlic01a,blankImage,blankImage,blankImage,blankImage,blankImage,blankImage,blankImage,handcuffs,,,,,,,,,,,,0,80,80,2,,,,,,,,,,,,,,,,,,,,,,,,,,,,,,,,,,,584.3884132999999,585.3892653,585.3727594,585.9385255,585.9385255,None,587.2052216,None,right,1.4225070000002233,587.2052216,None,588.6593925999998,None,right,0.9120158000000629,588.6593925999998,None,,,,,,,,,,,,,,,,,,,,,,,PPT14,001,2022-06-29_16h26.54.527,ABstudy,2022.1.4,59.90534954776281,
AB,Lag5_T1P_T2P,5,P,P,8,13,7,5,18,sock,Did you see the sock?,0.12,0.016,JPG\,thermometer02b,avocado01,scissors01,tennisball01b,medal02b,banana01,strawberry,athleticsock,potato02b,pineapple01a,microscope,cymbal,stapler03b,celery,garlic01a,sunglasses04,blankImage,athleticsock,,,,,,,,,,,,0,81,81,141,,,,,,,,,,,,,,,,,,,,,,,,,,,,,,,,,,,589.5935406000001,590.5944889,590.5779584999998,591.1356288,591.1356288,None,593.0985572000002,None,right,0.9214202000002842,593.0985572000002,None,594.0480925999998,None,right,0.2994581000002654,594.0480925999998,None,,,,,,,,,,,,,,,,,,,,,,,PPT14,001,2022-06-29_16h26.54.527,ABstudy,2022.1.4,59.90534954776281,
AB,Lag1_T1P_T2P,1,P,P,6,7,5,5,12,bat,Did you see the bat?,0.12,0.016,JPG\,comb02a,key01,medal02b,battery02b,lighter01,bat,stapler05,sandal,pig,cellphone,computerkeyboard02,calculator01,blankImage,blankImage,blankImage,blankImage,blankImage,bat,,,,,,,,,,,,0,82,82,35,,,,,,,,,,,,,,,,,,,,,,,,,,,,,,,,,,,594.3653363000001,595.3659295999998,595.3492445999998,595.9031825,595.9031825,None,597.3861807000001,None,right,1.2890446999999767,597.3861807000001,None,598.7026398999999,None,left,0.3890049999999974,598.7026398999999,None,,,,,,,,,,,,,,,,,,,,,,,PPT14,001,2022-06-29_16h26.54.527,ABstudy,2022.1.4,59.90534954776281,
AB,Lag1_T1A_T2P,1,A,P,5,6,4,3,9,Stool,Did you see the Stool?,0.12,0.016,JPG\,cherry01,cymbal,envelope03a,foosballtable,shirt02,stapler01,sewingmachine01a,candle08b,battery02b,blankImage,blankImage,blankImage,blankImage,blankImage,blankImage,blankImage,blankImage,hulahoop,,,,,,,,,,,,0,83,83,236,,,,,,,,,,,,,,,,,,,,,,,,,,,,,,,,,,,599.1196379999999,600.1206187,600.1040888999999,600.6615313,600.6615313,None,601.7689254,None,left,1.483547599999838,601.7689254,None,603.2739482999998,None,left,0.4177415000003748,603.2739482999998,None,,,,,,,,,,,,,,,,,,,,,,,PPT14,001,2022-06-29_16h26.54.527,ABstudy,2022.1.4,59.90534954776281,
AB,Lag5_T1P_T2P,5,P,P,6,11,5,4,15,fish,Did you see the fish?,0.12,0.016,JPG\,sock01a,spoon01,alligator,comb02a,printer02,rockbass,lamp04a,cymbal,greenolive,computerkeyboard02,stapler03a,scarf,teabag,watermelon01,battery02b,blankImage,blankImage,rockbass,,,,,,,,,,,,0,84,84,115,,,,,,,,,,,,,,,,,,,,,,,,,,,,,,,,,,,603.7241351999999,604.7254095999999,604.7084639000002,605.2716747000002,605.2716747000002,None,607.1244561999999,None,left,0.7590167000003021,607.1244561999999,None,607.9117216000002,None,left,0.28435310000031677,607.9117216000002,None,,,,,,,,,,,,,,,,,,,,,,,PPT14,001,2022-06-29_16h26.54.527,ABstudy,2022.1.4,59.90534954776281,
AB,Lag5_T1A_T2A,5,A,A,5,10,4,4,14,music sheet,Did you see the music sheet?,0.12,0.016,JPG\,celery,pencil01,fan,foosballtable,iron01b,shirt02,potato02b,fork03c,button01,pineapple01a,baseball01a,printer02,cauliflower01,dandelion,blankImage,blankImage,blankImage,licenseplate,,,,,,,,,,,,0,85,85,304,,,,,,,,,,,,,,,,,,,,,,,,,,,,,,,,,,,608.2631328,609.2631520000002,609.2463412,609.8045897999998,609.8045897999998,None,611.4152701999999,None,right,0.8844506000000365,611.4152701999999,None,612.3161751999999,None,left,0.33563879999974233,612.3161751999999,None,,,,,,,,,,,,,,,,,,,,,,,PPT14,001,2022-06-29_16h26.54.527,ABstudy,2022.1.4,59.90534954776281,
AB,Lag1_T1A_T2A,1,A,A,7,8,6,5,13,Poker chips,Did you see the Poker chips?,0.12,0.016,JPG\,violin,pizza,toothbrush03b,pineapple01a,banana01,ashtray01,candy,dandelion,clock04,sock01a,microscope,speaker04,calculator01,blankImage,blankImage,blankImage,blankImage,cigar,,,,,,,,,,,,0,86,86,289,,,,,,,,,,,,,,,,,,,,,,,,,,,,,,,,,,,612.6830593000002,613.6842027,613.6675665,614.2278850999999,614.2278850999999,None,615.9061644999999,None,right,1.1453523999998652,615.9061644999999,None,617.0709362999999,None,right,0.5325849999999264,617.0709362999999,None,,,,,,,,,,,,,,,,,,,,,,,PPT14,001,2022-06-29_16h26.54.527,ABstudy,2022.1.4,59.90534954776281,
AB,Lag1_T1A_T2P,1,A,P,8,9,7,5,14,calendar,Did you see the calendar?,0.12,0.016,JPG\,foosballtable,candy,envelope03a,microscope,pencil01,leaf02a,scissors01,watermelon01,stapler04b,dandelion,pineapple01a,hammer01,celery,thermometer02b,blankImage,blankImage,blankImage,trampoline,,,,,,,,,,,,0,87,87,245,,,,,,,,,,,,,,,,,,,,,,,,,,,,,,,,,,,617.6215126999998,618.6224799999998,618.6057137,619.1063627000001,619.1063627000001,None,620.9062332999999,None,right,0.8807133999998769,620.9062332999999,None,621.8089416999999,None,left,0.5546739999999772,621.8089416999999,None,,,,,,,,,,,,,,,,,,,,,,,PPT14,001,2022-06-29_16h26.54.527,ABstudy,2022.1.4,59.90534954776281,
AB,Lag1_T1P_T2A,1,P,A,7,8,6,5,13,Well,Did you see the Well?,0.12,0.016,JPG\,leaf02a,apple07,cd,pineapple01a,envelope03a,paintbrush01,well,acorn,rice,feather03a,lemon02,balloon01b,avocado01,blankImage,blankImage,blankImage,blankImage,well,,,,,,,,,,,,0,88,88,178,,,,,,,,,,,,,,,,,,,,,,,,,,,,,,,,,,,622.3929489999998,623.3938384999999,623.3770774000002,623.9349294000001,623.9349294000001,None,625.5238001999999,None,left,2.7840596000000915,625.5238001999999,None,628.3319478999999,None,left,2.199215699999968,628.3319478999999,None,,,,,,,,,,,,,,,,,,,,,,,PPT14,001,2022-06-29_16h26.54.527,ABstudy,2022.1.4,59.90534954776281,
AB,Lag5_T1A_T2A,5,A,A,6,11,5,3,14,mirror,Did you see the mirror?,0.12,0.016,JPG\,foosballtable,candy,envelope03a,microscope,pencil01,leaf02a,scissors01,watermelon01,grape01,dandelion,pineapple01a,hammer01,celery,thermometer02b,blankImage,blankImage,blankImage,shower,,,,,,,,,,,,0,89,89,305,,,,,,,,,,,,,,,,,,,,,,,,,,,,,,,,,,,630.5509503999999,631.5518445999999,631.5351217999998,632.0356417999999,632.0356417999999,None,633.8256709,None,right,0.9294510999998238,633.8256709,None,634.7719152000002,None,right,0.8638882999998714,634.7719152000002,None,,,,,,,,,,,,,,,,,,,,,,,PPT14,001,2022-06-29_16h26.54.527,ABstudy,2022.1.4,59.90534954776281,
AB,Lag1_T1A_T2P,1,A,P,6,7,5,5,12,Piano,Did you see the Piano?,0.12,0.016,JPG\,toiletpaper01a,mushroom01,medal02b,sandal,rice,cd,stapler01,pizza,candle08b,garlic01a,toaster01,belt02a,blankImage,blankImage,blankImage,blankImage,blankImage,moose,,,,,,,,,,,,0,90,90,239,,,,,,,,,,,,,,,,,,,,,,,,,,,,,,,,,,,635.6874648999999,636.6903519,636.6737409,637.2371463000002,637.2371463000002,None,638.7004553999998,None,right,3.9589999000004354,638.7004553999998,None,642.6796661000001,None,right,0.8357353999999759,642.6796661000001,None,,,,,,,,,,,,,,,,,,,,,,,PPT14,001,2022-06-29_16h26.54.527,ABstudy,2022.1.4,59.90534954776281,
AB,Lag5_T1P_T2P,5,P,P,8,13,7,5,18,hand,Did you see the hand?,0.12,0.016,JPG\,foosballtable,candy,envelope03a,microscope,pencil01,leaf02a,scissors01,hand01b,grape01,dandelion,pineapple01a,hammer01,stapler03a,thermometer02b,ring01,sewingmachine01a,blankImage,hand01b,,,,,,,,,,,,0,91,91,131,,,,,,,,,,,,,,,,,,,,,,,,,,,,,,,,,,,643.5473325,644.5482638000001,644.5316123,645.0320923000002,645.0320923000002,None,647.0521529,None,left,0.9607187000001431,647.0521529,None,648.0350670999999,None,right,2.7843634999999267,648.0350670999999,None,,,,,,,,,,,,,,,,,,,,,,,PPT14,001,2022-06-29_16h26.54.527,ABstudy,2022.1.4,59.90534954776281,
AB,Lag1_T1P_T2A,1,P,A,7,8,6,3,11,Armadillo,Did you see the Armadillo?,0.12,0.016,JPG\,clock01a,cellphone,toaster01,toothbrush03b,cauliflower01,microscope,armadillo,paintbrush01,scarf,clock04,sponge01,blankImage,blankImage,blankImage,blankImage,blankImage,blankImage,armadillo,,,,,,,,,,,,0,92,92,180,,,,,,,,,,,,,,,,,,,,,,,,,,,,,,,,,,,650.8379099000001,651.8388696999998,651.8221922999999,652.3827250000002,652.3827250000002,None,653.8068878000001,None,left,0.7963484000001699,653.8068878000001,None,654.6249424,None,right,1.018662200000108,654.6249424,None,,,,,,,,,,,,,,,,,,,,,,,PPT14,001,2022-06-29_16h26.54.527,ABstudy,2022.1.4,59.90534954776281,
AB,Lag1_T1P_T2P,1,P,P,8,9,7,3,12,Eiffel tower,Did you see the Eiffel tower?,0.12,0.016,JPG\,celery,tennisball01b,calculator01,pear01,screw02,orange,button01,eiffeltower,stapler03b,apple07,iron01b,brownsugar,blankImage,blankImage,blankImage,blankImage,blankImage,eiffeltower,,,,,,,,,,,,0,93,93,40,,,,,,,,,,,,,,,,,,,,,,,,,,,,,,,,,,,655.6759728999998,656.6769050999999,656.6603388999999,657.2202457000001,657.2202457000001,None,658.6288344000002,None,left,0.7507660000001124,658.6288344000002,None,659.3963686999998,None,right,0.5751516999998785,659.3963686999998,None,,,,,,,,,,,,,,,,,,,,,,,PPT14,001,2022-06-29_16h26.54.527,ABstudy,2022.1.4,59.90534954776281,
AB,Lag5_T1P_T2A,5,P,A,7,12,6,5,17,flower,Did you see the flower?,0.12,0.016,JPG\,cellphone,tomato01,comb02a,candy,celery,cucumber,craneflower,fan,feather03a,pen04b,lemon02,blueberry01,plate01b,cherry01,baseball01a,candle08b,blankImage,craneflower,,,,,,,,,,,,0,94,94,211,,,,,,,,,,,,,,,,,,,,,,,,,,,,,,,,,,,659.9970789000001,660.9978362999998,660.9812973999999,661.5365607000001,661.5365607000001,None,663.4857076000001,None,right,0.9333677999998145,663.4857076000001,None,664.4512711999998,None,right,0.68778280000015,664.4512711999998,None,,,,,,,,,,,,,,,,,,,,,,,PPT14,001,2022-06-29_16h26.54.527,ABstudy,2022.1.4,59.90534954776281,
AB,Lag1_T1A_T2P,1,A,P,6,7,5,3,10,curtain,Did you see the curtain?,0.12,0.016,JPG\,carrot01,greenolive,fork03c,chain01,ashtray01,watermelon01,stapler06,printer02,comb02a,toaster01,blankImage,blankImage,blankImage,blankImage,blankImage,blankImage,blankImage,birdhouse,,,,,,,,,,,,0,95,95,249,,,,,,,,,,,,,,,,,,,,,,,,,,,,,,,,,,,665.1688323999999,666.1695705,666.1530065999998,666.7096491,666.7096491,None,667.9790470999999,None,right,0.999921699999959,667.9790470999999,None,669.0059171999999,None,right,1.062264900000173,669.0059171999999,None,,,,,,,,,,,,,,,,,,,,,,,PPT14,001,2022-06-29_16h26.54.527,ABstudy,2022.1.4,59.90534954776281,
AB,Lag5_T1P_T2A,5,P,A,5,10,4,3,13,pin,Did you see the pin?,0.12,0.016,JPG\,candle01,fork03c,plate01b,violin,pin,candy,calculator01,paintbrush01,cherry01,sock01a,teabag,banana01,cd,blankImage,blankImage,blankImage,blankImage,pin,,,,,,,,,,,,0,96,96,215,,,,,,,,,,,,,,,,,,,,,,,,,,,,,,,,,,,670.0902497,671.0913284999999,671.0746649999999,671.6217817999998,671.6217817999998,None,673.259123,None,right,0.6324158000002171,673.259123,None,673.9107267000002,None,right,1.5086365999995905,673.9107267000002,None,,,,,,,,,,,,,,,,,,,,,,,PPT14,001,2022-06-29_16h26.54.527,ABstudy,2022.1.4,59.90534954776281,
AB,Lag5_T1P_T2P,5,P,P,5,10,4,4,14,Christmas lights,Did you see the Christmas lights?,0.12,0.016,JPG\,binoculars01b,cymbal,pizza,candy,christmaslights,sponge01,grape01,thermometer02b,speaker04,stapler03a,lipstick02a,strawberry,candle01,tambourine02,blankImage,blankImage,blankImage,christmaslights,,,,,,,,,,,,0,97,97,168,,,,,,,,,,,,,,,,,,,,,,,,,,,,,,,,,,,675.4455770000002,676.4467133,676.4299228000002,676.9945012999999,676.9945012999999,None,678.7298245,None,left,0.8586471999997229,678.7298245,None,679.616401,None,right,0.7232795999998416,679.616401,None,,,,,,,,,,,,,,,,,,,,,,,PPT14,001,2022-06-29_16h26.54.527,ABstudy,2022.1.4,59.90534954776281,
AB,Lag5_T1P_T2P,5,P,P,8,13,7,5,18,spice rack,Did you see the spice rack?,0.12,0.016,JPG\,lamp04a,broccoli01a,alligator,garlic01a,dandelion,brownsugar,avocado01,spicerack,leaf02a,cellphone,medal02b,cd,stapler05,sunglasses04,strawberry,eraser,blankImage,spicerack,,,,,,,,,,,,0,98,98,140,,,,,,,,,,,,,,,,,,,,,,,,,,,,,,,,,,,680.3673611000002,681.3681988000001,681.3514204,681.9047167000001,681.9047167000001,None,683.9449542999998,None,left,0.4827122000001509,683.9449542999998,None,684.4546754,None,right,1.076915199999803,684.4546754,None,,,,,,,,,,,,,,,,,,,,,,,PPT14,001,2022-06-29_16h26.54.527,ABstudy,2022.1.4,59.90534954776281,
AB,Lag5_T1P_T2P,5,P,P,5,10,4,4,14,License Plate,Did you see the License Plate?,0.12,0.016,JPG\,toaster01,chain01,sponge01,baseball01a,licenseplate,belt02a,book01b,iron01b,grape01,stapler06,celery,onion,mushroom01,toothbrush03b,blankImage,blankImage,blankImage,licenseplate,,,,,,,,,,,,0,99,99,120,,,,,,,,,,,,,,,,,,,,,,,,,,,,,,,,,,,685.5556258999998,686.5567219000002,686.5401447000002,687.1052397999999,687.1052397999999,None,688.8250098000001,None,left,0.9140081000000464,688.8250098000001,None,689.7598933000002,None,right,0.8510823999999957,689.7598933000002,None,,,,,,,,,,,,,,,,,,,,,,,PPT14,001,2022-06-29_16h26.54.527,ABstudy,2022.1.4,59.90534954776281,
AB,Lag1_T1P_T2A,1,P,A,6,7,5,4,11,Road,Did you see the Road?,0.12,0.016,JPG\,pizza,printer02,medal02b,spoon01,grape01,road02,belt02a,watermelon01,celery,battery02b,screw02,blankImage,blankImage,blankImage,blankImage,blankImage,blankImage,road02,,,,,,,,,,,,0,100,100,174,,,,,,,,,,,,,,,,,,,,,,,,,,,,,,,,,,,690.6441295000002,691.6451534999999,691.628352,692.2008271000002,692.2008271000002,None,693.6143109000002,None,right,0.8525279999998929,693.6143109000002,None,694.4979378999999,None,right,0.9621882000001278,694.4979378999999,None,,,,,,,,,,,,,,,,,,,,,,,PPT14,001,2022-06-29_16h26.54.527,ABstudy,2022.1.4,59.90534954776281,
AB,Lag5_T1P_T2P,5,P,P,8,13,7,4,17,cruise ship,Did you see the cruise ship?,0.12,0.016,JPG\,measuringcup01,dice05a,greenolive,lipstick02a,feather03a,balloon01b,lighter01,cruiseship,carrot01,plate01b,microscope,brick,stapler05,screw02,speaker04,spoon01,blankImage,cruiseship,,,,,,,,,,,,0,101,101,105,,,,,,,,,,,,,,,,,,,,,,,,,,,,,,,,,,,695.4821574,696.4833169000001,696.4665868,697.0271371000001,697.0271371000001,None,698.9647889999999,None,left,0.8625892000000022,698.9647889999999,None,699.8532778000001,None,right,0.69383229999994,699.8532778000001,None,,,,,,,,,,,,,,,,,,,,,,,PPT14,001,2022-06-29_16h26.54.527,ABstudy,2022.1.4,59.90534954776281,
AB,Lag1_T1A_T2P,1,A,P,7,8,6,5,13,Ant,Did you see the Ant?,0.12,0.016,JPG\,rice,watermelon01,tableknife02,scarf,computerkeyboard02,cauliflower01,battery02b,stapler03b,book01b,sandal,sponge01,microscope,tomato01,blankImage,blankImage,blankImage,blankImage,sandcastle,,,,,,,,,,,,0,102,102,242,,,,,,,,,,,,,,,,,,,,,,,,,,,,,,,,,,,700.5708261000002,701.5716580000001,701.5550430999999,702.1107275000002,702.1107275000002,None,703.7190982999998,None,right,0.8681131999996978,703.7190982999998,None,704.6081135000002,None,right,0.5313616000003094,704.6081135000002,None,,,,,,,,,,,,,,,,,,,,,,,PPT14,001,2022-06-29_16h26.54.527,ABstudy,2022.1.4,59.90534954776281,
AB,Lag5_T1P_T2P,5,P,P,6,11,5,4,15,boxing glove,Did you see the boxing glove?,0.12,0.016,JPG\,button01,celery,birthdaycandle,apple07,avocado01,boxingglove01,dice05a,teabag,clock01a,feather03a,stapler06,scarf,orange,battery02b,thermometer02b,blankImage,blankImage,boxingglove01,,,,,,,,,,,,0,103,103,165,,,,,,,,,,,,,,,,,,,,,,,,,,,,,,,,,,,705.1586003999998,706.1595872,706.1428532000002,706.7011546000001,706.7011546000001,None,708.5229243000001,None,left,1.5687112000000525,708.5229243000001,None,710.1136113999999,None,right,1.4901428000002852,710.1136113999999,None,,,,,,,,,,,,,,,,,,,,,,,PPT14,001,2022-06-29_16h26.54.527,ABstudy,2022.1.4,59.90534954776281,
AB,Lag5_T1A_T2A,5,A,A,5,10,4,5,15,flower,Did you see the flower?,0.12,0.016,JPG\,clock01a,cellphone,toaster01,toothbrush03b,cauliflower01,microscope,comb02a,paintbrush01,scarf,clock04,sponge01,iron01b,watch02a,celery,ring01,blankImage,blankImage,stepladder,,,,,,,,,,,,0,104,104,303,,,,,,,,,,,,,,,,,,,,,,,,,,,,,,,,,,,711.6553901,712.6660399999998,712.6494334000001,713.2085282,713.2085282,None,715.0051900999999,None,right,0.7414889000001494,715.0051900999999,None,715.7692330000002,None,right,0.3136347999998179,715.7692330000002,None,,,,,,,,,,,,,,,,,,,,,,,PPT14,001,2022-06-29_16h26.54.527,ABstudy,2022.1.4,59.90534954776281,
AB,Lag1_T1P_T2P,1,P,P,5,6,4,3,9,hockey stick,Did you see the hockey stick?,0.12,0.016,JPG\,violin,pizza,toothbrush03b,pineapple01a,hockeystick,stapler03b,candy,dandelion,clock04,blankImage,blankImage,blankImage,blankImage,blankImage,blankImage,blankImage,blankImage,hockeystick,,,,,,,,,,,,0,105,105,63,,,,,,,,,,,,,,,,,,,,,,,,,,,,,,,,,,,716.1027925999999,717.1037242,717.0871734,717.6445658999999,717.6445658999999,None,718.8557363000002,None,left,0.9728946999998698,718.8557363000002,None,719.8564408999998,None,right,1.986331799999789,719.8564408999998,None,,,,,,,,,,,,,,,,,,,,,,,PPT14,001,2022-06-29_16h26.54.527,ABstudy,2022.1.4,59.90534954776281,
AB,Lag1_T1P_T2P,1,P,P,6,7,5,4,11,bowling pin,Did you see the bowling pin?,0.12,0.016,JPG\,strawberry,leaf02a,clock04,candle01,avocado01,bowlingpin,stapler03a,brownsugar,ring01,lemon02,fork03c,blankImage,blankImage,blankImage,blankImage,blankImage,blankImage,bowlingpin,,,,,,,,,,,,0,106,106,8,,,,,,,,,,,,,,,,,,,,,,,,,,,,,,,,,,,721.8752112,722.876199,722.8593841999998,723.4212479,723.4212479,None,724.7594323000001,None,left,0.8437015000004067,724.7594323000001,None,725.6289552000001,None,right,0.5267843999999968,725.6289552000001,None,,,,,,,,,,,,,,,,,,,,,,,PPT14,001,2022-06-29_16h26.54.527,ABstudy,2022.1.4,59.90534954776281,
AB,Lag5_T1P_T2P,5,P,P,8,13,7,5,18,skis,Did you see the skis?,0.12,0.016,JPG\,tennisball01b,paintbrush01,medal02b,apple07,speaker04,iron01b,avocado01,downhillski,belt02a,toiletpaper01a,watermelon01,candle01,stapler01,cymbal,ashtray01,screwdriver04b,blankImage,downhillski,,,,,,,,,,,,0,107,107,106,,,,,,,,,,,,,,,,,,,,,,,,,,,,,,,,,,,726.1795410000002,727.1805892,727.1637727,727.7287405,727.7287405,None,729.6520563000001,None,left,0.8387928000001921,729.6520563000001,None,730.5171802000002,None,right,0.26977099999976417,730.5171802000002,None,,,,,,,,,,,,,,,,,,,,,,,PPT14,001,2022-06-29_16h26.54.527,ABstudy,2022.1.4,59.90534954776281,
AB,Lag5_T1P_T2P,5,P,P,6,11,5,4,15,shovel,Did you see the shovel?,0.12,0.016,JPG\,carrot01,watch02a,clock04,microscope,toiletpaper01a,shovel01,alligator,ring01,brick,watermelon01,stapler03b,pencil01,measuringcup01,balloon01b,computerkeyboard02,blankImage,blankImage,shovel01,,,,,,,,,,,,0,108,108,139,,,,,,,,,,,,,,,,,,,,,,,,,,,,,,,,,,,730.8175634000002,731.8183707000001,731.8018774,732.3556617000002,732.3556617000002,None,734.2126440999998,None,right,0.9352189999999609,734.2126440999998,None,735.1718804999998,None,left,0.3909708999999566,735.1718804999998,None,,,,,,,,,,,,,,,,,,,,,,,PPT14,001,2022-06-29_16h26.54.527,ABstudy,2022.1.4,59.90534954776281,
AB,Lag5_T1A_T2A,5,A,A,7,12,6,4,16,boxing glove,Did you see the boxing glove?,0.12,0.016,JPG\,cherry01,cymbal,envelope03a,foosballtable,shirt02,cellphone,sewingmachine01a,candle08b,battery02b,apple07,pencil01,screwdriver04b,strawberry,sunglasses04,feather03a,rice,blankImage,lollipop04,,,,,,,,,,,,0,109,109,296,,,,,,,,,,,,,,,,,,,,,,,,,,,,,,,,,,,735.6185202999998,736.623327,736.6065096,737.1638475000002,737.1638475000002,None,739.1191477,None,right,0.9803650000003472,739.1191477,None,740.1265795000002,None,right,0.3411341999999422,740.1265795000002,None,,,,,,,,,,,,,,,,,,,,,,,PPT14,001,2022-06-29_16h26.54.527,ABstudy,2022.1.4,59.90534954776281,
AB,Lag1_T1P_T2P,1,P,P,7,8,6,3,11,locker,Did you see the locker?,0.12,0.016,JPG\,toiletpaper01a,lipstick02a,potato02b,speaker04,globe,strawberry,locker,stapler04b,sock01a,candle08b,pen04b,blankImage,blankImage,blankImage,blankImage,blankImage,blankImage,locker,,,,,,,,,,,,0,110,110,19,,,,,,,,,,,,,,,,,,,,,,,,,,,,,,,,,,,740.4938088000001,741.4949792999998,741.4780165999998,742.0426319999999,742.0426319999999,None,743.4707651000001,None,right,1.436984300000404,743.4707651000001,None,744.9315190999998,None,left,0.4478951999999481,744.9315190999998,None,,,,,,,,,,,,,,,,,,,,,,,PPT14,001,2022-06-29_16h26.54.527,ABstudy,2022.1.4,59.90534954776281,
AB,Lag1_T1P_T2P,1,P,P,8,9,7,3,12,snow globe,Did you see the Snow globe?,0.12,0.016,JPG\,eraser,measuringcup01,chain01,birthdaycandle,ring01,rice,8ball,stapler04b,stapler01,celery,microscope,sunglasses04,blankImage,blankImage,blankImage,blankImage,blankImage,snowglobe,,,,,,,,,,,,0,111,111,56,,,,,,,,,,,,,,,,,,,,,,,,,,,,,,,,,,,745.3984552999998,746.3996657999999,746.3830372999998,746.9421768,746.9421768,None,748.4609281,None,right,1.718350300000111,748.4609281,None,750.2033889000002,None,right,1.7591386000003695,750.2033889000002,None,,,,,,,,,,,,,,,,,,,,,,,PPT14,001,2022-06-29_16h26.54.527,ABstudy,2022.1.4,59.90534954776281,
AB,Lag5_T1P_T2A,5,P,A,8,13,7,3,16,leaf blower,Did you see the leaf blower?,0.12,0.016,JPG\,printer02,leaf02a,cauliflower01,sock01a,brownsugar,paintbrush01,pig,leafblower01,belt02a,shirt02,key01,match,cigarette,scissors01,envelope03a,blueberry01,blankImage,leafblower01,,,,,,,,,,,,0,112,112,216,,,,,,,,,,,,,,,,,,,,,,,,,,,,,,,,,,,751.9884829,752.9895392000001,752.9729215999998,753.5385066000001,753.5385066000001,None,755.5188658999998,None,right,2.124253899999985,755.5188658999998,None,757.6608463,None,right,0.7742115999999442,757.6608463,None,,,,,,,,,,,,,,,,,,,,,,,PPT14,001,2022-06-29_16h26.54.527,ABstudy,2022.1.4,59.90534954776281,
AB,Lag1_T1A_T2A,1,A,A,8,9,7,5,14,Ping pong Table,Did you see the Ping pong Table?,0.12,0.016,JPG\,pineapple01a,tennisball01b,computerkeyboard02,feather03a,belt02a,acorn,violin,blueberry01,medal02b,alligator,greenolive,screwdriver04b,potato02b,fork03c,blankImage,blankImage,blankImage,statue,,,,,,,,,,,,0,113,113,287,,,,,,,,,,,,,,,,,,,,,,,,,,,,,,,,,,,758.4616985999999,759.4625407000001,759.4459295999998,760.0080503000001,760.0080503000001,None,761.7305915,None,right,1.064931400000205,761.7305915,None,762.8161031000002,None,right,0.4029430999999022,762.8161031000002,None,,,,,,,,,,,,,,,,,,,,,,,PPT14,001,2022-06-29_16h26.54.527,ABstudy,2022.1.4,59.90534954776281,
AB,Lag5_T1P_T2P,5,P,P,5,10,4,3,13,bathtub,Did you see the bathtub?,0.12,0.016,JPG\,belt02a,sunglasses04,computerkeyboard02,cherry01,bathtub,eraser,watch02a,dice05a,blueberry01,stapler04b,match,leaf02a,iron01b,blankImage,blankImage,blankImage,blankImage,bathtub,,,,,,,,,,,,0,114,114,103,,,,,,,,,,,,,,,,,,,,,,,,,,,,,,,,,,,763.2900247999999,764.3008364,764.2841753,764.8397825999998,764.8397825999998,None,766.4391968000002,None,right,0.7316341999999167,766.4391968000002,None,767.2037947000001,None,right,2.1363187000001744,767.2037947000001,None,,,,,,,,,,,,,,,,,,,,,,,PPT14,001,2022-06-29_16h26.54.527,ABstudy,2022.1.4,59.90534954776281,
AB,Lag1_T1P_T2A,1,P,A,7,8,6,3,11,fish,Did you see the fish?,0.12,0.016,JPG\,rice,watermelon01,tableknife02,scarf,computerkeyboard02,cauliflower01,salmon,binoculars01b,book01b,sandal,sponge01,blankImage,blankImage,blankImage,blankImage,blankImage,blankImage,salmon,,,,,,,,,,,,0,115,115,179,,,,,,,,,,,,,,,,,,,,,,,,,,,,,,,,,,,769.3723725000002,770.3734271000001,770.3566609000002,770.9147074999998,770.9147074999998,None,772.3170336999999,None,right,0.7186492000000726,772.3170336999999,None,773.0594451999998,None,right,0.3838386000002174,773.0594451999998,None,,,,,,,,,,,,,,,,,,,,,,,PPT14,001,2022-06-29_16h26.54.527,ABstudy,2022.1.4,59.90534954776281,
AB,Lag1_T1P_T2P,1,P,P,6,7,5,5,12,owl,Did you see the owl?,0.12,0.016,JPG\,paintbrush01,eraser,medal02b,hammer01,speaker04,greathornowl,stapler01,comb02a,plate01b,clock01a,button01,globe,blankImage,blankImage,blankImage,blankImage,blankImage,greathornowl,,,,,,,,,,,,0,116,116,1,,,,,,,,,,,,,,,,,,,,,,,,,,,,,,,,,,,773.5053693000002,774.5110050999999,774.4775897000002,775.0283366000001,775.0283366000001,None,776.5278021000001,None,left,0.8112974000000577,776.5278021000001,None,777.3636451,None,right,0.4791039000001547,777.3636451,None,,,,,,,,,,,,,,,,,,,,,,,PPT14,001,2022-06-29_16h26.54.527,ABstudy,2022.1.4,59.90534954776281,
AB,Lag1_T1A_T2P,1,A,P,6,7,5,5,12,Ostrich,Did you see the Ostrich?,0.12,0.016,JPG\,thermometer02b,candle08b,comb02a,toothbrush03b,brick,computerkeyboard02,stapler05,pineapple01a,candy,birthdaycandle,clock04,hairclip03,blankImage,blankImage,blankImage,blankImage,blankImage,discoball,,,,,,,,,,,,0,117,117,232,,,,,,,,,,,,,,,,,,,,,,,,,,,,,,,,,,,777.8642607999998,778.8653071000001,778.8485945,779.4040748999998,779.4040748999998,None,780.9193177999998,None,right,1.0833394000001135,780.9193177999998,None,782.034977,None,right,1.6082628999997723,782.034977,None,,,,,,,,,,,,,,,,,,,,,,,PPT14,001,2022-06-29_16h26.54.527,ABstudy,2022.1.4,59.90534954776281,
AB,Lag5_T1P_T2P,5,P,P,6,11,5,3,14,Poker chips,Did you see the Poker chips?,0.12,0.016,JPG\,iron01b,brick,broccoli01a,balloon01b,tomato01,pokerchips,sandal,teabag,scissors01,pineapple01a,stapler04b,measuringcup01,sock01a,book01b,blankImage,blankImage,blankImage,pokerchips,,,,,,,,,,,,0,118,118,154,,,,,,,,,,,,,,,,,,,,,,,,,,,,,,,,,,,783.6701611000001,784.6709973999998,784.6543650000001,785.2162010999998,785.2162010999998,None,786.9336952000001,None,right,1.997695399999884,786.9336952000001,None,788.9582278999999,None,right,0.612888699999985,788.9582278999999,None,,,,,,,,,,,,,,,,,,,,,,,PPT14,001,2022-06-29_16h26.54.527,ABstudy,2022.1.4,59.90534954776281,
AB,Lag1_T1P_T2P,1,P,P,8,9,7,3,12,apron,Did you see the apron?,0.12,0.016,JPG\,avocado01,tambourine02,match,cauliflower01,paintbrush01,clock01a,pig,apron,stapler03a,cellphone,watch02a,pear01,blankImage,blankImage,blankImage,blankImage,blankImage,apron,,,,,,,,,,,,0,119,119,32,,,,,,,,,,,,,,,,,,,,,,,,,,,,,,,,,,,789.5927321000001,790.5937483999999,790.5769539,791.1404676,791.1404676,None,792.6194371999998,None,left,0.9354936999998245,792.6194371999998,None,793.5799389000001,None,right,0.9109576999999263,793.5799389000001,None,,,,,,,,,,,,,,,,,,,,,,,PPT14,001,2022-06-29_16h26.54.527,ABstudy,2022.1.4,59.90534954776281,
AB,Lag5_T1A_T2P,5,A,P,5,10,4,5,15,shower,Did you see the shower?,0.12,0.016,JPG\,sewingmachine01a,thermometer02b,sponge01,eraser,broccoli01a,fork03c,pizza,violin,belt02a,stapler04b,pineapple01a,tennisball01b,dandelion,cauliflower01,lemon02,blankImage,blankImage,redfox,,,,,,,,,,,,0,120,120,271,,,,,,,,,,,,,,,,,,,,,,,,,,,,,,,,,,,794.5139631999998,795.5151619999999,795.4984440000001,796.0633295,796.0633295,None,797.9458926999998,None,right,0.8413857000000462,797.9458926999998,None,798.8183763999998,None,right,1.0410041999998612,798.8183763999998,None,,,,,,,,,,,,,,,,,,,,,,,PPT14,001,2022-06-29_16h26.54.527,ABstudy,2022.1.4,59.90534954776281,
AB,Lag1_T1A_T2P,1,A,P,8,9,7,4,13,nose,Did you see the nose?,0.12,0.016,JPG\,pizza,strawberry,potato02b,speaker04,battery02b,iron01b,dice05a,cellphone,stapler06,banana01,medal02b,baseball01a,toaster01,blankImage,blankImage,blankImage,blankImage,cow,,,,,,,,,,,,0,121,121,231,,,,,,,,,,,,,,,,,,,,,,,,,,,,,,,,,,,799.8862940000001,800.8872423999999,800.8704639,801.4394488999999,801.4394488999999,None,803.0105686999998,None,right,1.1841927999998916,803.0105686999998,None,804.2239962000001,None,right,0.9472529999998187,804.2239962000001,None,,,,,,,,,,,,,,,,,,,,,,,PPT14,001,2022-06-29_16h26.54.527,ABstudy,2022.1.4,59.90534954776281,
AB,Lag1_T1A_T2A,1,A,A,8,9,7,4,13,sword fish,Did you see the sword fish?,0.12,0.016,JPG\,pizza,strawberry,potato02b,speaker04,battery02b,iron01b,dice05a,cellphone,globe,banana01,medal02b,baseball01a,toaster01,blankImage,blankImage,blankImage,blankImage,ear,,,,,,,,,,,,0,122,122,295,,,,,,,,,,,,,,,,,,,,,,,,,,,,,,,,,,,805.1914792999999,806.1922866000002,806.1757670999998,806.7403132000002,806.7403132000002,None,808.3949608,None,right,0.7681216999999378,808.3949608,None,809.1954499000001,None,right,0.5351312000002508,809.1954499000001,None,,,,,,,,,,,,,,,,,,,,,,,PPT14,001,2022-06-29_16h26.54.527,ABstudy,2022.1.4,59.90534954776281,
AB,Lag1_T1P_T2P,1,P,P,7,8,6,3,11,cloud,Did you see the cloud?,0.12,0.016,JPG\,lighter01,hammer01,spoon01,chain01,cymbal,sponge01,cloud,stapler06,pig,watermelon01,cauliflower01,blankImage,blankImage,blankImage,blankImage,blankImage,blankImage,cloud,,,,,,,,,,,,0,123,123,36,,,,,,,,,,,,,,,,,,,,,,,,,,,,,,,,,,,809.7627288000001,810.7636789999999,810.7471204999999,811.3025578999998,811.3025578999998,None,812.7156987000001,None,left,0.47077640000043175,812.7156987000001,None,813.2161657999998,None,right,1.1061701000003268,813.2161657999998,None,,,,,,,,,,,,,,,,,,,,,,,PPT14,001,2022-06-29_16h26.54.527,ABstudy,2022.1.4,59.90534954776281,
AB,Lag1_T1P_T2A,1,P,A,5,6,4,4,10,bird,Did you see the bird?,0.12,0.016,JPG\,toaster01,scarf,toiletpaper01a,calculator01,swallow,sewingmachine01a,fan,teabag,strawberry,balloon01b,blankImage,blankImage,blankImage,blankImage,blankImage,blankImage,blankImage,swallow,,,,,,,,,,,,0,124,124,195,,,,,,,,,,,,,,,,,,,,,,,,,,,,,,,,,,,814.3506896000001,815.3515540000001,815.3350039999998,815.8975432999998,815.8975432999998,None,817.1712076000001,None,right,1.256097100000261,817.1712076000001,None,818.4548444,None,right,0.5243246999998519,818.4548444,None,,,,,,,,,,,,,,,,,,,,,,,PPT14,001,2022-06-29_16h26.54.527,ABstudy,2022.1.4,59.90534954776281,
AB,Lag5_T1A_T2P,5,A,P,8,13,7,5,18,fish,Did you see the fish?,0.12,0.016,JPG\,scissors01,grape01,mushroom01,toiletpaper01a,greenolive,pizza,cigarette,ashtray01,carrot01,pineapple01a,foosballtable,lipstick02a,stapler04b,tambourine02,potato02b,violin,blankImage,chimney,,,,,,,,,,,,0,125,125,283,,,,,,,,,,,,,,,,,,,,,,,,,,,,,,,,,,,819.0052407999999,820.0063398999998,819.9897014999999,820.5451177000002,820.5451177000002,None,822.5720706,None,right,0.9113982000003489,822.5720706,None,823.5098531000001,None,right,0.31677010000021255,823.5098531000001,None,,,,,,,,,,,,,,,,,,,,,,,PPT14,001,2022-06-29_16h26.54.527,ABstudy,2022.1.4,59.90534954776281,
AB,Lag5_T1P_T2A,5,P,A,6,11,5,3,14,toy truck,Did you see the toy truck?,0.12,0.016,JPG\,globe,belt02a,sponge01,violin,fork03c,bluecheese,clock01a,microscope,balloon01b,scarf,teabag,pen04b,brick,brownsugar,blankImage,blankImage,blankImage,bluecheese,,,,,,,,,,,,0,126,126,204,,,,,,,,,,,,,,,,,,,,,,,,,,,,,,,,,,,823.8440723000001,824.8443123,824.8277375999999,825.3923828999998,825.3923828999998,None,827.0299090999999,None,right,1.47701939999979,827.0299090999999,None,828.5314632000002,None,right,0.36779010000009293,828.5314632000002,None,,,,,,,,,,,,,,,,,,,,,,,PPT14,001,2022-06-29_16h26.54.527,ABstudy,2022.1.4,59.90534954776281,
AB,Lag5_T1A_T2P,5,A,P,8,13,7,5,18,lollipop,Did you see the lollipop?,0.12,0.016,JPG\,watermelon01,banana01,ring01,pencil01,tomato01,speaker04,cucumber,thermometer02b,key01,foosballtable,violin,spoon01,stapler04b,dice05a,pen04b,mushroom01,blankImage,jeans01,,,,,,,,,,,,0,127,127,262,,,,,,,,,,,,,,,,,,,,,,,,,,,,,,,,,,,828.9318633,829.9326813999999,829.9161152999998,830.4824731000001,830.4824731000001,None,832.4836422999999,None,right,0.7753435999998146,832.4836422999999,None,833.2860173000001,None,right,0.3648809999999685,833.2860173000001,None,,,,,,,,,,,,,,,,,,,,,,,PPT14,001,2022-06-29_16h26.54.527,ABstudy,2022.1.4,59.90534954776281,
AB,Lag5_T1P_T2P,5,P,P,8,13,7,4,17,trumpet,Did you see the trumpet?,0.12,0.016,JPG\,toaster01,scarf,toiletpaper01a,calculator01,violin,sewingmachine01a,fan,trumpet,strawberry,balloon01b,brownsugar,eraser,stapler01,rice,ring01,shirt02,blankImage,trumpet,,,,,,,,,,,,0,128,128,145,,,,,,,,,,,,,,,,,,,,,,,,,,,,,,,,,,,833.6698454999998,834.6707921,834.6542568000002,835.2230465,835.2230465,None,837.2190180999999,None,right,0.6800104999997529,837.2190180999999,None,837.9239919999998,None,right,0.23106060000009165,837.9239919999998,None,,,,,,,,,,,,,,,,,,,,,,,PPT14,001,2022-06-29_16h26.54.527,ABstudy,2022.1.4,59.90534954776281,
AB,Lag1_T1P_T2P,1,P,P,5,6,4,5,11,shark,Did you see the shark?,0.12,0.016,JPG\,cucumber,sponge01,alligator,pear01,greatwhiteshark,stapler06,clock04,battery02b,fork03c,binoculars01b,mushroom01,blankImage,blankImage,blankImage,blankImage,blankImage,blankImage,greatwhiteshark,,,,,,,,,,,,0,129,129,84,,,,,,,,,,,,,,,,,,,,,,,,,,,,,,,,,,,838.1741574999999,839.1753609999998,839.1586593999998,839.7171992000001,839.7171992000001,None,841.0860851999998,None,left,0.6764740000003258,841.0860851999998,None,841.7945335000002,None,left,0.22452979999980016,841.7945335000002,None,,,,,,,,,,,,,,,,,,,,,,,PPT14,001,2022-06-29_16h26.54.527,ABstudy,2022.1.4,59.90534954776281,
AB,Lag1_T1P_T2P,1,P,P,7,8,6,3,11,compass,Did you see the compass?,0.12,0.016,JPG\,brick,plate01b,pen04b,toaster01,screwdriver04b,candle01,magneticcompass,stapler03a,pig,ring01,orange,blankImage,blankImage,blankImage,blankImage,blankImage,blankImage,magneticcompass,,,,,,,,,,,,0,130,130,66,,,,,,,,,,,,,,,,,,,,,,,,,,,,,,,,,,,842.0448558,843.0459029000001,843.0291556,843.5901391999998,843.5901391999998,None,845.0053248000002,None,left,0.812896500000079,845.0053248000002,None,845.8486879,None,left,0.5621599999999489,845.8486879,None,,,,,,,,,,,,,,,,,,,,,,,PPT14,001,2022-06-29_16h26.54.527,ABstudy,2022.1.4,59.90534954776281,
AB,Lag5_T1A_T2P,5,A,P,6,11,5,3,14,saxophone,Did you see the saxophone?,0.12,0.016,JPG\,globe,belt02a,sponge01,violin,fork03c,tomato01,clock01a,microscope,balloon01b,scarf,stapler03b,pen04b,brick,brownsugar,blankImage,blankImage,blankImage,microphone01,,,,,,,,,,,,0,131,131,267,,,,,,,,,,,,,,,,,,,,,,,,,,,,,,,,,,,846.4325685000001,847.4335087000002,847.4169973999999,847.9827714999999,847.9827714999999,None,849.6190973,None,right,0.8075306000000637,849.6190973,None,850.4532645000002,None,right,0.8934893000000557,850.4532645000002,None,,,,,,,,,,,,,,,,,,,,,,,PPT14,001,2022-06-29_16h26.54.527,ABstudy,2022.1.4,59.90534954776281,
AB,Lag5_T1A_T2P,5,A,P,7,12,6,3,15,Car,Did you see the Car?,0.12,0.016,JPG\,lighter01,hammer01,spoon01,chain01,cymbal,sponge01,lipstick02a,alligator,pig,watermelon01,cauliflower01,stapler03b,broccoli01a,tableknife02,tennisball01b,blankImage,blankImage,wallclock,,,,,,,,,,,,0,132,132,277,,,,,,,,,,,,,,,,,,,,,,,,,,,,,,,,,,,851.3708299000002,852.3717215999998,852.3551583999999,852.9115085999999,852.9115085999999,None,854.7885914999999,None,right,1.6543879000000743,854.7885914999999,None,856.4758841999999,None,left,0.4547312999998212,856.4758841999999,None,,,,,,,,,,,,,,,,,,,,,,,PPT14,001,2022-06-29_16h26.54.527,ABstudy,2022.1.4,59.90534954776281,
AB,Lag1_T1P_T2A,1,P,A,5,6,4,5,11,Sailboat,Did you see the Sailboat?,0.12,0.016,JPG\,chain01,speaker04,avocado01,watermelon01,sailboat,comb02a,lamp04a,fork03c,toaster01,slipper03b,scissors01,blankImage,blankImage,blankImage,blankImage,blankImage,blankImage,sailboat,,,,,,,,,,,,0,133,133,193,,,,,,,,,,,,,,,,,,,,,,,,,,,,,,,,,,,856.9596199,857.9606921000002,857.9440284999998,858.4957874999998,858.4957874999998,None,859.8720982000002,None,right,0.9306255999999848,859.8720982000002,None,860.8303306,None,right,1.0294048000000657,860.8303306,None,,,,,,,,,,,,,,,,,,,,,,,PPT14,001,2022-06-29_16h26.54.527,ABstudy,2022.1.4,59.90534954776281,
AB,Lag5_T1P_T2A,5,P,A,8,13,7,5,18,Nunchuks,Did you see the Nunchuks?,0.12,0.016,JPG\,celery,tennisball01b,calculator01,pear01,screw02,orange,button01,nunchuk,onion,apple07,iron01b,brownsugar,banana01,paintbrush01,dandelion,toothbrush03b,blankImage,nunchuk,,,,,,,,,,,,0,134,134,218,,,,,,,,,,,,,,,,,,,,,,,,,,,,,,,,,,,861.9157305000001,862.9156024000001,862.8988324,863.4560213000002,863.4560213000002,None,865.3775721999998,None,left,0.736661500000082,865.3775721999998,None,866.1353541000001,None,right,1.2279610000000503,866.1353541000001,None,,,,,,,,,,,,,,,,,,,,,,,PPT14,001,2022-06-29_16h26.54.527,ABstudy,2022.1.4,59.90534954776281,
AB,Lag5_T1P_T2A,5,P,A,5,10,4,3,13,Totem Pole,Did you see the Totem Pole?,0.12,0.016,JPG\,canoftennisballs,banana01,scissors01,pig,totempole,leaf02a,pear01,sponge01,fork03c,tableknife02,balloon01b,match,toothbrush03b,blankImage,blankImage,blankImage,blankImage,totempole,,,,,,,,,,,,0,135,135,202,,,,,,,,,,,,,,,,,,,,,,,,,,,,,,,,,,,867.3865441,868.3878019000001,868.3709007,868.9284266000002,868.9284266000002,None,870.5134449,None,left,0.8975295000000187,870.5134449,None,871.4408295999999,None,right,0.24188839999987977,871.4408295999999,None,,,,,,,,,,,,,,,,,,,,,,,PPT14,001,2022-06-29_16h26.54.527,ABstudy,2022.1.4,59.90534954776281,
AB,Lag1_T1P_T2P,1,P,P,6,7,5,3,10,cupcake,Did you see the cupcake?,0.12,0.016,JPG\,printer02,leaf02a,cauliflower01,sock01a,brownsugar,cupcake,stapler01,orange,belt02a,shirt02,blankImage,blankImage,blankImage,blankImage,blankImage,blankImage,blankImage,cupcake,,,,,,,,,,,,0,136,136,38,,,,,,,,,,,,,,,,,,,,,,,,,,,,,,,,,,,871.7077449999999,872.7083467,872.6920346999998,873.2564128000001,873.2564128000001,None,874.5457574999998,None,left,0.777589700000135,874.5457574999998,None,875.3444149,None,right,0.24213410000038493,875.3444149,None,,,,,,,,,,,,,,,,,,,,,,,PPT14,001,2022-06-29_16h26.54.527,ABstudy,2022.1.4,59.90534954776281,
AB,Lag1_T1P_T2A,1,P,A,5,6,4,4,10,flower,Did you see the flower?,0.12,0.016,JPG\,broom01,globe,cellphone,tableknife02,daffodil,scissors01,ring01,alligator,rice,toaster01,blankImage,blankImage,blankImage,blankImage,blankImage,blankImage,blankImage,daffodil,,,,,,,,,,,,0,137,137,184,,,,,,,,,,,,,,,,,,,,,,,,,,,,,,,,,,,875.6115894000002,876.6126121,876.5958890999998,877.1481578999999,877.1481578999999,None,878.4428144999999,None,left,0.7362428000001273,878.4428144999999,None,879.1985849,None,right,0.7405133000002024,879.1985849,None,,,,,,,,,,,,,,,,,,,,,,,PPT14,001,2022-06-29_16h26.54.527,ABstudy,2022.1.4,59.90534954776281,
AB,Lag5_T1P_T2P,5,P,P,7,12,6,4,16,Recycling bin,Did you see the Recycling bin?,0.12,0.016,JPG\,broccoli01a,scissors01,toothbrush03b,foosballtable,iron01b,brick,recyclingbin,toiletpaper01a,cd,garlic01a,carrot01,stapler03a,envelope03a,battery02b,balloon01b,broom01,blankImage,recyclingbin,,,,,,,,,,,,0,138,138,157,,,,,,,,,,,,,,,,,,,,,,,,,,,,,,,,,,,879.9658861999999,880.9667867000001,880.9502055,881.5101158,881.5101158,None,883.4589454,None,left,0.7120248000001084,883.4589454,None,884.2035933999998,None,left,0.1594068999997944,884.2035933999998,None,,,,,,,,,,,,,,,,,,,,,,,PPT14,001,2022-06-29_16h26.54.527,ABstudy,2022.1.4,59.90534954776281,
AB,Lag5_T1P_T2P,5,P,P,5,10,4,5,15,ear,Did you see the ear?,0.12,0.016,JPG\,fork03c,plate01b,toiletpaper01a,greenolive,ear,blueberry01,onion,calculator01,envelope03a,stapler06,book01b,pencil01,sewingmachine01a,brick,watermelon01,blankImage,blankImage,ear,,,,,,,,,,,,0,139,139,107,,,,,,,,,,,,,,,,,,,,,,,,,,,,,,,,,,,884.4233946000002,885.4379068000001,885.4214420000001,885.9751622000001,885.9751622000001,None,887.7861452,None,left,0.5601824999998826,887.7861452,None,888.3742338,None,left,0.13271179999992455,888.3742338,None,,,,,,,,,,,,,,,,,,,,,,,PPT14,001,2022-06-29_16h26.54.527,ABstudy,2022.1.4,59.90534954776281,
