TrialType,CondType,Lag,T1_PA,T2_PA,T1Loc,T2Loc,PreDistractor,PostDistractor,TotalImg,cueWord,T1cue,StimLength,isi,PicFolder,Img1,Img2,Img3,Img4,Img5,Img6,Img7,Img8,Img9,Img10,Img11,Img12,Img13,Img14,Img15,Img16,Img17,T1_Identity,ImageType,T1PA,T2PA,Picture,Image,FullPathName,FilePath,Practice_Trials.thisRepN,Practice_Trials.thisTrialN,Practice_Trials.thisN,Practice_Trials.thisIndex,trials.thisRepN,trials.thisTrialN,trials.thisN,trials.thisIndex,trials_2.thisRepN,trials_2.thisTrialN,trials_2.thisN,trials_2.thisIndex,Practice_Ins.started,Practice_Ins.stopped,End_Prac_Ins.keys,End_Prac_Ins.rt,End_Prac_Ins.started,End_Prac_Ins.stopped,text_2.started,text_2.stopped,Fixation_Cross_2.started,Fixation_Cross_2.stopped,Rapid_Image_Present_2.started,Rapid_Image_Present_2.stopped,key_resp.keys,key_resp.rt,key_resp.started,key_resp.stopped,T1Response_2.started,T1Response_2.stopped,T2Response_2.started,T2Response_2.stopped,key_resp_4.keys,key_resp_4.rt,key_resp_4.started,key_resp_4.stopped,text.started,text.stopped,End_Instructions.keys,End_Instructions.rt,End_Instructions.started,End_Instructions.stopped,text_5.started,text_5.stopped,FC.started,FC.stopped,Rapid_Image_Present.started,Rapid_Image_Present.stopped,T1Response.started,T1Response.stopped,key_resp_2.keys,key_resp_2.rt,key_resp_2.started,key_resp_2.stopped,T2Response.started,T2Response.stopped,key_resp_3.keys,key_resp_3.rt,key_resp_3.started,key_resp_3.stopped,text_6.started,text_6.stopped,Fin_ins.keys,Fin_ins.rt,Fin_ins.started,Fin_ins.stopped,MemTest.started,MemTest.stopped,MemResponse.keys,MemResponse.rt,MemResponse.started,MemResponse.stopped,Display.started,Display.stopped,text_7.started,text_7.stopped,endOfExperiment.started,endOfExperiment.stopped,key_resp_5.keys,key_resp_5.rt,key_resp_5.started,key_resp_5.stopped,participant,session,date,expName,psychopyVersion,frameRate,
,,,,,,,,,,,,,,,,,,,,,,,,,,,,,,,,,,,,,,,,,,,,,,,,,,,,15.796596400003182,None,space,37.264162199993734,15.796596400003182,None,,,,,,,,,,,,,,,,,,,,,,,,,,,,,,,,,,,,,,,,,,,,,,,,,,,,,,,,,,,,,,,,,PPT17,001,2022-06-30_11h30.37.978,ABstudy,2022.1.4,59.94531788510642,
AB_Prac,Lag1_T1P_T2P,1,P,P,8,9,7,5,14,Tennis racket,Did you see the Tennis racket?,0.5,0.016,JPG\,coconut,computermouse06,croissant01,deodorant02a,pillow01a,peanut01,boot02b,tennisracket,stapler03b,crayon,eggplant,marker01a,plant01,radish01,blankImage,blankImage,blankImage,tennisracket,,,,,,,,0,0,0,0,,,,,,,,,,,,,,,53.155040600002394,54.16067219999968,54.143904600001406,54.79378859999997,54.79378859999997,None,left,0.8710245000111172,61.77386810000462,None,61.77386810000462,None,62.67198670000653,None,left,0.7721208000002662,62.67198670000653,None,,,,,,,,,,,,,,,,,,,,,,,,,,,,,,,,,,,,,,,,,,,,,,,PPT17,001,2022-06-30_11h30.37.978,ABstudy,2022.1.4,59.94531788510642,
AB_Prac,Lag5_T1P_T2A,5,P,A,6,11,5,5,16,Wheat,Did you see the Wheat?,0.5,0.016,JPG\,bottleopener01,dentalfloss03b,cooler01,icecreamcone01a,paperclip01b,wheat,pencilsharpener02a,plasticbasket01a,toycar04,apricot,hairclip02,rock01a,honeydewmelon,antenna,blackberry,cardboardbox,blankImage,wheat,,,,,,,,0,1,1,7,,,,,,,,,,,,,,,63.48377760000585,64.48736490000738,64.47069010000268,65.04276300000492,65.04276300000492,None,left,0.7399775999947451,73.11155570000119,None,73.11155570000119,None,73.88059240000439,None,right,0.7074373999930685,73.88059240000439,None,,,,,,,,,,,,,,,,,,,,,,,,,,,,,,,,,,,,,,,,,,,,,,,PPT17,001,2022-06-30_11h30.37.978,ABstudy,2022.1.4,59.94531788510642,
AB_Prac,Lag1_T1P_T2P,1,P,P,6,7,5,5,12,triangle,Did you see the triangle?,0.5,0.016,JPG\,ginger,mousetrap,plum01,slipper01b,dropper01,triangle,stapler04b,pants,raspberry01,rope03,scale01a,vase01,blankImage,blankImage,blankImage,blankImage,blankImage,triangle,,,,,,,,0,2,2,1,,,,,,,,,,,,,,,74.62033429999428,75.632188699994,75.6153587000008,76.21134140000504,76.21134140000504,None,left,0.9533895999920787,82.22673450000002,None,82.22673450000002,None,83.20651590000489,None,right,0.7334680000058142,83.20651590000489,None,,,,,,,,,,,,,,,,,,,,,,,,,,,,,,,,,,,,,,,,,,,,,,,PPT17,001,2022-06-30_11h30.37.978,ABstudy,2022.1.4,59.94531788510642,
AB_Prac,Lag1_T1P_T2A,1,P,A,5,6,4,5,11,Webcam,Did you see the Webcam?,0.5,0.016,JPG\,pictureframe04,binder03b,straw,adjustablewrench01b,webcam,cane,hairdryer02a,icepack,kitchenscale01a,lifejacket,piggybank,blankImage,blankImage,blankImage,blankImage,blankImage,blankImage,webcam,,,,,,,,0,3,3,6,,,,,,,,,,,,,,,84.02679319999879,85.04163249999692,85.02505799999926,85.6171566999983,85.6171566999983,None,left,0.6419773999950849,91.09007760000532,None,91.09007760000532,None,91.74847400000726,None,right,0.6869995000015479,91.74847400000726,None,,,,,,,,,,,,,,,,,,,,,,,,,,,,,,,,,,,,,,,,,,,,,,,PPT17,001,2022-06-30_11h30.37.978,ABstudy,2022.1.4,59.94531788510642,
AB_Prac,Lag5_T1A_T2P,5,A,P,6,11,5,3,14,dog,Did you see the dog?,0.5,0.016,JPG\,bucket01a,doorlock,cookiecutter,fireextinguisher01,gluestick,highlighter02b,sportbag,spraybottle01,suitcase,thread02,stapler05,walnut01c,icecubetray01a,vikingmask01b,blankImage,blankImage,blankImage,None,,,,,,,,0,4,4,9,,,,,,,,,,,,,,,92.4688737999968,93.48308619999443,93.4663986999949,94.16633690000162,94.07284370000707,None,right,1.333847899993998,101.19024140000693,None,101.19024140000693,None,102.54351119999774,None,right,0.37245830000028946,102.54351119999774,None,,,,,,,,,,,,,,,,,,,,,,,,,,,,,,,,,,,,,,,,,,,,,,,PPT17,001,2022-06-30_11h30.37.978,ABstudy,2022.1.4,59.94531788510642,
AB_Prac,Lag5_T1P_T2P,5,P,P,5,10,4,5,15,Vulture,Did you see the Vulture?,0.5,0.016,JPG\,shorts01,toast,ramekin01,bib,vulture,cracker02,date,glasses01a,hat03b,stapler01,measuringtape01,nail,pill,drum01,starfish01,blankImage,blankImage,vulture,,,,,,,,0,5,5,3,,,,,,,,,,,,,,,102.95643879999989,103.96040310000535,103.94376769999508,104.5251117000007,104.5251117000007,None,left,0.5583513000019593,112.08527340000728,None,112.08527340000728,None,112.66918409999926,None,left,0.8384567000030074,112.66918409999926,None,,,,,,,,,,,,,,,,,,,,,,,,,,,,,,,,,,,,,,,,,,,,,,,PPT17,001,2022-06-30_11h30.37.978,ABstudy,2022.1.4,59.94531788510642,
AB_Prac,Lag5_T1A_T2A,5,A,A,6,11,5,5,16,castle,Did you see the castle?,0.5,0.016,JPG\,tape02a,englishmuffin,flask,ladle02a,monitor,peach01,keychain,squeegee01b,telephone01b,whisk,walkman,syringe02,baguette01,coaster,box01a,coffeepot03a,blankImage,None,,,,,,,,0,6,6,11,,,,,,,,,,,,,,,113.53886470000725,114.55428769999708,114.52099499999895,115.11025850000442,115.11025850000442,None,right,1.1212127000035252,123.10680100000172,None,123.10680100000172,None,124.24754759999632,None,right,0.3645111000078032,124.24754759999632,None,,,,,,,,,,,,,,,,,,,,,,,,,,,,,,,,,,,,,,,,,,,,,,,PPT17,001,2022-06-30_11h30.37.978,ABstudy,2022.1.4,59.94531788510642,
AB_Prac,Lag5_T1P_T2P,5,P,P,7,12,6,3,15,vacuum,Did you see the vacuum?,0.5,0.016,JPG\,fork07b,lightbulb01,manshoe,saw02b,shoelace,soap03a,vacuumcleaner01,floortile01,necklace,doll,cabbage,stapler03a,hanger02a,laptop01a,nailpolish03b,blankImage,blankImage,vacuumcleaner01,,,,,,,,0,7,7,2,,,,,,,,,,,,,,,124.64246279999497,125.64868820000265,125.63202839999576,126.2352619000012,126.2352619000012,None,left,0.6835802000132389,133.73574519999966,None,133.73574519999966,None,134.4404707000067,None,left,0.3478429000097094,134.4404707000067,None,,,,,,,,,,,,,,,,,,,,,,,,,,,,,,,,,,,,,,,,,,,,,,,PPT17,001,2022-06-30_11h30.37.978,ABstudy,2022.1.4,59.94531788510642,
AB_Prac,Lag5_T1P_T2P,5,P,P,5,10,4,5,15,washing machine,Did you see the washing machine?,0.5,0.016,JPG\,waterbottle03,wheel01,flashlight02b,zucchini01,washingmachine,headphones02b,nutcracker01,paintroller01,paperclip03,stapler06,ribbon04,electricrazor,bottleofredwine01,pitabread,pot02a,blankImage,blankImage,washingmachine,,,,,,,,0,8,8,4,,,,,,,,,,,,,,,134.81231310000294,135.82519200000388,135.80847030000587,136.38964809999743,136.38964809999743,None,right,0.9456299000012223,143.9462682000012,None,143.9462682000012,None,144.91765109999687,None,left,0.5833149999962188,144.91765109999687,None,,,,,,,,,,,,,,,,,,,,,,,,,,,,,,,,,,,,,,,,,,,,,,,PPT17,001,2022-06-30_11h30.37.978,ABstudy,2022.1.4,59.94531788510642,
AB_Prac,Lag1_T1A_T2A,1,A,A,8,9,7,3,12,Moose,Did you see the Moose?,0.5,0.016,JPG\,clothespin03b,corkscrew03a,drillbit03a,fusilli03a,needlenosepliers01,perfume01a,pistachio,scrubbingbrush05b,spatula03,toothpastetube,hinge,toydinosaur,blankImage,blankImage,blankImage,blankImage,blankImage,None,,,,,,,,0,9,9,10,,,,,,,,,,,,,,,145.52505729999393,146.5358966000058,146.51917640000465,147.1247444000037,147.1247444000037,None,right,1.008620599997812,153.12310799999977,None,153.12310799999977,None,154.16055099999357,None,right,0.29122450000431854,154.16055099999357,None,,,,,,,,,,,,,,,,,,,,,,,,,,,,,,,,,,,,,,,,,,,,,,,PPT17,001,2022-06-30_11h30.37.978,ABstudy,2022.1.4,59.94531788510642,
AB_Prac,Lag1_T1P_T2A,1,P,A,8,9,7,5,14,flower,Did you see the flower?,0.5,0.016,JPG\,razor01,axe01,binder03b,bowl01,kettle01,lettuce,lime,plasticflower01b,mitten04,pencilcase01,plunger02,strawbasket01,toothpick02,wallet02a,blankImage,blankImage,blankImage,plasticflower01b,,,,,,,,0,10,10,5,,,,,,,,,,,,,,,154.48469329999352,155.49513670000306,155.47837670000445,156.0493312000035,156.0493312000035,None,left,0.9422113000036916,163.06914039999538,None,163.06914039999538,None,164.03703780000797,None,right,0.4544132000009995,164.03703780000797,None,,,,,,,,,,,,,,,,,,,,,,,,,,,,,,,,,,,,,,,,,,,,,,,PPT17,001,2022-06-30_11h30.37.978,ABstudy,2022.1.4,59.94531788510642,
AB_Prac,Lag5_T1P_T2A,5,P,A,6,11,5,5,16,bread,Did you see the bread?,0.5,0.016,JPG\,cleaver01,clipboard,dustpan,hikingshoe01,notebook03a,baguette01,playingcard,pliers02b,styrofoamcup,rollingpin01a,swimgoggles,wineglass01,fryingpan02a,safetypin,syringe01,thimble,blankImage,baguette01,,,,,,,,0,11,11,8,,,,,,,,,,,,,,,164.5245486000058,165.5385205000057,165.5217233000003,166.0942431000003,166.0942431000003,None,left,1.2196089000062784,174.2810618999938,None,174.2810618999938,None,175.53146559999732,None,right,0.4243843000003835,175.53146559999732,None,,,,,,,,,,,,,,,,,,,,,,,,,,,,,,,,,,,,,,,,,,,,,,,PPT17,001,2022-06-30_11h30.37.978,ABstudy,2022.1.4,59.94531788510642,
,,,,,,,,,,,,,,,,,,,,,,,,,,,,,,,,,,,,,,,,,,,,,,,,,,,,,,,,,,,,,,,,,,,,,,,,,,,,175.98206969999592,None,space,12.046887800010154,175.98206969999592,None,,,,,,,,,,,,,,,,,,,,,,,,,,,,,,,,,,,,,,,,,PPT17,001,2022-06-30_11h30.37.978,ABstudy,2022.1.4,59.94531788510642,
AB,Lag1_T1P_T2A,1,P,A,8,9,7,4,13,boat,Did you see the boat?,0.12,0.016,JPG\,fork03c,dandelion,dice05a,belt02a,onion,watch02a,key01,boat,eraser,medal02b,greenolive,shirt02,candle08b,blankImage,blankImage,blankImage,blankImage,boat,,,,,,,,,,,,0,0,0,199,,,,,,,,,,,,,,,,,,,,,,,,,,,,,,,,,,,188.70742249999603,189.71230490000744,189.69557769999665,190.2926446000056,190.2926446000056,None,191.90658320000512,None,right,1.625569900003029,191.90658320000512,None,193.55166749999626,None,right,0.4754967999906512,193.55166749999626,None,,,,,,,,,,,,,,,,,,,,,,,PPT17,001,2022-06-30_11h30.37.978,ABstudy,2022.1.4,59.94531788510642,
AB,Lag5_T1P_T2A,5,P,A,5,10,4,3,13,cork,Did you see the cork?,0.12,0.016,JPG\,clock01a,grape01,plate01b,key01,cork02,feather03a,pineapple01a,iron01b,toothbrush03b,comb02a,broom01,toaster01,pizza,blankImage,blankImage,blankImage,blankImage,cork02,,,,,,,,,,,,0,1,1,209,,,,,,,,,,,,,,,,,,,,,,,,,,,,,,,,,,,194.05539439999848,195.06750580000516,195.05085210000107,195.64561059999687,195.64561059999687,None,197.22612029999436,None,left,0.8420393999986118,197.22612029999436,None,198.08741100000043,None,right,2.4288048000016715,198.08741100000043,None,,,,,,,,,,,,,,,,,,,,,,,PPT17,001,2022-06-30_11h30.37.978,ABstudy,2022.1.4,59.94531788510642,
AB,Lag5_T1P_T2P,5,P,P,5,10,4,4,14,duck,Did you see the duck?,0.12,0.016,JPG\,celery,pencil01,fan,foosballtable,duck01,shirt02,potato02b,fork03c,button01,stapler03a,baseball01a,printer02,cauliflower01,dandelion,blankImage,blankImage,blankImage,duck01,,,,,,,,,,,,0,2,2,130,,,,,,,,,,,,,,,,,,,,,,,,,,,,,,,,,,,200.54288069999893,201.55772589999833,201.52416390000144,202.09947770000144,202.09947770000144,None,203.72724419999577,None,left,0.6371415000030538,203.72724419999577,None,204.39586259999487,None,left,0.5595871999976225,204.39586259999487,None,,,,,,,,,,,,,,,,,,,,,,,PPT17,001,2022-06-30_11h30.37.978,ABstudy,2022.1.4,59.94531788510642,
AB,Lag1_T1A_T2P,1,A,P,8,9,7,4,13,Rabbit,Did you see the Rabbit?,0.12,0.016,JPG\,lamp04a,broccoli01a,alligator,garlic01a,dandelion,brownsugar,avocado01,ring01,stapler06,cellphone,medal02b,cd,calculator01,blankImage,blankImage,blankImage,blankImage,escalator,,,,,,,,,,,,0,3,3,254,,,,,,,,,,,,,,,,,,,,,,,,,,,,,,,,,,,205.02914379999856,206.02902190000168,206.02902190000168,206.68340069999977,206.60544559999835,None,208.1711040999944,None,right,0.8240229000075487,208.1711040999944,None,209.01599489999353,None,left,0.42731389999971725,209.01599489999353,None,,,,,,,,,,,,,,,,,,,,,,,PPT17,001,2022-06-30_11h30.37.978,ABstudy,2022.1.4,59.94531788510642,
AB,Lag5_T1A_T2P,5,A,P,6,11,5,5,16,bed,Did you see the bed?,0.12,0.016,JPG\,cellphone,tomato01,comb02a,candy,celery,cucumber,toaster01,fan,feather03a,pen04b,stapler03b,blueberry01,plate01b,cherry01,baseball01a,candle08b,blankImage,toolbox02,,,,,,,,,,,,0,4,4,274,,,,,,,,,,,,,,,,,,,,,,,,,,,,,,,,,,,209.47028599999612,210.48322579999513,210.4664946999983,211.06711200000427,211.06711200000427,None,213.03596700000344,None,right,0.7839724000077695,213.03596700000344,None,213.83666070000618,None,left,0.38286880000669044,213.83666070000618,None,,,,,,,,,,,,,,,,,,,,,,,PPT17,001,2022-06-30_11h30.37.978,ABstudy,2022.1.4,59.94531788510642,
AB,Lag1_T1P_T2P,1,P,P,7,8,6,4,12,skunk,Did you see the skunk?,0.12,0.016,JPG\,fan,tomato01,candy,screwdriver04b,alligator,cd,skunk,stapler03b,button01,plate01b,brownsugar,lighter01,blankImage,blankImage,blankImage,blankImage,blankImage,skunk,,,,,,,,,,,,0,5,5,48,,,,,,,,,,,,,,,,,,,,,,,,,,,,,,,,,,,214.2407424999983,215.25492750000558,215.2392314000026,215.84275710000657,215.84275710000657,None,217.2836854000052,None,left,0.808473099998082,217.2836854000052,None,218.12410679999448,None,left,0.2954603000107454,218.12410679999448,None,,,,,,,,,,,,,,,,,,,,,,,PPT17,001,2022-06-30_11h30.37.978,ABstudy,2022.1.4,59.94531788510642,
AB,Lag1_T1P_T2P,1,P,P,7,8,6,3,11,compass,Did you see the compass?,0.12,0.016,JPG\,brick,plate01b,pen04b,toaster01,screwdriver04b,candle01,magneticcompass,stapler03a,pig,ring01,orange,blankImage,blankImage,blankImage,blankImage,blankImage,blankImage,magneticcompass,,,,,,,,,,,,0,6,6,66,,,,,,,,,,,,,,,,,,,,,,,,,,,,,,,,,,,218.44928519999667,219.45866370000294,219.4420809000003,220.0179533000046,220.0179533000046,None,221.35103429999435,None,left,0.9244117999915034,221.35103429999435,None,222.29460399999516,None,right,0.5326867999974638,222.29460399999516,None,,,,,,,,,,,,,,,,,,,,,,,PPT17,001,2022-06-30_11h30.37.978,ABstudy,2022.1.4,59.94531788510642,
AB,Lag5_T1P_T2P,5,P,P,7,12,6,5,17,Badminton Racket,Did you see the Badminton Racket?,0.12,0.016,JPG\,paintbrush01,dice05a,watermelon01,broccoli01a,hammer01,leaf02a,badmintonracket,tennisball01b,lemon02,fan,lipstick02a,stapler04b,envelope03a,sponge01,foosballtable,orange,blankImage,badmintonracket,,,,,,,,,,,,0,7,7,163,,,,,,,,,,,,,,,,,,,,,,,,,,,,,,,,,,,222.85389129999385,223.86291349999374,223.84621410000545,224.4230305999954,224.4230305999954,None,226.43631210000603,None,left,0.6877275000006193,226.43631210000603,None,227.14967400000023,None,left,0.2694435000012163,227.14967400000023,None,,,,,,,,,,,,,,,,,,,,,,,PPT17,001,2022-06-30_11h30.37.978,ABstudy,2022.1.4,59.94531788510642,
AB,Lag5_T1P_T2P,5,P,P,8,13,7,4,17,lamp,Did you see the lamp?,0.12,0.016,JPG\,globe,broccoli01a,binoculars01b,iron01b,avocado01,dandelion,pineapple01a,floorlamp,fan,pizza,celery,blueberry01,stapler01,dice05a,watermelon01,candy,blankImage,floorlamp,,,,,,,,,,,,0,8,8,99,,,,,,,,,,,,,,,,,,,,,,,,,,,,,,,,,,,227.4549435999943,228.467419099994,228.45115290000103,229.03220270000747,229.03220270000747,None,230.9741314999992,None,left,0.7249198999925284,230.9741314999992,None,231.72337490000064,None,left,0.27189289999660105,231.72337490000064,None,,,,,,,,,,,,,,,,,,,,,,,PPT17,001,2022-06-30_11h30.37.978,ABstudy,2022.1.4,59.94531788510642,
AB,Lag1_T1A_T2P,1,A,P,8,9,7,5,14,Wolf,Did you see the Wolf?,0.12,0.016,JPG\,carrot01,watch02a,clock04,microscope,toiletpaper01a,potato02b,alligator,ring01,stapler03b,watermelon01,cd,pencil01,measuringcup01,balloon01b,blankImage,blankImage,blankImage,dreamcatcher,,,,,,,,,,,,0,9,9,253,,,,,,,,,,,,,,,,,,,,,,,,,,,,,,,,,,,232.03222890000325,233.03929129999597,233.02369230000477,233.6508887999953,233.6508887999953,None,235.31402900000103,None,right,1.0093620000116061,235.31402900000103,None,236.34288280000328,None,right,0.45239060001040343,236.34288280000328,None,,,,,,,,,,,,,,,,,,,,,,,PPT17,001,2022-06-30_11h30.37.978,ABstudy,2022.1.4,59.94531788510642,
AB,Lag1_T1P_T2P,1,P,P,7,8,6,5,13,school bus,Did you see the school bus?,0.12,0.016,JPG\,aceofdiamond,banana01,scissors01,pig,shirt02,leaf02a,schoolbus,stapler05,fork03c,tableknife02,balloon01b,match,toothbrush03b,blankImage,blankImage,blankImage,blankImage,schoolbus,,,,,,,,,,,,0,10,10,24,,,,,,,,,,,,,,,,,,,,,,,,,,,,,,,,,,,236.82812780000677,237.8437491000077,237.8104403000034,238.44459749999805,238.44459749999805,None,239.9948521000042,None,left,1.0563666000089142,239.9948521000042,None,241.0801810999983,None,right,0.3708745000039926,241.0801810999983,None,,,,,,,,,,,,,,,,,,,,,,,PPT17,001,2022-06-30_11h30.37.978,ABstudy,2022.1.4,59.94531788510642,
AB,Lag5_T1A_T2P,5,A,P,6,11,5,3,14,keys,Did you see the keys?,0.12,0.016,JPG\,pencil01,microscope,banana01,computerkeyboard02,celery,cellphone,scissors01,sock01a,book01b,onion,stapler03a,binoculars01b,baseball01a,iron01b,blankImage,blankImage,blankImage,treadmill,,,,,,,,,,,,0,11,11,275,,,,,,,,,,,,,,,,,,,,,,,,,,,,,,,,,,,241.48162659999798,242.4816884000029,242.46499890000268,243.02628520000144,243.02628520000144,None,244.8199220999959,None,right,1.1115507000067737,244.8199220999959,None,245.95197429999826,None,left,0.5314156000094954,245.95197429999826,None,,,,,,,,,,,,,,,,,,,,,,,PPT17,001,2022-06-30_11h30.37.978,ABstudy,2022.1.4,59.94531788510642,
AB,Lag1_T1A_T2P,1,A,P,8,9,7,4,13,Toolbox,Did you see the Toolbox?,0.12,0.016,JPG\,pizza,printer02,medal02b,spoon01,grape01,lighter01,belt02a,watermelon01,stapler03b,battery02b,screw02,comb02a,cauliflower01,blankImage,blankImage,blankImage,blankImage,ladybug03,,,,,,,,,,,,0,12,12,237,,,,,,,,,,,,,,,,,,,,,,,,,,,,,,,,,,,246.50442779999867,247.50369130000763,247.48817739999504,248.0959198000055,248.0959198000055,None,249.67059690000315,None,right,1.180335000011837,249.67059690000315,None,250.87410600000294,None,left,0.8334136000048602,250.87410600000294,None,,,,,,,,,,,,,,,,,,,,,,,PPT17,001,2022-06-30_11h30.37.978,ABstudy,2022.1.4,59.94531788510642,
AB,Lag1_T1A_T2P,1,A,P,8,9,7,3,12,seal,Did you see the seal?,0.12,0.016,JPG\,dice05a,watch02a,pig,lighter01,button01,strawberry,paintbrush01,microscope,stapler03a,pen04b,feather03a,8ball,blankImage,blankImage,blankImage,blankImage,blankImage,hockeystick,,,,,,,,,,,,0,13,13,235,,,,,,,,,,,,,,,,,,,,,,,,,,,,,,,,,,,251.7262508999993,252.7416327999963,252.7082003999967,253.2906159999984,253.2906159999984,None,254.80203910000273,None,right,1.1780582000064896,254.80203910000273,None,256.0141306000005,None,right,0.42936600001121406,256.0141306000005,None,,,,,,,,,,,,,,,,,,,,,,,PPT17,001,2022-06-30_11h30.37.978,ABstudy,2022.1.4,59.94531788510642,
AB,Lag1_T1P_T2P,1,P,P,6,7,5,3,10,fortune cookie,Did you see the fortune cookie?,0.12,0.016,JPG\,scissors01,grape01,mushroom01,toiletpaper01a,greenolive,fortunecookie,stapler03b,ashtray01,carrot01,pineapple01a,blankImage,blankImage,blankImage,blankImage,blankImage,blankImage,blankImage,fortunecookie,,,,,,,,,,,,0,14,14,42,,,,,,,,,,,,,,,,,,,,,,,,,,,,,,,,,,,256.47447190000094,257.47949899999367,257.446159500003,258.0171143000043,258.0171143000043,None,259.248139000003,None,left,1.3873352000082377,259.248139000003,None,260.6664233000047,None,right,0.7534080000041286,260.6664233000047,None,,,,,,,,,,,,,,,,,,,,,,,PPT17,001,2022-06-30_11h30.37.978,ABstudy,2022.1.4,59.94531788510642,
AB,Lag5_T1P_T2A,5,P,A,7,12,6,4,16,Bear,Did you see the Bear?,0.12,0.016,JPG\,comb02a,key01,medal02b,battery02b,lighter01,microscope,grizzly,sandal,pig,cellphone,computerkeyboard02,calculator01,cymbal,clock04,cucumber,avocado01,blankImage,grizzly,,,,,,,,,,,,0,15,15,213,,,,,,,,,,,,,,,,,,,,,,,,,,,,,,,,,,,261.4552871000051,262.46819319999486,262.45142310000665,263.0451006999938,263.0451006999938,None,265.0202122000046,None,left,1.2628252000140492,265.0202122000046,None,266.3055485999939,None,right,0.7781015000073239,266.3055485999939,None,,,,,,,,,,,,,,,,,,,,,,,PPT17,001,2022-06-30_11h30.37.978,ABstudy,2022.1.4,59.94531788510642,
AB,Lag5_T1A_T2P,5,A,P,7,12,6,3,15,hockey puck,Did you see the hockey puck?,0.12,0.016,JPG\,toiletpaper01a,lipstick02a,potato02b,speaker04,globe,strawberry,carrot01,plate01b,sock01a,candle08b,pen04b,stapler04b,foosballtable,brick,pear01,blankImage,blankImage,frisbee,,,,,,,,,,,,0,16,16,260,,,,,,,,,,,,,,,,,,,,,,,,,,,,,,,,,,,267.11325059999945,268.124272999994,268.10875909999595,268.70602460000373,268.70602460000373,None,270.47480150000774,None,right,1.1922453000006499,270.47480150000774,None,271.69379990000743,None,right,0.35712279999279417,271.69379990000743,None,,,,,,,,,,,,,,,,,,,,,,,PPT17,001,2022-06-30_11h30.37.978,ABstudy,2022.1.4,59.94531788510642,
AB,Lag1_T1P_T2P,1,P,P,6,7,5,3,10,elephant,Did you see the elephant?,0.12,0.016,JPG\,clock01a,grape01,plate01b,key01,screwdriver04b,africanelephant,stapler03b,iron01b,toothbrush03b,comb02a,blankImage,blankImage,blankImage,blankImage,blankImage,blankImage,blankImage,africanelephant,,,,,,,,,,,,0,17,17,31,,,,,,,,,,,,,,,,,,,,,,,,,,,,,,,,,,,272.13794719999714,273.14540520000446,273.1287472999975,273.7288331000018,273.7288331000018,None,274.9029592000006,None,left,0.9885739000019385,274.9029592000006,None,275.9153010000009,None,left,0.288187400001334,275.9153010000009,None,,,,,,,,,,,,,,,,,,,,,,,PPT17,001,2022-06-30_11h30.37.978,ABstudy,2022.1.4,59.94531788510642,
AB,Lag1_T1P_T2P,1,P,P,6,7,5,3,10,spider web,Did you see the spider web?,0.12,0.016,JPG\,toaster01,chain01,sponge01,baseball01a,carrot01,spiderweb,stapler03b,iron01b,grape01,brick,blankImage,blankImage,blankImage,blankImage,blankImage,blankImage,blankImage,spiderweb,,,,,,,,,,,,0,18,18,72,,,,,,,,,,,,,,,,,,,,,,,,,,,,,,,,,,,276.23913529999845,277.24972320000234,277.23296989999653,277.8083015000011,277.8083015000011,None,279.0856608000031,None,left,1.2616030999924988,279.0856608000031,None,280.36950590000197,None,left,0.20962010000948794,280.36950590000197,None,,,,,,,,,,,,,,,,,,,,,,,PPT17,001,2022-06-30_11h30.37.978,ABstudy,2022.1.4,59.94531788510642,
AB,Lag5_T1A_T2A,5,A,A,5,10,4,5,15,sword,Did you see the sword?,0.12,0.016,JPG\,pencil01,broccoli01a,button01,sponge01,watermelon01,lipstick02a,comb02a,fan,lighter01,sock01a,spoon01,blueberry01,belt02a,onion,grape01,blankImage,blankImage,parachute,,,,,,,,,,,,0,19,19,298,,,,,,,,,,,,,,,,,,,,,,,,,,,,,,,,,,,280.6086995000078,281.6206594999967,281.60394060000544,282.2068685999984,282.2068685999984,None,284.0155284000066,None,right,1.1001426000002539,284.0155284000066,None,285.1409042000014,None,right,0.3196407000068575,285.1409042000014,None,,,,,,,,,,,,,,,,,,,,,,,PPT17,001,2022-06-30_11h30.37.978,ABstudy,2022.1.4,59.94531788510642,
AB,Lag1_T1A_T2A,1,A,A,5,6,4,4,10,rose,Did you see the rose?,0.12,0.016,JPG\,sock01a,spoon01,alligator,comb02a,printer02,medal02b,lamp04a,cymbal,greenolive,computerkeyboard02,blankImage,blankImage,blankImage,blankImage,blankImage,blankImage,blankImage,cruiseship,,,,,,,,,,,,0,20,20,293,,,,,,,,,,,,,,,,,,,,,,,,,,,,,,,,,,,285.4940893000021,286.5089331000054,286.4755365000019,287.04584109999996,287.04584109999996,None,288.31080259999726,None,right,1.0772713000042131,288.31080259999726,None,289.41233239999565,None,right,0.302462599996943,289.41233239999565,None,,,,,,,,,,,,,,,,,,,,,,,PPT17,001,2022-06-30_11h30.37.978,ABstudy,2022.1.4,59.94531788510642,
AB,Lag5_T1P_T2P,5,P,P,8,13,7,3,16,shrimp,Did you see the shrimp?,0.12,0.016,JPG\,globe,belt02a,sponge01,violin,fork03c,tomato01,clock01a,cocktailshrimp02,balloon01b,scarf,teabag,pen04b,stapler03a,brownsugar,speaker04,screwdriver04b,blankImage,cocktailshrimp02,,,,,,,,,,,,0,21,21,169,,,,,,,,,,,,,,,,,,,,,,,,,,,,,,,,,,,289.7523906999995,290.7631337000057,290.7464681999991,291.3504316000035,291.3504316000035,None,293.23935479999636,None,left,0.9556356999964919,293.23935479999636,None,294.21709429999464,None,left,0.8020453000062844,294.21709429999464,None,,,,,,,,,,,,,,,,,,,,,,,PPT17,001,2022-06-30_11h30.37.978,ABstudy,2022.1.4,59.94531788510642,
AB,Lag5_T1P_T2A,5,P,A,6,11,5,5,16,hat,Did you see the hat?,0.12,0.016,JPG\,apple07,toiletpaper01a,pizza,dandelion,greenolive,pilgrimhat,microscope,violin,orange,lipstick02a,balloon01b,sandal,lighter01,fan,book01b,sewingmachine01a,blankImage,pilgrimhat,,,,,,,,,,,,0,22,22,206,,,,,,,,,,,,,,,,,,,,,,,,,,,,,,,,,,,295.05486449999444,296.0683299999946,296.05169249999744,296.6634090000007,296.6634090000007,None,298.6269233000057,None,left,0.9295789000025252,298.6269233000057,None,299.5882205999951,None,right,0.4873354000010295,299.5882205999951,None,,,,,,,,,,,,,,,,,,,,,,,PPT17,001,2022-06-30_11h30.37.978,ABstudy,2022.1.4,59.94531788510642,
AB,Lag5_T1A_T2A,5,A,A,5,10,4,5,15,truck,Did you see the truck?,0.12,0.016,JPG\,pizza,printer02,medal02b,spoon01,grape01,lighter01,belt02a,watermelon01,celery,battery02b,screw02,comb02a,cauliflower01,lipstick02a,potato02b,blankImage,blankImage,postalmailbox01,,,,,,,,,,,,0,23,23,297,,,,,,,,,,,,,,,,,,,,,,,,,,,,,,,,,,,300.1075125000061,301.12310470000375,301.08968099999765,301.67938159999903,301.67938159999903,None,303.5425669999968,None,right,1.044950700001209,303.5425669999968,None,304.6098850999988,None,right,0.2735300000058487,304.6098850999988,None,,,,,,,,,,,,,,,,,,,,,,,PPT17,001,2022-06-30_11h30.37.978,ABstudy,2022.1.4,59.94531788510642,
AB,Lag5_T1P_T2A,5,P,A,6,11,5,3,14,Balcony,Did you see the Balcony?,0.12,0.016,JPG\,tomato01,pen04b,shirt02,carrot01,lamp04a,balcony02,pizza,avocado01,sewingmachine01a,apple07,iron01b,book01b,chain01,sock01a,blankImage,blankImage,blankImage,balcony02,,,,,,,,,,,,0,24,24,207,,,,,,,,,,,,,,,,,,,,,,,,,,,,,,,,,,,304.9123164000048,305.91181420000794,305.89622640000016,306.5619172000006,306.48182420000376,None,308.22680980000587,None,left,1.169574500003364,308.22680980000587,None,309.41464060000726,None,right,0.4206986999924993,309.41464060000726,None,,,,,,,,,,,,,,,,,,,,,,,PPT17,001,2022-06-30_11h30.37.978,ABstudy,2022.1.4,59.94531788510642,
AB,Lag5_T1A_T2P,5,A,P,7,12,6,5,17,Rollerblade,Did you see the Rollerblade?,0.12,0.016,JPG\,binoculars01b,cymbal,pizza,candy,paintbrush01,sponge01,grape01,thermometer02b,speaker04,lemon02,lipstick02a,stapler03b,candle01,8ball,plate01b,pen04b,blankImage,lion,,,,,,,,,,,,0,25,25,266,,,,,,,,,,,,,,,,,,,,,,,,,,,,,,,,,,,309.868701600004,310.88285209999594,310.8661729000014,311.4664275999967,311.4664275999967,None,313.40222930000164,None,right,0.8245787000050768,313.40222930000164,None,314.255525200002,None,left,0.3793292000045767,314.255525200002,None,,,,,,,,,,,,,,,,,,,,,,,PPT17,001,2022-06-30_11h30.37.978,ABstudy,2022.1.4,59.94531788510642,
AB,Lag5_T1P_T2P,5,P,P,7,12,6,5,17,truck,Did you see the truck?,0.12,0.016,JPG\,binoculars01b,speaker04,sandal,envelope03a,plate01b,comb02a,boxtruck,chain01,measuringcup01,key01,medal02b,stapler05,tennisball01b,pizza,cigarette,sunglasses04,blankImage,boxtruck,,,,,,,,,,,,0,26,26,166,,,,,,,,,,,,,,,,,,,,,,,,,,,,,,,,,,,314.663257799999,315.670955900001,315.6542505999969,316.24168890000146,316.24168890000146,None,318.14578249999613,None,left,0.6489609999989625,318.14578249999613,None,318.8240214999969,None,left,0.24368200000026263,318.8240214999969,None,,,,,,,,,,,,,,,,,,,,,,,PPT17,001,2022-06-30_11h30.37.978,ABstudy,2022.1.4,59.94531788510642,
AB,Lag5_T1P_T2A,5,P,A,6,11,5,4,15,Spear,Did you see the Spear?,0.12,0.016,JPG\,belt02a,measuringcup01,spoon01,chain01,greenolive,spear02,computerkeyboard02,onion,fan,strawberry,candle01,broom01,binoculars01b,ashtray01,pingpongpaddle01c,blankImage,blankImage,spear02,,,,,,,,,,,,0,27,27,227,,,,,,,,,,,,,,,,,,,,,,,,,,,,,,,,,,,319.0961602000025,320.10929100000067,320.09383929999603,320.68864730000496,320.68864730000496,None,322.48820580000756,None,left,0.9468605000001844,322.48820580000756,None,323.46239179999975,None,right,0.42063739999139216,323.46239179999975,None,,,,,,,,,,,,,,,,,,,,,,,PPT17,001,2022-06-30_11h30.37.978,ABstudy,2022.1.4,59.94531788510642,
AB,Lag1_T1P_T2A,1,P,A,5,6,4,4,10,flower,Did you see the flower?,0.12,0.016,JPG\,broom01,globe,cellphone,tableknife02,daffodil,scissors01,ring01,alligator,rice,toaster01,blankImage,blankImage,blankImage,blankImage,blankImage,blankImage,blankImage,daffodil,,,,,,,,,,,,0,28,28,184,,,,,,,,,,,,,,,,,,,,,,,,,,,,,,,,,,,323.9820525999967,324.9968885999988,324.96332840000105,325.55630690000544,325.55630690000544,None,326.69996840000385,None,left,0.9525219000061043,326.69996840000385,None,327.6831552000076,None,right,0.5606487000040943,327.6831552000076,None,,,,,,,,,,,,,,,,,,,,,,,PPT17,001,2022-06-30_11h30.37.978,ABstudy,2022.1.4,59.94531788510642,
AB,Lag5_T1P_T2P,5,P,P,7,12,6,5,17,flamingo,Did you see the flamingo?,0.12,0.016,JPG\,pig,belt02a,rice,screwdriver04b,candle01,apple07,flamingo,pear01,feather03a,match,thermometer02b,stapler06,lemon02,violin,medal02b,pineapple01a,blankImage,flamingo,,,,,,,,,,,,0,29,29,153,,,,,,,,,,,,,,,,,,,,,,,,,,,,,,,,,,,328.2731303000037,329.2847361000022,329.26795599999605,329.7700860000041,329.7700860000041,None,331.8431360999966,None,left,0.7762901999958558,331.8431360999966,None,332.6378571999958,None,left,0.2776338000112446,332.6378571999958,None,,,,,,,,,,,,,,,,,,,,,,,PPT17,001,2022-06-30_11h30.37.978,ABstudy,2022.1.4,59.94531788510642,
AB,Lag1_T1P_T2P,1,P,P,8,9,7,3,12,mail box,Did you see the mail box?,0.12,0.016,JPG\,paintbrush01,dice05a,watermelon01,broccoli01a,hammer01,leaf02a,match,mailbox01,stapler05,fan,lipstick02a,grape01,blankImage,blankImage,blankImage,blankImage,blankImage,mailbox01,,,,,,,,,,,,0,30,30,20,,,,,,,,,,,,,,,,,,,,,,,,,,,,,,,,,,,332.9429464999994,333.95610759999545,333.9394567999989,334.5174301999941,334.5174301999941,None,335.98776740000176,None,left,0.959341099995072,335.98776740000176,None,336.9757513999939,None,right,0.5556603000004543,336.9757513999939,None,,,,,,,,,,,,,,,,,,,,,,,PPT17,001,2022-06-30_11h30.37.978,ABstudy,2022.1.4,59.94531788510642,
AB,Lag5_T1A_T2P,5,A,P,7,12,6,4,16,flower,Did you see the flower?,0.12,0.016,JPG\,printer02,envelope03a,potato02b,calculator01,tableknife02,cigarette,ashtray01,pig,broom01,greenolive,candle08b,stapler03a,strawberry,candle01,foosballtable,tennisball01b,blankImage,calendar,,,,,,,,,,,,0,31,31,282,,,,,,,,,,,,,,,,,,,,,,,,,,,,,,,,,,,337.56192039999587,338.5774287999957,338.54411220000475,339.12157269999443,339.12157269999443,None,341.15323050000006,None,right,1.105616500004544,341.15323050000006,None,342.2811509000021,None,left,0.7862790000071982,342.2811509000021,None,,,,,,,,,,,,,,,,,,,,,,,PPT17,001,2022-06-30_11h30.37.978,ABstudy,2022.1.4,59.94531788510642,
AB,Lag1_T1P_T2P,1,P,P,6,7,5,4,11,no parking sign,Did you see the no parking sign?,0.12,0.016,JPG\,fork03c,belt02a,grape01,computerkeyboard02,lemon02,parkingsign,stapler05,toiletpaper01a,toaster01,lipstick02a,book01b,blankImage,blankImage,blankImage,blankImage,blankImage,blankImage,parkingsign,,,,,,,,,,,,0,32,32,47,,,,,,,,,,,,,,,,,,,,,,,,,,,,,,,,,,,343.1051937000011,344.1162375999993,344.0994881999941,344.66068440000527,344.66068440000527,None,346.0686871000071,None,left,1.2380118000000948,346.0686871000071,None,347.3362690000067,None,right,0.5642312000127276,347.3362690000067,None,,,,,,,,,,,,,,,,,,,,,,,PPT17,001,2022-06-30_11h30.37.978,ABstudy,2022.1.4,59.94531788510642,
AB,Lag1_T1P_T2P,1,P,P,6,7,5,4,11,American football,Did you see the American football?,0.12,0.016,JPG\,toaster01,garlic01a,faucet,fan,comb02a,football,stapler06,watch02a,onion,blueberry01,toiletpaper01a,blankImage,blankImage,blankImage,blankImage,blankImage,blankImage,football,,,,,,,,,,,,0,33,33,12,,,,,,,,,,,,,,,,,,,,,,,,,,,,,,,,,,,347.9671759000048,348.9709595000022,348.9542014000035,349.5742629000015,349.5742629000015,None,350.84272800000326,None,left,1.3680836999992607,350.84272800000326,None,352.24070880000363,None,left,0.21013369999127463,352.24070880000363,None,,,,,,,,,,,,,,,,,,,,,,,PPT17,001,2022-06-30_11h30.37.978,ABstudy,2022.1.4,59.94531788510642,
AB,Lag1_T1P_T2P,1,P,P,8,9,7,4,13,dart board,Did you see the dart board?,0.12,0.016,JPG\,rice,watermelon01,tableknife02,scarf,computerkeyboard02,cauliflower01,battery02b,dartboard,stapler01,sandal,sponge01,microscope,tomato01,blankImage,blankImage,blankImage,blankImage,dartboard,,,,,,,,,,,,0,34,34,80,,,,,,,,,,,,,,,,,,,,,,,,,,,,,,,,,,,352.47634569999354,353.4918769000069,353.45853689999785,354.0340225999971,354.0340225999971,None,355.71590260000085,None,left,0.6789681000082055,355.71590260000085,None,356.411472199994,None,left,0.23141399999440182,356.411472199994,None,,,,,,,,,,,,,,,,,,,,,,,PPT17,001,2022-06-30_11h30.37.978,ABstudy,2022.1.4,59.94531788510642,
AB,Lag5_T1P_T2P,5,P,P,8,13,7,5,18,Ping pong Table,Did you see the Ping pong Table?,0.12,0.016,JPG\,shirt02,match,screw02,foosballtable,blueberry01,pineapple01a,sewingmachine01a,pingpongtable,button01,comb02a,dice05a,measuringcup01,stapler04b,printer02,carrot01,watermelon01,blankImage,pingpongtable,,,,,,,,,,,,0,35,35,152,,,,,,,,,,,,,,,,,,,,,,,,,,,,,,,,,,,356.67019200000504,357.6798087000061,357.66310380000505,358.2778682000062,358.2778682000062,None,360.16750710000633,None,left,0.7316629999986617,360.16750710000633,None,360.916123300005,None,left,0.2227085999911651,360.916123300005,None,,,,,,,,,,,,,,,,,,,,,,,PPT17,001,2022-06-30_11h30.37.978,ABstudy,2022.1.4,59.94531788510642,
AB,Lag1_T1P_T2A,1,P,A,7,8,6,3,11,walkie talkie,Did you see the walkie talkie?,0.12,0.016,JPG\,teabag,envelope03a,cellphone,apple07,cauliflower01,orange,walkietalkie,book01b,hammer01,feather03a,toaster01,blankImage,blankImage,blankImage,blankImage,blankImage,blankImage,walkietalkie,,,,,,,,,,,,0,36,36,197,,,,,,,,,,,,,,,,,,,,,,,,,,,,,,,,,,,361.16985629999544,362.1838703999965,362.1672849000024,362.7404768999986,362.7404768999986,None,364.12187679999624,None,left,0.8727791999990586,364.12187679999624,None,365.02000099999714,None,right,0.5184330000047339,365.02000099999714,None,,,,,,,,,,,,,,,,,,,,,,,PPT17,001,2022-06-30_11h30.37.978,ABstudy,2022.1.4,59.94531788510642,
AB,Lag5_T1P_T2P,5,P,P,8,13,7,3,16,parachute,Did you see the parachute?,0.12,0.016,JPG\,brick,plate01b,pen04b,toaster01,screwdriver04b,candle01,envelope03a,parachute,pig,ring01,orange,clock01a,stapler03b,calculator01,mushroom01,chain01,blankImage,parachute,,,,,,,,,,,,0,37,37,114,,,,,,,,,,,,,,,,,,,,,,,,,,,,,,,,,,,365.5726755000069,366.5882872999937,366.55487130000256,367.1380693999963,367.1380693999963,None,369.08985109999776,None,left,0.8649759999971138,369.08985109999776,None,369.97542640000756,None,left,0.39532909999252297,369.97542640000756,None,,,,,,,,,,,,,,,,,,,,,,,PPT17,001,2022-06-30_11h30.37.978,ABstudy,2022.1.4,59.94531788510642,
AB,Lag5_T1P_T2P,5,P,P,7,12,6,3,15,Eye patch,Did you see the Eye patch?,0.12,0.016,JPG\,candle01,paintbrush01,scissors01,fan,microscope,toothbrush03b,eyepatch,watermelon01,teabag,pencil01,lemon02,stapler05,shirt02,cauliflower01,cd,blankImage,blankImage,eyepatch,,,,,,,,,,,,0,38,38,108,,,,,,,,,,,,,,,,,,,,,,,,,,,,,,,,,,,370.45560939999996,371.4601333000028,371.4435000999947,372.0186204000056,372.0186204000056,None,373.8420691000065,None,left,0.8090802000078838,373.8420691000065,None,374.6796510999993,None,right,0.33152289999998175,374.6796510999993,None,,,,,,,,,,,,,,,,,,,,,,,PPT17,001,2022-06-30_11h30.37.978,ABstudy,2022.1.4,59.94531788510642,
AB,Lag1_T1A_T2P,1,A,P,8,9,7,3,12,porcupine,Did you see the porcupine?,0.12,0.016,JPG\,celery,orange,scissors01,balloon01b,avocado01,printer02,mushroom01,sewingmachine01a,stapler01,dice05a,ashtray01,fan,blankImage,blankImage,blankImage,blankImage,blankImage,drumstick,,,,,,,,,,,,0,39,39,233,,,,,,,,,,,,,,,,,,,,,,,,,,,,,,,,,,,375.0336418000079,376.04799490000005,376.01467990000674,376.6258320000052,376.6258320000052,None,378.1494485000003,None,right,0.9341455999965547,378.1494485000003,None,379.10127620000276,None,left,0.49320199999783654,379.10127620000276,None,,,,,,,,,,,,,,,,,,,,,,,PPT17,001,2022-06-30_11h30.37.978,ABstudy,2022.1.4,59.94531788510642,
AB,Lag5_T1P_T2P,5,P,P,6,11,5,5,16,microwave,Did you see the microwave?,0.12,0.016,JPG\,pen04b,speaker04,lighter01,cherry01,weight04a,microwave,sock01a,toothbrush03b,broom01,sewingmachine01a,stapler06,iron01b,clock01a,sandal,cd,blueberry01,blankImage,microwave,,,,,,,,,,,,0,40,40,136,,,,,,,,,,,,,,,,,,,,,,,,,,,,,,,,,,,379.6235502000054,380.6358129,380.6192149999988,381.18008020000707,381.18008020000707,None,383.1850181000045,None,left,0.6653416000044672,383.1850181000045,None,383.8724366999959,None,left,0.2264024000032805,383.8724366999959,None,,,,,,,,,,,,,,,,,,,,,,,PPT17,001,2022-06-30_11h30.37.978,ABstudy,2022.1.4,59.94531788510642,
AB,Lag1_T1A_T2P,1,A,P,6,7,5,5,12,Piano,Did you see the Piano?,0.12,0.016,JPG\,toiletpaper01a,mushroom01,medal02b,sandal,rice,cd,stapler01,pizza,candle08b,garlic01a,toaster01,belt02a,blankImage,blankImage,blankImage,blankImage,blankImage,moose,,,,,,,,,,,,0,41,41,239,,,,,,,,,,,,,,,,,,,,,,,,,,,,,,,,,,,384.1256817999965,385.1400811000058,385.10674689999723,385.69132709999394,385.69132709999394,None,387.2164669000049,None,right,1.0743052999896463,387.2164669000049,None,388.31264020000526,None,left,0.3859926000004634,388.31264020000526,None,,,,,,,,,,,,,,,,,,,,,,,PPT17,001,2022-06-30_11h30.37.978,ABstudy,2022.1.4,59.94531788510642,
AB,Lag5_T1P_T2P,5,P,P,5,10,4,5,15,Eye,Did you see the Eye?,0.12,0.016,JPG\,apple07,toiletpaper01a,pizza,dandelion,eye,eraser,microscope,violin,orange,stapler01,balloon01b,sandal,lighter01,fan,book01b,blankImage,blankImage,eye,,,,,,,,,,,,0,42,42,171,,,,,,,,,,,,,,,,,,,,,,,,,,,,,,,,,,,388.7374167999951,389.7444706999959,389.727822300003,390.3067368000047,390.3067368000047,None,392.1264117999963,None,left,0.5727337999996962,392.1264117999963,None,392.73125480000454,None,left,0.2167772000102559,392.73125480000454,None,,,,,,,,,,,,,,,,,,,,,,,PPT17,001,2022-06-30_11h30.37.978,ABstudy,2022.1.4,59.94531788510642,
AB,Lag5_T1P_T2P,5,P,P,5,10,4,5,15,ear,Did you see the ear?,0.12,0.016,JPG\,fork03c,plate01b,toiletpaper01a,greenolive,ear,blueberry01,onion,calculator01,envelope03a,stapler06,book01b,pencil01,sewingmachine01a,brick,watermelon01,blankImage,blankImage,ear,,,,,,,,,,,,0,43,43,107,,,,,,,,,,,,,,,,,,,,,,,,,,,,,,,,,,,392.96862770000007,393.9823153000034,393.96569880000607,394.6058481000073,394.5326022999943,None,396.3693495000043,None,left,0.6259094999986701,396.3693495000043,None,397.01873989999876,None,left,0.2961424000095576,397.01873989999876,None,,,,,,,,,,,,,,,,,,,,,,,PPT17,001,2022-06-30_11h30.37.978,ABstudy,2022.1.4,59.94531788510642,
AB,Lag5_T1P_T2P,5,P,P,6,11,5,3,14,fish,Did you see the fish?,0.12,0.016,JPG\,broom01,globe,cellphone,tableknife02,cauliflower01,holdfast,ring01,alligator,rice,toaster01,stapler03b,grape01,microscope,cucumber,blankImage,blankImage,blankImage,holdfast,,,,,,,,,,,,0,44,44,133,,,,,,,,,,,,,,,,,,,,,,,,,,,,,,,,,,,397.33876719999535,398.35327180000604,398.31992320000427,398.89824559999397,398.89824559999397,None,400.64941450000333,None,left,0.601876100001391,400.64941450000333,None,401.2731681000005,None,left,0.22624780000478495,401.2731681000005,None,,,,,,,,,,,,,,,,,,,,,,,PPT17,001,2022-06-30_11h30.37.978,ABstudy,2022.1.4,59.94531788510642,
AB,Lag1_T1P_T2P,1,P,P,6,7,5,4,11,cash register,Did you see the cash register?,0.12,0.016,JPG\,leaf02a,apple07,cd,pineapple01a,envelope03a,cashregister01,stapler03b,8ball,rice,feather03a,lemon02,blankImage,blankImage,blankImage,blankImage,blankImage,blankImage,cashregister01,,,,,,,,,,,,0,45,45,79,,,,,,,,,,,,,,,,,,,,,,,,,,,,,,,,,,,401.5286758000002,402.54095880000386,402.52417050000804,403.11297940000077,403.11297940000077,None,404.4108586000075,None,left,0.6243882000126177,404.4108586000075,None,405.05966709999484,None,left,0.21492179999768268,405.05966709999484,None,,,,,,,,,,,,,,,,,,,,,,,PPT17,001,2022-06-30_11h30.37.978,ABstudy,2022.1.4,59.94531788510642,
AB,Lag5_T1P_T2P,5,P,P,8,13,7,5,18,pipe,Did you see the pipe?,0.12,0.016,JPG\,scissors01,ashtray01,garlic01a,medal02b,cigarette,candle08b,leaf02a,smokingpipe,cucumber,rice,toiletpaper01a,greenolive,stapler01,cellphone,tableknife02,spoon01,blankImage,smokingpipe,,,,,,,,,,,,0,46,46,138,,,,,,,,,,,,,,,,,,,,,,,,,,,,,,,,,,,405.295967500002,406.3111174000078,406.27778899999976,406.8501666999946,406.8501666999946,None,408.83322100000805,None,left,0.5616959999897517,408.83322100000805,None,409.4144653999974,None,left,0.22825909999664873,409.4144653999974,None,,,,,,,,,,,,,,,,,,,,,,,PPT17,001,2022-06-30_11h30.37.978,ABstudy,2022.1.4,59.94531788510642,
AB,Lag1_T1P_T2P,1,P,P,5,6,4,4,10,skateboard,Did you see the skateboard?,0.12,0.016,JPG\,binoculars01b,cymbal,pizza,candy,skateboard,stapler05,grape01,thermometer02b,speaker04,lemon02,blankImage,blankImage,blankImage,blankImage,blankImage,blankImage,blankImage,skateboard,,,,,,,,,,,,0,47,47,25,,,,,,,,,,,,,,,,,,,,,,,,,,,,,,,,,,,409.6650776000024,410.6659667000058,410.64901799999643,411.22269910000614,411.22269910000614,None,412.4520154000056,None,left,0.7760068999923533,412.4520154000056,None,413.2513554000034,None,left,0.6715131000091787,413.2513554000034,None,,,,,,,,,,,,,,,,,,,,,,,PPT17,001,2022-06-30_11h30.37.978,ABstudy,2022.1.4,59.94531788510642,
AB,Lag1_T1P_T2P,1,P,P,5,6,4,5,11,Basketball,Did you see the Basketball?,0.12,0.016,JPG\,pencil01,microscope,banana01,computerkeyboard02,basketball01,stapler04b,scissors01,sock01a,book01b,onion,dice05a,blankImage,blankImage,blankImage,blankImage,blankImage,blankImage,basketball01,,,,,,,,,,,,0,48,48,34,,,,,,,,,,,,,,,,,,,,,,,,,,,,,,,,,,,413.95616460000747,414.9700496000005,414.9534687999985,415.56758990000526,415.49605640000664,None,416.9011004000058,None,left,0.8231165000033798,416.9011004000058,None,417.7564180000045,None,left,0.534513299993705,417.7564180000045,None,,,,,,,,,,,,,,,,,,,,,,,PPT17,001,2022-06-30_11h30.37.978,ABstudy,2022.1.4,59.94531788510642,
AB,Lag5_T1A_T2P,5,A,P,7,12,6,4,16,scooter,Did you see the scooter?,0.12,0.016,JPG\,cigarette,pig,banana01,strawberry,clock01a,plate01b,spoon01,blueberry01,battery02b,pineapple01a,chain01,stapler05,candy,pen04b,teabag,birthdaycandle,blankImage,1nose,,,,,,,,,,,,0,49,49,268,,,,,,,,,,,,,,,,,,,,,,,,,,,,,,,,,,,418.32859249999456,419.3410831000074,419.32445919999736,419.9123719000054,419.9123719000054,None,421.76074759999756,None,right,1.170272000003024,421.76074759999756,None,422.96127179999894,None,left,0.30574690000503324,422.96127179999894,None,,,,,,,,,,,,,,,,,,,,,,,PPT17,001,2022-06-30_11h30.37.978,ABstudy,2022.1.4,59.94531788510642,
AB,Lag5_T1P_T2P,5,P,P,5,10,4,4,14,License Plate,Did you see the License Plate?,0.12,0.016,JPG\,toaster01,chain01,sponge01,baseball01a,licenseplate,belt02a,book01b,iron01b,grape01,stapler06,celery,onion,mushroom01,toothbrush03b,blankImage,blankImage,blankImage,licenseplate,,,,,,,,,,,,0,50,50,120,,,,,,,,,,,,,,,,,,,,,,,,,,,,,,,,,,,423.30495740000333,424.31269770000654,424.2960977000039,424.87546860000293,424.87546860000293,None,426.6017758999951,None,left,0.6656493000045884,426.6017758999951,None,427.29903389999527,None,left,0.1763109000021359,427.29903389999527,None,,,,,,,,,,,,,,,,,,,,,,,PPT17,001,2022-06-30_11h30.37.978,ABstudy,2022.1.4,59.94531788510642,
AB,Lag1_T1P_T2P,1,P,P,8,9,7,3,12,bridge,Did you see the bridge?,0.12,0.016,JPG\,speaker04,sewingmachine01a,eraser,violin,globe,belt02a,sunglasses04,bridge,stapler01,greenolive,alligator,pear01,blankImage,blankImage,blankImage,blankImage,blankImage,bridge,,,,,,,,,,,,0,51,51,78,,,,,,,,,,,,,,,,,,,,,,,,,,,,,,,,,,,427.54526529999566,428.550201799997,428.53341940000246,429.1199465999962,429.1199465999962,None,430.5440899999958,None,right,0.9949649999907706,430.5440899999958,None,431.5696151000011,None,left,0.31277760000375565,431.5696151000011,None,,,,,,,,,,,,,,,,,,,,,,,PPT17,001,2022-06-30_11h30.37.978,ABstudy,2022.1.4,59.94531788510642,
AB,Lag1_T1A_T2A,1,A,A,7,8,6,5,13,Poker chips,Did you see the Poker chips?,0.12,0.016,JPG\,violin,pizza,toothbrush03b,pineapple01a,banana01,ashtray01,candy,dandelion,clock04,sock01a,microscope,speaker04,calculator01,blankImage,blankImage,blankImage,blankImage,cigar,,,,,,,,,,,,0,52,52,289,,,,,,,,,,,,,,,,,,,,,,,,,,,,,,,,,,,431.90726029999496,432.9211417000042,432.9043907000014,433.48270140000386,433.48270140000386,None,435.1643216999946,None,right,1.0299248000083026,435.1643216999946,None,436.2245400999964,None,right,0.20978079999622423,436.2245400999964,None,,,,,,,,,,,,,,,,,,,,,,,PPT17,001,2022-06-30_11h30.37.978,ABstudy,2022.1.4,59.94531788510642,
AB,Lag1_T1P_T2P,1,P,P,8,9,7,4,13,mattress,Did you see the mattress?,0.12,0.016,JPG\,button01,celery,birthdaycandle,apple07,avocado01,tennisball01b,dice05a,mattress,stapler01,feather03a,tomato01,scarf,orange,blankImage,blankImage,blankImage,blankImage,mattress,,,,,,,,,,,,0,53,53,22,,,,,,,,,,,,,,,,,,,,,,,,,,,,,,,,,,,436.4620042000024,437.4757440999965,437.4589997000003,438.04898059999687,438.04898059999687,None,439.6640752999956,None,left,0.8912809000030393,439.6640752999956,None,440.5797048999957,None,left,0.16752690001158044,440.5797048999957,None,,,,,,,,,,,,,,,,,,,,,,,PPT17,001,2022-06-30_11h30.37.978,ABstudy,2022.1.4,59.94531788510642,
AB,Lag1_T1P_T2P,1,P,P,5,6,4,5,11,squirrel,Did you see the squirrel?,0.12,0.016,JPG\,pencil01,orange,clock01a,sponge01,squirrel,stapler05,lipstick02a,strawberry,book01b,mushroom01,envelope03a,blankImage,blankImage,blankImage,blankImage,blankImage,blankImage,squirrel,,,,,,,,,,,,0,54,54,5,,,,,,,,,,,,,,,,,,,,,,,,,,,,,,,,,,,440.79119509999873,441.7968244000076,441.7801716999966,442.35797310000635,442.35797310000635,None,443.67446850000124,None,left,0.6320540000015171,443.67446850000124,None,444.3325174000056,None,left,0.19801019999431446,444.3325174000056,None,,,,,,,,,,,,,,,,,,,,,,,PPT17,001,2022-06-30_11h30.37.978,ABstudy,2022.1.4,59.94531788510642,
AB,Lag1_T1P_T2P,1,P,P,8,9,7,4,13,peacock,Did you see the peacock?,0.12,0.016,JPG\,hammer01,sponge01,toaster01,cherry01,feather03a,mushroom01,measuringcup01,peacock,stapler03a,brick,clock04,medal02b,teabag,blankImage,blankImage,blankImage,blankImage,peacock,,,,,,,,,,,,0,55,55,68,,,,,,,,,,,,,,,,,,,,,,,,,,,,,,,,,,,444.5549145999976,445.56702109999605,445.55053330000374,446.1196032000007,446.1196032000007,None,447.73656330000085,None,left,1.035216100004618,447.73656330000085,None,448.8037502000079,None,left,0.1674351999972714,448.8037502000079,None,,,,,,,,,,,,,,,,,,,,,,,PPT17,001,2022-06-30_11h30.37.978,ABstudy,2022.1.4,59.94531788510642,
AB,Lag5_T1P_T2P,5,P,P,6,11,5,4,15,punching bag,Did you see the punching bag?,0.12,0.016,JPG\,foosballtable,cigarette,pen04b,birthdaycandle,hammer01,punchingbag,binoculars01b,chain01,potato02b,cauliflower01,stapler04b,ashtray01,scarf,cellphone,calculator01,blankImage,blankImage,punchingbag,,,,,,,,,,,,0,56,56,156,,,,,,,,,,,,,,,,,,,,,,,,,,,,,,,,,,,449.0108024000074,450.0215464000066,450.0047143999982,450.5054322000069,450.5054322000069,None,452.4323863000027,None,left,0.49902399998973124,452.4323863000027,None,452.9575604999991,None,left,0.17362760000105482,452.9575604999991,None,,,,,,,,,,,,,,,,,,,,,,,PPT17,001,2022-06-30_11h30.37.978,ABstudy,2022.1.4,59.94531788510642,
AB,Lag5_T1P_T2P,5,P,P,6,11,5,3,14,ladder,Did you see the ladder?,0.12,0.016,JPG\,celery,orange,scissors01,balloon01b,avocado01,stepladder,mushroom01,sewingmachine01a,lighter01,dice05a,stapler01,fan,cd,sock01a,blankImage,blankImage,blankImage,stepladder,,,,,,,,,,,,0,57,57,119,,,,,,,,,,,,,,,,,,,,,,,,,,,,,,,,,,,453.1582783000049,454.15899969999737,454.1423191000067,454.72386719999486,454.72386719999486,None,456.439180500005,None,left,0.6114939999970375,456.439180500005,None,457.07927319999726,None,left,0.1711455000040587,457.07927319999726,None,,,,,,,,,,,,,,,,,,,,,,,PPT17,001,2022-06-30_11h30.37.978,ABstudy,2022.1.4,59.94531788510642,
AB,Lag5_T1P_T2P,5,P,P,7,12,6,4,16,Fireplace,Did you see the Fireplace?,0.12,0.016,JPG\,printer02,leaf02a,cauliflower01,sock01a,brownsugar,paintbrush01,fireplace,orange,belt02a,shirt02,key01,stapler01,cigarette,scissors01,envelope03a,blueberry01,blankImage,fireplace,,,,,,,,,,,,0,58,58,88,,,,,,,,,,,,,,,,,,,,,,,,,,,,,,,,,,,457.3408768999943,458.34651380000287,458.3296951999946,458.9241284000018,458.9241284000018,None,460.80492749999394,None,left,0.5900020999979461,460.80492749999394,None,461.4164086999954,None,left,0.16977870000118855,461.4164086999954,None,,,,,,,,,,,,,,,,,,,,,,,PPT17,001,2022-06-30_11h30.37.978,ABstudy,2022.1.4,59.94531788510642,
AB,Lag5_T1P_T2P,5,P,P,7,12,6,3,15,lips,Did you see the lips?,0.12,0.016,JPG\,cigarette,fork03c,greenolive,broccoli01a,avocado01,tennisball01b,lip,leaf02a,pig,fan,clock01a,stapler03a,envelope03a,birthdaycandle,teabag,blankImage,blankImage,lip,,,,,,,,,,,,0,59,59,95,,,,,,,,,,,,,,,,,,,,,,,,,,,,,,,,,,,461.6207032999955,462.63411919999635,462.6173512999958,463.1987860999943,463.1987860999943,None,465.03607430000557,None,left,0.6542524999968009,465.03607430000557,None,465.7202971999941,None,left,0.16989629999443423,465.7202971999941,None,,,,,,,,,,,,,,,,,,,,,,,PPT17,001,2022-06-30_11h30.37.978,ABstudy,2022.1.4,59.94531788510642,
AB,Lag1_T1P_T2P,1,P,P,8,9,7,3,12,zebra,Did you see the zebra?,0.12,0.016,JPG\,apple07,toiletpaper01a,pizza,dandelion,greenolive,eraser,microscope,zebra,stapler03b,lipstick02a,balloon01b,sandal,blankImage,blankImage,blankImage,blankImage,blankImage,zebra,,,,,,,,,,,,0,60,60,28,,,,,,,,,,,,,,,,,,,,,,,,,,,,,,,,,,,465.9263604000007,466.93838019999384,466.9218716000032,467.51434419999714,467.51434419999714,None,468.99254479999945,None,left,0.8176479000103427,468.99254479999945,None,469.8437758000073,None,left,0.1664941000053659,469.8437758000073,None,,,,,,,,,,,,,,,,,,,,,,,PPT17,001,2022-06-30_11h30.37.978,ABstudy,2022.1.4,59.94531788510642,
AB,Lag1_T1P_T2A,1,P,A,8,9,7,5,14,Sausage,Did you see the Sausage?,0.12,0.016,JPG\,pencil01,broccoli01a,button01,sponge01,watermelon01,lipstick02a,comb02a,sausage,lighter01,sock01a,spoon01,blueberry01,belt02a,onion,blankImage,blankImage,blankImage,sausage,,,,,,,,,,,,0,61,61,175,,,,,,,,,,,,,,,,,,,,,,,,,,,,,,,,,,,470.04986199999985,471.0595608000003,471.0442788999935,471.70417270000326,471.6351367000025,None,473.3199922000058,None,left,0.986130300007062,473.3199922000058,None,474.3292989000038,None,right,0.4497932999947807,474.3292989000038,None,,,,,,,,,,,,,,,,,,,,,,,PPT17,001,2022-06-30_11h30.37.978,ABstudy,2022.1.4,59.94531788510642,
AB,Lag1_T1P_T2P,1,P,P,8,9,7,3,12,Wheelchair,Did you see the Wheelchair?,0.12,0.016,JPG\,cigarette,pig,banana01,strawberry,clock01a,plate01b,spoon01,wheelchair,stapler03b,pineapple01a,chain01,paintbrush01,blankImage,blankImage,blankImage,blankImage,blankImage,wheelchair,,,,,,,,,,,,0,62,62,27,,,,,,,,,,,,,,,,,,,,,,,,,,,,,,,,,,,474.80069420000655,475.81390730000567,475.7971116999979,476.41467399999965,476.41467399999965,None,477.8451067999995,None,left,0.814606800006004,477.8451067999995,None,478.68356889999995,None,left,0.1680762999894796,478.68356889999995,None,,,,,,,,,,,,,,,,,,,,,,,PPT17,001,2022-06-30_11h30.37.978,ABstudy,2022.1.4,59.94531788510642,
AB,Lag5_T1A_T2P,5,A,P,8,13,7,4,17,wrench,Did you see the wrench?,0.12,0.016,JPG\,clock01a,grape01,plate01b,key01,screwdriver04b,feather03a,pineapple01a,iron01b,toothbrush03b,comb02a,broom01,toaster01,stapler05,garlic01a,match,ashtray01,blankImage,seal,,,,,,,,,,,,0,63,63,272,,,,,,,,,,,,,,,,,,,,,,,,,,,,,,,,,,,478.88911210000515,479.9017346000037,479.886225299997,480.47760100000596,480.47760100000596,None,482.4339379000012,None,right,0.9604091000073822,482.4339379000012,None,483.42129460000433,None,left,0.27689100000134204,483.42129460000433,None,,,,,,,,,,,,,,,,,,,,,,,PPT17,001,2022-06-30_11h30.37.978,ABstudy,2022.1.4,59.94531788510642,
AB,Lag1_T1P_T2P,1,P,P,8,9,7,3,12,Sheep,Did you see the Sheep?,0.12,0.016,JPG\,celery,orange,scissors01,balloon01b,avocado01,printer02,mushroom01,sheep,stapler03b,dice05a,ashtray01,fan,blankImage,blankImage,blankImage,blankImage,blankImage,sheep,,,,,,,,,,,,0,64,64,71,,,,,,,,,,,,,,,,,,,,,,,,,,,,,,,,,,,483.7250270999939,484.7392624000058,484.7058255000011,485.2831373999943,485.2831373999943,None,486.8002916999976,None,left,0.8663943000137806,486.8002916999976,None,487.6921427000052,None,left,0.15241940000851173,487.6921427000052,None,,,,,,,,,,,,,,,,,,,,,,,PPT17,001,2022-06-30_11h30.37.978,ABstudy,2022.1.4,59.94531788510642,
AB,Lag1_T1P_T2P,1,P,P,7,8,6,5,13,dream catcher,Did you see the dream catcher?,0.12,0.016,JPG\,clock01a,cellphone,toaster01,toothbrush03b,cauliflower01,microscope,dreamcatcher,stapler05,scarf,clock04,sponge01,iron01b,watch02a,blankImage,blankImage,blankImage,blankImage,dreamcatcher,,,,,,,,,,,,0,65,65,81,,,,,,,,,,,,,,,,,,,,,,,,,,,,,,,,,,,487.8782762000046,488.8933699000045,488.87678340000275,489.53088799999387,489.450410999998,None,491.07543549999536,None,right,0.9360903000051621,491.07543549999536,None,492.02994740000577,None,left,0.2939217999955872,492.02994740000577,None,,,,,,,,,,,,,,,,,,,,,,,PPT17,001,2022-06-30_11h30.37.978,ABstudy,2022.1.4,59.94531788510642,
AB,Lag5_T1P_T2A,5,P,A,5,10,4,3,13,martini glass,Did you see the martini glass?,0.12,0.016,JPG\,brick,eraser,cucumber,ashtray01,martiniglass01b,binoculars01b,lipstick02a,screwdriver04b,grape01,brownsugar,battery02b,iron01b,dice05a,blankImage,blankImage,blankImage,blankImage,martiniglass01b,,,,,,,,,,,,0,66,66,217,,,,,,,,,,,,,,,,,,,,,,,,,,,,,,,,,,,492.349784799997,493.36481070000445,493.3312808000046,493.91550899999856,493.91550899999856,None,495.5375369999965,None,right,1.0006050000083633,495.5375369999965,None,496.5676504000003,None,right,0.17135590000543743,496.5676504000003,None,,,,,,,,,,,,,,,,,,,,,,,PPT17,001,2022-06-30_11h30.37.978,ABstudy,2022.1.4,59.94531788510642,
AB,Lag1_T1P_T2A,1,P,A,7,8,6,4,12,gorilla,Did you see the gorilla?,0.12,0.016,JPG\,scissors01,ashtray01,garlic01a,medal02b,cigarette,candle08b,gorilla,envelope03a,cucumber,rice,toiletpaper01a,greenolive,blankImage,blankImage,blankImage,blankImage,blankImage,gorilla,,,,,,,,,,,,0,67,67,189,,,,,,,,,,,,,,,,,,,,,,,,,,,,,,,,,,,496.7699502000032,497.78553730000567,497.7522026000079,498.3215621999989,498.3215621999989,None,499.91499479999766,None,left,0.9446887999947648,499.91499479999766,None,500.8912455999962,None,right,0.4552477999968687,500.8912455999962,None,,,,,,,,,,,,,,,,,,,,,,,PPT17,001,2022-06-30_11h30.37.978,ABstudy,2022.1.4,59.94531788510642,
AB,Lag1_T1P_T2A,1,P,A,6,7,5,3,10,Dragon fly,Did you see the Dragon fly?,0.12,0.016,JPG\,leaf02a,pear01,measuringcup01,cigarette,fan,dragonfly01,teabag,tableknife02,ring01,pencil01,blankImage,blankImage,blankImage,blankImage,blankImage,blankImage,blankImage,dragonfly01,,,,,,,,,,,,0,68,68,185,,,,,,,,,,,,,,,,,,,,,,,,,,,,,,,,,,,501.3766995000042,502.390439099996,502.37381049999385,502.9398199999996,502.9398199999996,None,504.1940340000001,None,left,1.3766658999957144,504.1940340000001,None,505.5937367000006,None,right,0.5460330000059912,505.5937367000006,None,,,,,,,,,,,,,,,,,,,,,,,PPT17,001,2022-06-30_11h30.37.978,ABstudy,2022.1.4,59.94531788510642,
AB,Lag5_T1P_T2P,5,P,P,5,10,4,5,15,sword fish,Did you see the sword fish?,0.12,0.016,JPG\,scissors01,balloon01b,eraser,feather03a,swordfish,candle01,measuringcup01,calculator01,thermometer02b,stapler04b,pear01,carrot01,globe,baseball01a,leaf02a,blankImage,blankImage,swordfish,,,,,,,,,,,,0,69,69,160,,,,,,,,,,,,,,,,,,,,,,,,,,,,,,,,,,,506.16671170000336,507.17852539999876,507.1619778000022,507.7332366000046,507.7332366000046,None,509.56974150000315,None,left,0.5528956000052858,509.56974150000315,None,510.1478027999983,None,left,0.1747623000119347,510.1478027999983,None,,,,,,,,,,,,,,,,,,,,,,,PPT17,001,2022-06-30_11h30.37.978,ABstudy,2022.1.4,59.94531788510642,
AB,Lag5_T1P_T2P,5,P,P,8,13,7,4,17,Accordion,Did you see the Accordion?,0.12,0.016,JPG\,toiletpaper01a,lipstick02a,potato02b,speaker04,globe,strawberry,carrot01,accordion01,sock01a,candle08b,pen04b,calculator01,stapler01,brick,pear01,fork03c,blankImage,accordion01,,,,,,,,,,,,0,70,70,162,,,,,,,,,,,,,,,,,,,,,,,,,,,,,,,,,,,510.35424869999406,511.365968099999,511.34923150000395,511.9396318000072,511.9396318000072,None,513.9025890000048,None,left,0.5797349999920698,513.9025890000048,None,514.5025845000055,None,left,0.18782770000689197,514.5025845000055,None,,,,,,,,,,,,,,,,,,,,,,,PPT17,001,2022-06-30_11h30.37.978,ABstudy,2022.1.4,59.94531788510642,
AB,Lag5_T1P_T2A,5,P,A,7,12,6,5,17,shoulder,Did you see the shoulder?,0.12,0.016,JPG\,battery02b,sunglasses04,pear01,tennisball01b,clock01a,speaker04,shoulder,spoon01,alligator,pineapple01a,avocado01,grape01,blueberry01,violin,strawberry,sock01a,blankImage,shoulder,,,,,,,,,,,,0,71,71,224,,,,,,,,,,,,,,,,,,,,,,,,,,,,,,,,,,,514.7234315999958,515.7369501000067,515.7203570999991,516.2961919999943,516.2961919999943,None,518.2322472999949,None,left,0.7299357000010787,518.2322472999949,None,518.9903941999946,None,left,0.17178030000650324,518.9903941999946,None,,,,,,,,,,,,,,,,,,,,,,,PPT17,001,2022-06-30_11h30.37.978,ABstudy,2022.1.4,59.94531788510642,
AB,Lag5_T1P_T2P,5,P,P,6,11,5,5,16,scooter,Did you see the scooter?,0.12,0.016,JPG\,thermometer02b,candle08b,comb02a,toothbrush03b,brick,scooter,key01,pineapple01a,candy,birthdaycandle,stapler04b,canoftennisballs,teabag,medal02b,balloon01b,banana01,blankImage,scooter,,,,,,,,,,,,0,72,72,118,,,,,,,,,,,,,,,,,,,,,,,,,,,,,,,,,,,519.1946876000002,520.2080622000067,520.1913404000079,520.7748722999968,520.7748722999968,None,522.7665962000028,None,left,0.48417399999743793,522.7665962000028,None,523.277514100002,None,left,0.1571988999930909,523.277514100002,None,,,,,,,,,,,,,,,,,,,,,,,PPT17,001,2022-06-30_11h30.37.978,ABstudy,2022.1.4,59.94531788510642,
AB,Lag5_T1P_T2P,5,P,P,8,13,7,5,18,popcorn,Did you see the popcorn?,0.12,0.016,JPG\,toaster01,garlic01a,hairclip03,fan,comb02a,apple07,orange,popcorn,onion,blueberry01,toiletpaper01a,fork03c,stapler06,pineapple01a,scarf,eraser,blankImage,popcorn,,,,,,,,,,,,0,73,73,155,,,,,,,,,,,,,,,,,,,,,,,,,,,,,,,,,,,523.5036217000015,524.5123545999959,524.4955805000063,525.0908775999997,525.0908775999997,None,526.9929518999998,None,left,0.761779899999965,526.9929518999998,None,527.7847691000061,None,left,0.13784160000795964,527.7847691000061,None,,,,,,,,,,,,,,,,,,,,,,,PPT17,001,2022-06-30_11h30.37.978,ABstudy,2022.1.4,59.94531788510642,
AB,Lag1_T1P_T2P,1,P,P,8,9,7,5,14,Waterfall,Did you see the Waterfall?,0.12,0.016,JPG\,pizza,watch02a,greenolive,cucumber,match,violin,scissors01,waterfall,stapler03a,cherry01,ring01,cigarette,microscope,cellphone,blankImage,blankImage,blankImage,waterfall,,,,,,,,,,,,0,74,74,52,,,,,,,,,,,,,,,,,,,,,,,,,,,,,,,,,,,527.9543061000004,528.9666456999985,528.9499634999956,529.5400139999983,529.5400139999983,None,531.3185855000047,None,left,0.9639636999927461,531.3185855000047,None,532.304286300001,None,right,0.24231370000052266,532.304286300001,None,,,,,,,,,,,,,,,,,,,,,,,PPT17,001,2022-06-30_11h30.37.978,ABstudy,2022.1.4,59.94531788510642,
AB,Lag5_T1A_T2P,5,A,P,8,13,7,3,16,ladder,Did you see the ladder?,0.12,0.016,JPG\,apple07,toiletpaper01a,pizza,dandelion,greenolive,eraser,microscope,violin,orange,lipstick02a,balloon01b,sandal,stapler01,fan,book01b,sewingmachine01a,blankImage,ostrich,,,,,,,,,,,,0,75,75,269,,,,,,,,,,,,,,,,,,,,,,,,,,,,,,,,,,,532.5723041000019,533.5879433999944,533.5545676000038,534.1396270999976,534.1396270999976,None,536.1527768999949,None,right,0.9460338999924716,536.1527768999949,None,537.1247994000005,None,right,0.1899581999896327,537.1247994000005,None,,,,,,,,,,,,,,,,,,,,,,,PPT17,001,2022-06-30_11h30.37.978,ABstudy,2022.1.4,59.94531788510642,
AB,Lag5_T1P_T2P,5,P,P,5,10,4,3,13,Sushi,Did you see the Sushi?,0.12,0.016,JPG\,carrot01,greenolive,fork03c,chain01,makiroll,watermelon01,tableknife02,printer02,comb02a,stapler03b,orange,rice,fan,blankImage,blankImage,blankImage,blankImage,makiroll,,,,,,,,,,,,0,76,76,135,,,,,,,,,,,,,,,,,,,,,,,,,,,,,,,,,,,537.3463766000059,538.3595717999997,538.3428836999956,538.9130863000028,538.9130863000028,None,540.5652558000002,None,left,0.6771007999923313,540.5652558000002,None,541.2629452999972,None,left,0.14775080000981688,541.2629452999972,None,,,,,,,,,,,,,,,,,,,,,,,PPT17,001,2022-06-30_11h30.37.978,ABstudy,2022.1.4,59.94531788510642,
AB,Lag1_T1A_T2P,1,A,P,5,6,4,3,9,barrel,Did you see the barrel?,0.12,0.016,JPG\,clock01a,cellphone,toaster01,toothbrush03b,cauliflower01,stapler01,comb02a,paintbrush01,scarf,blankImage,blankImage,blankImage,blankImage,blankImage,blankImage,blankImage,blankImage,sheep,,,,,,,,,,,,0,77,77,243,,,,,,,,,,,,,,,,,,,,,,,,,,,,,,,,,,,541.4311311000056,542.4467230000009,542.4133756999945,543.0010266000027,543.0010266000027,None,544.1735253999941,None,right,0.9406104999943636,544.1735253999941,None,545.1326919999992,None,left,0.2693700999952853,545.1326919999992,None,,,,,,,,,,,,,,,,,,,,,,,PPT17,001,2022-06-30_11h30.37.978,ABstudy,2022.1.4,59.94531788510642,
AB,Lag5_T1A_T2P,5,A,P,5,10,4,4,14,Chefs hat,Did you see the Chefs hat?,0.12,0.016,JPG\,candle01,fork03c,plate01b,violin,computerkeyboard02,candy,calculator01,paintbrush01,cherry01,stapler06,teabag,banana01,cd,lighter01,blankImage,blankImage,blankImage,horseshoe,,,,,,,,,,,,0,78,78,278,,,,,,,,,,,,,,,,,,,,,,,,,,,,,,,,,,,545.4356307999988,546.4515548000054,546.4178054000076,546.9812105000019,546.9812105000019,None,548.8230808999942,None,right,1.0911144999990938,548.8230808999942,None,549.9378737999941,None,left,0.25662759999977425,549.9378737999941,None,,,,,,,,,,,,,,,,,,,,,,,PPT17,001,2022-06-30_11h30.37.978,ABstudy,2022.1.4,59.94531788510642,
AB,Lag1_T1P_T2P,1,P,P,5,6,4,3,9,Escalator,Did you see the Escalator?,0.12,0.016,JPG\,celery,pencil01,fan,foosballtable,escalator,stapler05,potato02b,fork03c,button01,blankImage,blankImage,blankImage,blankImage,blankImage,blankImage,blankImage,blankImage,escalator,,,,,,,,,,,,0,79,79,82,,,,,,,,,,,,,,,,,,,,,,,,,,,,,,,,,,,550.2271583999973,551.2389733000018,551.2224657000042,551.8039607999963,551.8039607999963,None,552.9299115000031,None,left,0.7044432999973651,552.9299115000031,None,553.6578556000022,None,left,0.14452059999166522,553.6578556000022,None,,,,,,,,,,,,,,,,,,,,,,,PPT17,001,2022-06-30_11h30.37.978,ABstudy,2022.1.4,59.94531788510642,
AB,Lag5_T1A_T2P,5,A,P,6,11,5,5,16,baseball bat,Did you see the baseball bat?,0.12,0.016,JPG\,avocado01,aceofdiamond,match,cauliflower01,paintbrush01,clock01a,pig,cd,balloon01b,cellphone,stapler01,pear01,toaster01,sponge01,orange,blueberry01,blankImage,stool01,,,,,,,,,,,,0,80,80,273,,,,,,,,,,,,,,,,,,,,,,,,,,,,,,,,,,,553.8267870999989,554.8423150000017,554.8089669000037,555.3945179000002,555.3945179000002,None,557.3359325000056,None,right,1.011519200008479,557.3359325000056,None,558.3794737999997,None,right,0.15108029999828432,558.3794737999997,None,,,,,,,,,,,,,,,,,,,,,,,PPT17,001,2022-06-30_11h30.37.978,ABstudy,2022.1.4,59.94531788510642,
AB,Lag1_T1P_T2P,1,P,P,5,6,4,5,11,owl,Did you see the owl?,0.12,0.016,JPG\,cellphone,tomato01,comb02a,candy,barnowl,stapler03a,toaster01,fan,feather03a,pen04b,lemon02,blankImage,blankImage,blankImage,blankImage,blankImage,blankImage,barnowl,,,,,,,,,,,,0,81,81,33,,,,,,,,,,,,,,,,,,,,,,,,,,,,,,,,,,,558.5675327000063,559.5807199999981,559.5639606000041,560.1313535999943,560.1313535999943,None,561.5035191000061,None,left,0.6348106999939773,561.5035191000061,None,562.1666724999959,None,left,0.16363840000121854,562.1666724999959,None,,,,,,,,,,,,,,,,,,,,,,,PPT17,001,2022-06-30_11h30.37.978,ABstudy,2022.1.4,59.94531788510642,
AB,Lag1_T1P_T2P,1,P,P,7,8,6,4,12,Dog House,Did you see the Dog House?,0.12,0.016,JPG\,pineapple01a,leaf02a,grape01,toiletpaper01a,match,tennisball01b,doghouse,stapler03b,pig,measuringcup01,ring01,lemon02,blankImage,blankImage,blankImage,blankImage,blankImage,doghouse,,,,,,,,,,,,0,82,82,44,,,,,,,,,,,,,,,,,,,,,,,,,,,,,,,,,,,562.359586999999,563.3677325000026,563.3510147000052,563.9471595000068,563.9471595000068,None,565.3762356000079,None,left,0.8737538999994285,565.3762356000079,None,566.270787100002,None,right,0.4433690000005299,566.270787100002,None,,,,,,,,,,,,,,,,,,,,,,,PPT17,001,2022-06-30_11h30.37.978,ABstudy,2022.1.4,59.94531788510642,
AB,Lag5_T1P_T2P,5,P,P,6,11,5,5,16,keys,Did you see the keys?,0.12,0.016,JPG\,toiletpaper01a,mushroom01,medal02b,sandal,rice,foldingchair,feather03a,pizza,candle08b,garlic01a,stapler01,belt02a,cigarette,violin,lemon02,fork03c,blankImage,foldingchair,,,,,,,,,,,,0,83,83,125,,,,,,,,,,,,,,,,,,,,,,,,,,,,,,,,,,,566.7416908000014,567.7554432000034,567.7386508000054,568.377113399998,568.2947716000053,None,570.2403179999965,None,right,0.9699021999986144,570.2403179999965,None,571.2422297000012,None,left,0.37691479999921285,571.2422297000012,None,,,,,,,,,,,,,,,,,,,,,,,PPT17,001,2022-06-30_11h30.37.978,ABstudy,2022.1.4,59.94531788510642,
AB,Lag5_T1A_T2P,5,A,P,5,10,4,4,14,duck,Did you see the duck?,0.12,0.016,JPG\,brick,eraser,cucumber,ashtray01,thermometer02b,binoculars01b,lipstick02a,screwdriver04b,grape01,stapler04b,battery02b,iron01b,dice05a,avocado01,blankImage,blankImage,blankImage,barrel01,,,,,,,,,,,,0,84,84,280,,,,,,,,,,,,,,,,,,,,,,,,,,,,,,,,,,,571.6461300999945,572.6605249999993,572.6269912999996,573.2072324000037,573.2072324000037,None,574.9818027000001,None,right,1.0044034000020474,574.9818027000001,None,576.013850000003,None,right,0.19628829999419395,576.013850000003,None,,,,,,,,,,,,,,,,,,,,,,,PPT17,001,2022-06-30_11h30.37.978,ABstudy,2022.1.4,59.94531788510642,
AB,Lag1_T1P_T2P,1,P,P,7,8,6,4,12,Christmas Tree,Did you see the Christmas Tree?,0.12,0.016,JPG\,sandal,fan,printer02,cellphone,mushroom01,candle08b,firtree,stapler03a,lamp04a,hammer01,teabag,aceofdiamond,blankImage,blankImage,blankImage,blankImage,blankImage,firtree,,,,,,,,,,,,0,85,85,6,,,,,,,,,,,,,,,,,,,,,,,,,,,,,,,,,,,576.236673899999,577.2482313000073,577.2316507000069,577.8017458999966,577.8017458999966,None,579.2682612000062,None,left,1.0543077000038465,579.2682612000062,None,580.3514637000044,None,right,0.46667080001498107,580.3514637000044,None,,,,,,,,,,,,,,,,,,,,,,,PPT17,001,2022-06-30_11h30.37.978,ABstudy,2022.1.4,59.94531788510642,
AB,Lag1_T1A_T2P,1,A,P,5,6,4,4,10,Bull,Did you see the Bull?,0.12,0.016,JPG\,celery,pencil01,fan,foosballtable,iron01b,stapler01,potato02b,fork03c,button01,pineapple01a,blankImage,blankImage,blankImage,blankImage,blankImage,blankImage,blankImage,spiderweb,,,,,,,,,,,,0,86,86,244,,,,,,,,,,,,,,,,,,,,,,,,,,,,,,,,,,,580.8399173000071,581.8531722000043,581.8377137000061,582.433529300004,582.433529300004,None,583.6960358000069,None,right,1.0823412999889115,583.6960358000069,None,584.8053383999941,None,right,0.5888915000105044,584.8053383999941,None,,,,,,,,,,,,,,,,,,,,,,,PPT17,001,2022-06-30_11h30.37.978,ABstudy,2022.1.4,59.94531788510642,
AB,Lag5_T1P_T2A,5,P,A,7,12,6,5,17,flower,Did you see the flower?,0.12,0.016,JPG\,cellphone,tomato01,comb02a,candy,celery,cucumber,craneflower,fan,feather03a,pen04b,lemon02,blueberry01,plate01b,cherry01,baseball01a,candle08b,blankImage,craneflower,,,,,,,,,,,,0,87,87,211,,,,,,,,,,,,,,,,,,,,,,,,,,,,,,,,,,,585.4287381000031,586.4407176999957,586.4238640999974,587.0314190000063,587.0314190000063,None,588.9224001999974,None,left,0.9195185999997193,588.9224001999974,None,589.8749013000051,None,right,1.0155683999910252,589.8749013000051,None,,,,,,,,,,,,,,,,,,,,,,,PPT17,001,2022-06-30_11h30.37.978,ABstudy,2022.1.4,59.94531788510642,
AB,Lag1_T1P_T2P,1,P,P,8,9,7,3,12,Eiffel tower,Did you see the Eiffel tower?,0.12,0.016,JPG\,celery,tennisball01b,calculator01,pear01,screw02,orange,button01,eiffeltower,stapler03b,apple07,iron01b,brownsugar,blankImage,blankImage,blankImage,blankImage,blankImage,eiffeltower,,,,,,,,,,,,0,88,88,40,,,,,,,,,,,,,,,,,,,,,,,,,,,,,,,,,,,590.9207145999972,591.9292010000063,591.912551100002,592.5051390000008,592.5051390000008,None,593.866508799998,None,left,1.087938500000746,593.866508799998,None,594.9826650000032,None,right,0.5080455999996047,594.9826650000032,None,,,,,,,,,,,,,,,,,,,,,,,PPT17,001,2022-06-30_11h30.37.978,ABstudy,2022.1.4,59.94531788510642,
AB,Lag5_T1P_T2P,5,P,P,8,13,7,4,17,butterfly,Did you see the butterfly?,0.12,0.016,JPG\,speaker04,sewingmachine01a,eraser,violin,globe,belt02a,sunglasses04,butterfly,cd,greenolive,alligator,pear01,stapler01,screwdriver04b,banana01,cigarette,blankImage,butterfly,,,,,,,,,,,,0,89,89,126,,,,,,,,,,,,,,,,,,,,,,,,,,,,,,,,,,,595.5233869000076,596.5341921000072,596.5174860999978,597.0935603999969,597.0935603999969,None,599.0128155999992,None,left,0.8290828000026522,599.0128155999992,None,599.8705153000046,None,left,0.17151030000241008,599.8705153000046,None,,,,,,,,,,,,,,,,,,,,,,,PPT17,001,2022-06-30_11h30.37.978,ABstudy,2022.1.4,59.94531788510642,
AB,Lag1_T1P_T2A,1,P,A,6,7,5,5,12,foot,Did you see the foot?,0.12,0.016,JPG\,watermelon01,cigarette,weight04a,cymbal,cauliflower01,foot,cherry01,broom01,battery02b,key01,baseball01a,iron01b,blankImage,blankImage,blankImage,blankImage,blankImage,foot,,,,,,,,,,,,0,90,90,188,,,,,,,,,,,,,,,,,,,,,,,,,,,,,,,,,,,600.0728094000078,601.0883431999973,601.0550119999971,601.6430512999941,601.6430512999941,None,603.130450800003,None,left,0.9595805000135442,603.130450800003,None,604.1084524000034,None,right,0.44554869999410585,604.1084524000034,None,,,,,,,,,,,,,,,,,,,,,,,PPT17,001,2022-06-30_11h30.37.978,ABstudy,2022.1.4,59.94531788510642,
AB,Lag1_T1P_T2P,1,P,P,5,6,4,5,11,Light switch,Did you see the Light switch?,0.12,0.016,JPG\,iron01b,orange,birthdaycandle,potato02b,lightswitch01,stapler03b,key01,candle08b,celery,tableknife02,pen04b,blankImage,blankImage,blankImage,blankImage,blankImage,blankImage,lightswitch01,,,,,,,,,,,,0,91,91,18,,,,,,,,,,,,,,,,,,,,,,,,,,,,,,,,,,,604.5829664000048,605.5928733000037,605.5762470000045,606.1792270000005,606.1792270000005,None,607.503332799999,None,left,0.9471780000021681,607.503332799999,None,608.4794970999938,None,left,0.3307968000008259,608.4794970999938,None,,,,,,,,,,,,,,,,,,,,,,,PPT17,001,2022-06-30_11h30.37.978,ABstudy,2022.1.4,59.94531788510642,
AB,Lag1_T1P_T2P,1,P,P,8,9,7,4,13,Hula hoop,Did you see the Hula hoop?,0.12,0.016,JPG\,brownsugar,candle01,match,printer02,broom01,balloon01b,belt02a,hulahoop,stapler04b,feather03a,rice,mushroom01,pencil01,blankImage,blankImage,blankImage,blankImage,hulahoop,,,,,,,,,,,,0,92,92,64,,,,,,,,,,,,,,,,,,,,,,,,,,,,,,,,,,,608.8901589000016,609.8974278999958,609.8806417000014,610.3830922000052,610.3830922000052,None,612.0133379000035,None,right,0.9403693000058411,612.0133379000035,None,612.9835555000027,None,right,0.15412560000550002,612.9835555000027,None,,,,,,,,,,,,,,,,,,,,,,,PPT17,001,2022-06-30_11h30.37.978,ABstudy,2022.1.4,59.94531788510642,
AB,Lag1_T1A_T2P,1,A,P,5,6,4,3,9,chimney,Did you see the chimney?,0.12,0.016,JPG\,cucumber,sponge01,alligator,pear01,ashtray01,stapler06,clock04,battery02b,fork03c,blankImage,blankImage,blankImage,blankImage,blankImage,blankImage,blankImage,blankImage,trophy01,,,,,,,,,,,,0,93,93,246,,,,,,,,,,,,,,,,,,,,,,,,,,,,,,,,,,,613.1691808000032,614.1847629999975,614.1513928000059,614.7270948000078,614.7270948000078,None,615.8649414999963,None,right,1.4098269999958575,615.8649414999963,None,617.3071285000042,None,right,0.19992360001197085,617.3071285000042,None,,,,,,,,,,,,,,,,,,,,,,,PPT17,001,2022-06-30_11h30.37.978,ABstudy,2022.1.4,59.94531788510642,
AB,Lag1_T1P_T2A,1,P,A,5,6,4,4,10,bird,Did you see the bird?,0.12,0.016,JPG\,toaster01,scarf,toiletpaper01a,calculator01,swallow,sewingmachine01a,fan,teabag,strawberry,balloon01b,blankImage,blankImage,blankImage,blankImage,blankImage,blankImage,blankImage,swallow,,,,,,,,,,,,0,94,94,195,,,,,,,,,,,,,,,,,,,,,,,,,,,,,,,,,,,617.6087331000017,618.6228816000075,618.6061940000072,619.1983650000038,619.1983650000038,None,620.3921895999956,None,left,1.1297196999948937,620.3921895999956,None,621.5420799999993,None,right,0.8204887000028975,621.5420799999993,None,,,,,,,,,,,,,,,,,,,,,,,PPT17,001,2022-06-30_11h30.37.978,ABstudy,2022.1.4,59.94531788510642,
AB,Lag5_T1P_T2A,5,P,A,8,13,7,4,17,knife,Did you see the knife?,0.12,0.016,JPG\,lighter01,hammer01,spoon01,chain01,cymbal,sponge01,lipstick02a,knife03,pig,watermelon01,cauliflower01,lemon02,broccoli01a,tableknife02,tennisball01b,toothbrush03b,blankImage,knife03,,,,,,,,,,,,0,95,95,214,,,,,,,,,,,,,,,,,,,,,,,,,,,,,,,,,,,622.3950153000042,623.4106214000058,623.3772485999943,623.947064100008,623.947064100008,None,625.9484566000028,None,left,0.7498532000026898,625.9484566000028,None,626.7308649000042,None,right,0.2872526999999536,626.7308649000042,None,,,,,,,,,,,,,,,,,,,,,,,PPT17,001,2022-06-30_11h30.37.978,ABstudy,2022.1.4,59.94531788510642,
AB,Lag1_T1P_T2A,1,P,A,7,8,6,4,12,gate,Did you see the gate?,0.12,0.016,JPG\,pen04b,speaker04,lighter01,cherry01,pintofbeer,onion,entrancegate,toothbrush03b,broom01,sewingmachine01a,book01b,iron01b,blankImage,blankImage,blankImage,blankImage,blankImage,entrancegate,,,,,,,,,,,,0,96,96,187,,,,,,,,,,,,,,,,,,,,,,,,,,,,,,,,,,,627.0511786999996,628.0661767999991,628.0334339999972,628.623370900008,628.623370900008,None,630.0605661000009,None,left,0.8370639000058873,630.0605661000009,None,630.9184661000036,None,right,0.6920856000069762,630.9184661000036,None,,,,,,,,,,,,,,,,,,,,,,,PPT17,001,2022-06-30_11h30.37.978,ABstudy,2022.1.4,59.94531788510642,
AB,Lag5_T1A_T2P,5,A,P,5,10,4,5,15,Eye patch,Did you see the Eye patch?,0.12,0.016,JPG\,scissors01,balloon01b,eraser,feather03a,banana01,candle01,measuringcup01,calculator01,thermometer02b,stapler03b,pear01,carrot01,globe,baseball01a,leaf02a,blankImage,blankImage,cross01,,,,,,,,,,,,0,97,97,258,,,,,,,,,,,,,,,,,,,,,,,,,,,,,,,,,,,631.6379195000045,632.6535279999953,632.6199380000035,633.2145077000023,633.2145077000023,None,635.1005342999997,None,right,0.7010810000065248,635.1005342999997,None,635.8229309000017,None,right,0.21055869999690913,635.8229309000017,None,,,,,,,,,,,,,,,,,,,,,,,PPT17,001,2022-06-30_11h30.37.978,ABstudy,2022.1.4,59.94531788510642,
AB,Lag1_T1P_T2P,1,P,P,8,9,7,4,13,crab,Did you see the crab?,0.12,0.016,JPG\,candle01,fork03c,plate01b,violin,computerkeyboard02,candy,calculator01,crab01,stapler04b,sock01a,teabag,banana01,cd,blankImage,blankImage,blankImage,blankImage,crab01,,,,,,,,,,,,0,98,98,37,,,,,,,,,,,,,,,,,,,,,,,,,,,,,,,,,,,636.0586941000074,637.0581907000014,637.0424423999939,637.6293088999955,637.6293088999955,None,639.2272882999969,None,left,0.7102958000032231,639.2272882999969,None,639.9608523000061,None,right,0.24995559999661054,639.9608523000061,None,,,,,,,,,,,,,,,,,,,,,,,PPT17,001,2022-06-30_11h30.37.978,ABstudy,2022.1.4,59.94531788510642,
AB,Lag5_T1A_T2A,5,A,A,6,11,5,3,14,mirror,Did you see the mirror?,0.12,0.016,JPG\,foosballtable,candy,envelope03a,microscope,pencil01,leaf02a,scissors01,watermelon01,grape01,dandelion,pineapple01a,hammer01,celery,thermometer02b,blankImage,blankImage,blankImage,shower,,,,,,,,,,,,0,99,99,305,,,,,,,,,,,,,,,,,,,,,,,,,,,,,,,,,,,640.2321812000009,641.2452144999988,641.2284845999966,641.7297130000079,641.7297130000079,None,643.5973037999938,None,right,0.8456866000051377,643.5973037999938,None,644.4653644000064,None,right,0.1857938000030117,644.4653644000064,None,,,,,,,,,,,,,,,,,,,,,,,PPT17,001,2022-06-30_11h30.37.978,ABstudy,2022.1.4,59.94531788510642,
AB,Lag1_T1P_T2A,1,P,A,5,6,4,5,11,Electric toothbrush,Did you see the Electric toothbrush?,0.12,0.016,JPG\,carrot01,greenolive,fork03c,chain01,electrictoothbrush01c,watermelon01,tableknife02,printer02,comb02a,toaster01,orange,blankImage,blankImage,blankImage,blankImage,blankImage,blankImage,electrictoothbrush01c,,,,,,,,,,,,0,100,100,186,,,,,,,,,,,,,,,,,,,,,,,,,,,,,,,,,,,644.6896223000076,645.6997078999993,645.6829586999957,646.3053598999977,646.3053598999977,None,647.5904359999986,None,left,0.9310889000043971,647.5904359999986,None,648.5523951000068,None,right,0.7142653000046266,648.5523951000068,None,,,,,,,,,,,,,,,,,,,,,,,PPT17,001,2022-06-30_11h30.37.978,ABstudy,2022.1.4,59.94531788510642,
AB,Lag1_T1P_T2P,1,P,P,6,7,5,4,11,Bow,Did you see the Bow?,0.12,0.016,JPG\,broom01,plate01b,scissors01,garlic01a,paintbrush01,bow,stapler03a,shirt02,speaker04,celery,sandal,blankImage,blankImage,blankImage,blankImage,blankImage,blankImage,bow,,,,,,,,,,,,0,101,101,53,,,,,,,,,,,,,,,,,,,,,,,,,,,,,,,,,,,649.2890158999944,650.3041757000028,650.2706545999972,650.8521305000031,650.8521305000031,None,652.2249171000003,None,left,0.9857264000020223,652.2249171000003,None,653.2407992999943,None,right,0.5369994000066072,653.2407992999943,None,,,,,,,,,,,,,,,,,,,,,,,PPT17,001,2022-06-30_11h30.37.978,ABstudy,2022.1.4,59.94531788510642,
AB,Lag5_T1P_T2P,5,P,P,7,12,6,4,16,Wolf,Did you see the Wolf?,0.12,0.016,JPG\,brick,eraser,cucumber,ashtray01,thermometer02b,binoculars01b,greywolf,screwdriver04b,grape01,brownsugar,battery02b,stapler03b,dice05a,avocado01,birthdaycandle,watch02a,blankImage,greywolf,,,,,,,,,,,,0,102,102,89,,,,,,,,,,,,,,,,,,,,,,,,,,,,,,,,,,,653.8142783000076,654.8255166000017,654.8089495000022,655.412859899996,655.412859899996,None,657.3511391000065,None,left,0.7235360000049695,657.3511391000065,None,658.095541600007,None,right,0.5625986999948509,658.095541600007,None,,,,,,,,,,,,,,,,,,,,,,,PPT17,001,2022-06-30_11h30.37.978,ABstudy,2022.1.4,59.94531788510642,
AB,Lag5_T1P_T2P,5,P,P,8,13,7,5,18,Kiwi,Did you see the Kiwi?,0.12,0.016,JPG\,violin,pizza,toothbrush03b,pineapple01a,banana01,ashtray01,candy,kiwi03,clock04,sock01a,microscope,speaker04,stapler04b,sunglasses04,lipstick02a,blueberry01,blankImage,kiwi03,,,,,,,,,,,,0,103,103,111,,,,,,,,,,,,,,,,,,,,,,,,,,,,,,,,,,,658.7419628000061,659.7468038000079,659.7301434999972,660.3108066999994,660.3108066999994,None,662.2120196000033,None,left,0.5740102999989176,662.2120196000033,None,662.8189748000004,None,left,0.17446880000352394,662.8189748000004,None,,,,,,,,,,,,,,,,,,,,,,,PPT17,001,2022-06-30_11h30.37.978,ABstudy,2022.1.4,59.94531788510642,
AB,Lag5_T1P_T2A,5,P,A,6,11,5,5,16,World map,Did you see the World map?,0.12,0.016,JPG\,cigarette,pig,banana01,strawberry,clock01a,worldmap,spoon01,blueberry01,battery02b,pineapple01a,chain01,paintbrush01,candy,pen04b,teabag,birthdaycandle,blankImage,worldmap,,,,,,,,,,,,0,104,104,205,,,,,,,,,,,,,,,,,,,,,,,,,,,,,,,,,,,663.0298723000014,664.0342317000031,664.0175367000047,664.6160286999948,664.6160286999948,None,666.4598819999956,None,left,0.685960700007854,666.4598819999956,None,667.170813699995,None,right,0.41506900000968017,667.170813699995,None,,,,,,,,,,,,,,,,,,,,,,,PPT17,001,2022-06-30_11h30.37.978,ABstudy,2022.1.4,59.94531788510642,
AB,Lag5_T1P_T2A,5,P,A,8,13,7,4,17,fountain,Did you see the fountain?,0.12,0.016,JPG\,printer02,envelope03a,potato02b,calculator01,tableknife02,cigarette,ashtray01,parkfountain,broom01,greenolive,candle08b,battery02b,strawberry,candle01,foosballtable,tennisball01b,blankImage,parkfountain,,,,,,,,,,,,0,105,105,219,,,,,,,,,,,,,,,,,,,,,,,,,,,,,,,,,,,667.6179634,668.622354799998,668.5889637999935,669.1745445999986,669.1745445999986,None,671.1572563999944,None,left,0.7002892000018619,671.1572563999944,None,671.8759454999963,None,right,0.37361939999391325,671.8759454999963,None,,,,,,,,,,,,,,,,,,,,,,,PPT17,001,2022-06-30_11h30.37.978,ABstudy,2022.1.4,59.94531788510642,
AB,Lag1_T1A_T2P,1,A,P,5,6,4,3,9,Crown,Did you see the Crown?,0.12,0.016,JPG\,leaf02a,pear01,measuringcup01,cigarette,fan,stapler04b,teabag,tableknife02,ring01,blankImage,blankImage,blankImage,blankImage,blankImage,blankImage,blankImage,blankImage,arrow02,,,,,,,,,,,,0,106,106,248,,,,,,,,,,,,,,,,,,,,,,,,,,,,,,,,,,,672.2819889999955,673.2940731999988,673.2773198000068,673.8712827999989,673.8712827999989,None,674.9735342000058,None,right,1.0926443000062136,674.9735342000058,None,676.0964166000049,None,right,0.1938557999965269,676.0964166000049,None,,,,,,,,,,,,,,,,,,,,,,,PPT17,001,2022-06-30_11h30.37.978,ABstudy,2022.1.4,59.94531788510642,
AB,Lag1_T1A_T2P,1,A,P,6,7,5,3,10,curtain,Did you see the curtain?,0.12,0.016,JPG\,carrot01,greenolive,fork03c,chain01,ashtray01,watermelon01,stapler06,printer02,comb02a,toaster01,blankImage,blankImage,blankImage,blankImage,blankImage,blankImage,blankImage,birdhouse,,,,,,,,,,,,0,107,107,249,,,,,,,,,,,,,,,,,,,,,,,,,,,,,,,,,,,676.3153720999981,677.3309752000059,677.2975755999942,677.8758868000004,677.8758868000004,None,679.114293599996,None,right,0.9281057999905897,679.114293599996,None,680.066962500001,None,left,0.30327290001150686,680.066962500001,None,,,,,,,,,,,,,,,,,,,,,,,PPT17,001,2022-06-30_11h30.37.978,ABstudy,2022.1.4,59.94531788510642,
AB,Lag5_T1P_T2P,5,P,P,7,12,6,5,17,tie,Did you see the tie?,0.12,0.016,JPG\,iron01b,orange,birthdaycandle,potato02b,cauliflower01,pencil01,tie02,candle08b,celery,tableknife02,pen04b,stapler06,ring01,rice,lemon02,tomato01,blankImage,tie02,,,,,,,,,,,,0,108,108,161,,,,,,,,,,,,,,,,,,,,,,,,,,,,,,,,,,,680.4027727000066,681.4184328999982,681.3850448000012,681.9699495999957,681.9699495999957,None,684.0099328000069,None,left,0.7132554000127129,684.0099328000069,None,684.7553427999956,None,left,0.17458639999676961,684.7553427999956,None,,,,,,,,,,,,,,,,,,,,,,,PPT17,001,2022-06-30_11h30.37.978,ABstudy,2022.1.4,59.94531788510642,
AB,Lag5_T1P_T2P,5,P,P,7,12,6,4,16,Recycling bin,Did you see the Recycling bin?,0.12,0.016,JPG\,broccoli01a,scissors01,toothbrush03b,foosballtable,iron01b,brick,recyclingbin,toiletpaper01a,cd,garlic01a,carrot01,stapler03a,envelope03a,battery02b,balloon01b,broom01,blankImage,recyclingbin,,,,,,,,,,,,0,109,109,157,,,,,,,,,,,,,,,,,,,,,,,,,,,,,,,,,,,684.9627130000008,685.9731369000074,685.956314199997,686.5635378000006,686.5635378000006,None,688.486224799999,None,left,0.4835524000081932,688.486224799999,None,688.9926010000054,None,left,0.1860440999880666,688.9926010000054,None,,,,,,,,,,,,,,,,,,,,,,,PPT17,001,2022-06-30_11h30.37.978,ABstudy,2022.1.4,59.94531788510642,
AB,Lag5_T1A_T2P,5,A,P,5,10,4,3,13,flower,Did you see the flower?,0.12,0.016,JPG\,cucumber,ring01,lipstick02a,microscope,violin,garlic01a,celery,lighter01,cherry01,stapler03a,belt02a,key01,binoculars01b,blankImage,blankImage,blankImage,blankImage,christmastree,,,,,,,,,,,,0,110,110,284,,,,,,,,,,,,,,,,,,,,,,,,,,,,,,,,,,,689.2119497999956,690.2271379000013,690.1937452999991,690.7743766000058,690.7743766000058,None,692.4137825000071,None,right,0.9399338999937754,692.4137825000071,None,693.3802264999977,None,right,0.1819552999950247,693.3802264999977,None,,,,,,,,,,,,,,,,,,,,,,,PPT17,001,2022-06-30_11h30.37.978,ABstudy,2022.1.4,59.94531788510642,
AB,Lag1_T1P_T2A,1,P,A,7,8,6,3,11,Armadillo,Did you see the Armadillo?,0.12,0.016,JPG\,clock01a,cellphone,toaster01,toothbrush03b,cauliflower01,microscope,armadillo,paintbrush01,scarf,clock04,sponge01,blankImage,blankImage,blankImage,blankImage,blankImage,blankImage,armadillo,,,,,,,,,,,,0,111,111,180,,,,,,,,,,,,,,,,,,,,,,,,,,,,,,,,,,,693.5828986999986,694.5981310000061,694.5648114000069,695.1603634000057,695.1603634000057,None,696.556607999999,None,left,0.9412804000021424,696.556607999999,None,697.5189532999939,None,right,0.4914947000070242,697.5189532999939,None,,,,,,,,,,,,,,,,,,,,,,,PPT17,001,2022-06-30_11h30.37.978,ABstudy,2022.1.4,59.94531788510642,
AB,Lag5_T1A_T2P,5,A,P,7,12,6,4,16,ear,Did you see the ear?,0.12,0.016,JPG\,candle01,shirt02,brick,orange,greenolive,toothbrush03b,pizza,thermometer02b,book01b,toiletpaper01a,sewingmachine01a,stapler01,candy,cymbal,potato02b,plate01b,blankImage,chair,,,,,,,,,,,,0,112,112,257,,,,,,,,,,,,,,,,,,,,,,,,,,,,,,,,,,,698.0397884999984,699.0524645999976,699.0357407999982,699.6061917000043,699.6061917000043,None,701.5249707000039,None,right,0.7736296999937622,701.5249707000039,None,702.322490599996,None,left,0.30308770001283847,702.322490599996,None,,,,,,,,,,,,,,,,,,,,,,,PPT17,001,2022-06-30_11h30.37.978,ABstudy,2022.1.4,59.94531788510642,
AB,Lag5_T1P_T2P,5,P,P,5,10,4,5,15,funnel,Did you see the funnel?,0.12,0.016,JPG\,pineapple01a,tennisball01b,computerkeyboard02,feather03a,funnel,acorn,violin,blueberry01,medal02b,stapler01,greenolive,screwdriver04b,potato02b,fork03c,cymbal,blankImage,blankImage,funnel,,,,,,,,,,,,0,113,113,109,,,,,,,,,,,,,,,,,,,,,,,,,,,,,,,,,,,702.6594768000068,703.6739166000043,703.6405754000007,704.2208238000021,704.2208238000021,None,705.9822035999969,None,left,0.7158224000013433,705.9822035999969,None,706.7271821000031,None,right,0.306869000007282,706.7271821000031,None,,,,,,,,,,,,,,,,,,,,,,,PPT17,001,2022-06-30_11h30.37.978,ABstudy,2022.1.4,59.94531788510642,
AB,Lag1_T1P_T2P,1,P,P,7,8,6,3,11,locker,Did you see the locker?,0.12,0.016,JPG\,toiletpaper01a,lipstick02a,potato02b,speaker04,globe,strawberry,locker,stapler04b,sock01a,candle08b,pen04b,blankImage,blankImage,blankImage,blankImage,blankImage,blankImage,locker,,,,,,,,,,,,0,114,114,19,,,,,,,,,,,,,,,,,,,,,,,,,,,,,,,,,,,707.0978558000061,708.1118145999935,708.0949808000005,708.749436500002,708.677011199994,None,709.995321800001,None,left,0.7342882999946596,709.995321800001,None,710.7478781999962,None,right,0.48695050000969786,710.7478781999962,None,,,,,,,,,,,,,,,,,,,,,,,PPT17,001,2022-06-30_11h30.37.978,ABstudy,2022.1.4,59.94531788510642,
AB,Lag1_T1P_T2P,1,P,P,7,8,6,3,11,Moose,Did you see the Moose?,0.12,0.016,JPG\,sock01a,spoon01,alligator,comb02a,printer02,medal02b,moose,stapler03a,greenolive,computerkeyboard02,cauliflower01,blankImage,blankImage,blankImage,blankImage,blankImage,blankImage,moose,,,,,,,,,,,,0,115,115,67,,,,,,,,,,,,,,,,,,,,,,,,,,,,,,,,,,,711.2700794999982,712.282816699997,712.2659866000031,712.8440766999993,712.8440766999993,None,714.2101791000023,None,left,0.640529800002696,714.2101791000023,None,714.871029700007,None,left,0.17843670000729617,714.871029700007,None,,,,,,,,,,,,,,,,,,,,,,,PPT17,001,2022-06-30_11h30.37.978,ABstudy,2022.1.4,59.94531788510642,
AB,Lag1_T1A_T2P,1,A,P,8,9,7,5,14,clock,Did you see the clock?,0.12,0.016,JPG\,speaker04,sewingmachine01a,eraser,violin,globe,belt02a,sunglasses04,cymbal,stapler01,greenolive,alligator,pear01,watch02a,screwdriver04b,blankImage,blankImage,blankImage,peacock,,,,,,,,,,,,0,116,116,240,,,,,,,,,,,,,,,,,,,,,,,,,,,,,,,,,,,715.0706494000042,716.0862077000056,716.052829399996,716.6524343000056,716.6524343000056,None,718.3250048000045,None,left,1.620801199998823,718.3250048000045,None,719.9733885000023,None,left,0.1563970999995945,719.9733885000023,None,,,,,,,,,,,,,,,,,,,,,,,PPT17,001,2022-06-30_11h30.37.978,ABstudy,2022.1.4,59.94531788510642,
AB,Lag1_T1P_T2A,1,P,A,5,6,4,5,11,Moon,Did you see the Moon?,0.12,0.016,JPG\,lamp04a,broccoli01a,alligator,garlic01a,moon,brownsugar,avocado01,ring01,leaf02a,cellphone,medal02b,blankImage,blankImage,blankImage,blankImage,blankImage,blankImage,moon,,,,,,,,,,,,0,117,117,190,,,,,,,,,,,,,,,,,,,,,,,,,,,,,,,,,,,720.159828200005,721.174685799997,721.1412582000048,721.7162944000011,721.7162944000011,None,723.0583984999976,None,right,1.0634142000053544,723.0583984999976,None,724.1442224000057,None,right,0.1774340999982087,724.1442224000057,None,,,,,,,,,,,,,,,,,,,,,,,PPT17,001,2022-06-30_11h30.37.978,ABstudy,2022.1.4,59.94531788510642,
AB,Lag5_T1A_T2P,5,A,P,6,11,5,4,15,butterfly,Did you see the butterfly?,0.12,0.016,JPG\,comb02a,key01,medal02b,battery02b,lighter01,microscope,watermelon01,sandal,pig,cellphone,stapler06,calculator01,cymbal,clock04,cucumber,blankImage,blankImage,uprightpiano01,,,,,,,,,,,,0,118,118,276,,,,,,,,,,,,,,,,,,,,,,,,,,,,,,,,,,,724.3467934000073,725.3622474000003,725.3287547000073,725.9054755999969,725.9054755999969,None,727.7205446000007,None,right,0.7850892999995267,727.7205446000007,None,728.5319299999974,None,right,0.20573880001029465,728.5319299999974,None,,,,,,,,,,,,,,,,,,,,,,,PPT17,001,2022-06-30_11h30.37.978,ABstudy,2022.1.4,59.94531788510642,
AB,Lag5_T1P_T2P,5,P,P,7,12,6,4,16,window,Did you see the window?,0.12,0.016,JPG\,cigarette,pig,banana01,strawberry,clock01a,plate01b,dormer,blueberry01,battery02b,pineapple01a,chain01,stapler01,candy,pen04b,teabag,birthdaycandle,blankImage,dormer,,,,,,,,,,,,0,119,119,170,,,,,,,,,,,,,,,,,,,,,,,,,,,,,,,,,,,728.8183681999944,729.8331292999937,729.8002018999978,730.3658539000025,730.3658539000025,None,732.2027856000059,None,left,0.9269314000121085,732.2027856000059,None,733.1531880999974,None,right,0.3522847999993246,733.1531880999974,None,,,,,,,,,,,,,,,,,,,,,,,PPT17,001,2022-06-30_11h30.37.978,ABstudy,2022.1.4,59.94531788510642,
AB,Lag5_T1P_T2P,5,P,P,6,11,5,3,14,shower head,Did you see the shower head?,0.12,0.016,JPG\,belt02a,measuringcup01,spoon01,chain01,greenolive,showerhead01,computerkeyboard02,onion,fan,strawberry,stapler01,broom01,binoculars01b,ashtray01,blankImage,blankImage,blankImage,showerhead01,,,,,,,,,,,,0,120,120,98,,,,,,,,,,,,,,,,,,,,,,,,,,,,,,,,,,,733.5400566000026,734.5546248000028,734.5378980999958,735.1243822999968,735.1243822999968,None,736.8594007000065,None,left,0.4940318000008119,736.8594007000065,None,737.3740910000051,None,left,0.1952541999926325,737.3740910000051,None,,,,,,,,,,,,,,,,,,,,,,,PPT17,001,2022-06-30_11h30.37.978,ABstudy,2022.1.4,59.94531788510642,
AB,Lag1_T1A_T2P,1,A,P,5,6,4,5,11,rake,Did you see the rake?,0.12,0.016,JPG\,candy,brownsugar,dice05a,cd,sock01a,stapler01,button01,potato02b,feather03a,grape01,dandelion,blankImage,blankImage,blankImage,blankImage,blankImage,blankImage,greatwhiteshark,,,,,,,,,,,,0,121,121,256,,,,,,,,,,,,,,,,,,,,,,,,,,,,,,,,,,,737.5930485999997,738.6085400000011,738.5752539999958,739.1493686000031,739.1493686000031,None,740.4277380999993,None,right,0.8059790999977849,740.4277380999993,None,741.2612389999995,None,left,0.5722051999910036,741.2612389999995,None,,,,,,,,,,,,,,,,,,,,,,,PPT17,001,2022-06-30_11h30.37.978,ABstudy,2022.1.4,59.94531788510642,
AB,Lag5_T1P_T2P,5,P,P,6,11,5,5,16,table,Did you see the table?,0.12,0.016,JPG\,birthdaycandle,mushroom01,strawberry,match,cherry01,table01,hammer01,thermometer02b,sock01a,ring01,stapler06,banana01,toiletpaper01a,key01,sponge01,teabag,blankImage,table01,,,,,,,,,,,,0,122,122,144,,,,,,,,,,,,,,,,,,,,,,,,,,,,,,,,,,,741.8640046000073,742.879538299996,742.8462242999958,743.3468028000061,743.3468028000061,None,745.3777931000077,None,left,0.5834099000057904,745.3777931000077,None,745.9826183999976,None,left,0.4185572999995202,745.9826183999976,None,,,,,,,,,,,,,,,,,,,,,,,PPT17,001,2022-06-30_11h30.37.978,ABstudy,2022.1.4,59.94531788510642,
AB,Lag5_T1P_T2A,5,P,A,6,11,5,5,16,fish,Did you see the fish?,0.12,0.016,JPG\,cucumber,ring01,lipstick02a,microscope,violin,redlionfish,celery,lighter01,cherry01,sewingmachine01a,belt02a,key01,binoculars01b,medal02b,watermelon01,dice05a,blankImage,redlionfish,,,,,,,,,,,,0,123,123,221,,,,,,,,,,,,,,,,,,,,,,,,,,,,,,,,,,,746.4351747000037,747.4507589999994,747.4173040000023,747.9879073000047,747.9879073000047,None,749.9437246000016,None,left,0.6035224000079324,749.9437246000016,None,750.5714716000075,None,left,0.19871310000598896,750.5714716000075,None,,,,,,,,,,,,,,,,,,,,,,,PPT17,001,2022-06-30_11h30.37.978,ABstudy,2022.1.4,59.94531788510642,
AB,Lag1_T1P_T2P,1,P,P,6,7,5,3,10,cupcake,Did you see the cupcake?,0.12,0.016,JPG\,printer02,leaf02a,cauliflower01,sock01a,brownsugar,cupcake,stapler01,orange,belt02a,shirt02,blankImage,blankImage,blankImage,blankImage,blankImage,blankImage,blankImage,cupcake,,,,,,,,,,,,0,124,124,38,,,,,,,,,,,,,,,,,,,,,,,,,,,,,,,,,,,750.8653226000024,751.8721061999968,751.8555491000006,752.4306971000042,752.4306971000042,None,753.6377530000027,None,left,0.7159588999929838,753.6377530000027,None,754.3743140000006,None,left,0.20341780000308063,754.3743140000006,None,,,,,,,,,,,,,,,,,,,,,,,PPT17,001,2022-06-30_11h30.37.978,ABstudy,2022.1.4,59.94531788510642,
AB,Lag5_T1P_T2P,5,P,P,7,12,6,4,16,flower,Did you see the flower?,0.12,0.016,JPG\,cucumber,sponge01,alligator,pear01,ashtray01,hammer01,hibiscusflower02,battery02b,fork03c,binoculars01b,mushroom01,stapler01,leaf02a,acorn,comb02a,screwdriver04b,blankImage,hibiscusflower02,,,,,,,,,,,,0,125,125,132,,,,,,,,,,,,,,,,,,,,,,,,,,,,,,,,,,,754.6104103999969,755.6255135999963,755.5922473999963,756.1743750000023,756.1743750000023,None,758.2128132000071,None,left,1.0857205000065733,758.2128132000071,None,759.3292762000056,None,left,0.17722019999928307,759.3292762000056,None,,,,,,,,,,,,,,,,,,,,,,,PPT17,001,2022-06-30_11h30.37.978,ABstudy,2022.1.4,59.94531788510642,
AB,Lag5_T1A_T2A,5,A,A,7,12,6,4,16,Eye,Did you see the Eye?,0.12,0.016,JPG\,rice,watermelon01,tableknife02,scarf,computerkeyboard02,cauliflower01,battery02b,binoculars01b,book01b,sandal,sponge01,microscope,tomato01,fork03c,thermometer02b,apple07,blankImage,scooter,,,,,,,,,,,,0,126,126,302,,,,,,,,,,,,,,,,,,,,,,,,,,,,,,,,,,,759.5315550999949,760.5471388000005,760.5137225000071,761.0945413000009,761.0945413000009,None,763.0457428999944,None,right,0.9481089000037173,763.0457428999944,None,764.0177043000003,None,right,0.28811270000005607,764.0177043000003,None,,,,,,,,,,,,,,,,,,,,,,,PPT17,001,2022-06-30_11h30.37.978,ABstudy,2022.1.4,59.94531788510642,
AB,Lag1_T1A_T2P,1,A,P,8,9,7,3,12,elbow,Did you see the elbow?,0.12,0.016,JPG\,watermelon01,cigarette,faucet,cymbal,cauliflower01,feather03a,cherry01,broom01,stapler01,key01,baseball01a,iron01b,blankImage,blankImage,blankImage,blankImage,blankImage,cashregister01,,,,,,,,,,,,0,127,127,251,,,,,,,,,,,,,,,,,,,,,,,,,,,,,,,,,,,764.3391631999984,765.3521692000068,765.3356242000009,765.9122683000023,765.9122683000023,None,767.4087421000004,None,right,0.7695238000014797,767.4087421000004,None,768.2051184000011,None,left,0.29331040001125075,768.2051184000011,None,,,,,,,,,,,,,,,,,,,,,,,PPT17,001,2022-06-30_11h30.37.978,ABstudy,2022.1.4,59.94531788510642,
AB,Lag1_T1P_T2P,1,P,P,6,7,5,3,10,drum sticks,Did you see the drum sticks?,0.12,0.016,JPG\,pineapple01a,tennisball01b,computerkeyboard02,feather03a,belt02a,drumstick,stapler03b,blueberry01,medal02b,alligator,blankImage,blankImage,blankImage,blankImage,blankImage,blankImage,blankImage,drumstick,,,,,,,,,,,,0,128,128,61,,,,,,,,,,,,,,,,,,,,,,,,,,,,,,,,,,,768.527268100006,769.5395883000019,769.5230689000018,770.1175755000004,770.1175755000004,None,771.2416741000052,None,left,0.768072699996992,771.2416741000052,None,772.0419105000037,None,right,0.3598521000094479,772.0419105000037,None,,,,,,,,,,,,,,,,,,,,,,,PPT17,001,2022-06-30_11h30.37.978,ABstudy,2022.1.4,59.94531788510642,
AB,Lag1_T1P_T2A,1,P,A,5,6,4,5,11,Sailboat,Did you see the Sailboat?,0.12,0.016,JPG\,chain01,speaker04,avocado01,watermelon01,sailboat,comb02a,lamp04a,fork03c,toaster01,slipper03b,scissors01,blankImage,blankImage,blankImage,blankImage,blankImage,blankImage,sailboat,,,,,,,,,,,,0,129,129,193,,,,,,,,,,,,,,,,,,,,,,,,,,,,,,,,,,,772.4282730999985,773.4433098000009,773.4098936999944,773.9898889000033,773.9898889000033,None,775.3938407999958,None,left,0.7288736000045901,775.3938407999958,None,776.1463693999976,None,right,0.30355820000113454,776.1463693999976,None,,,,,,,,,,,,,,,,,,,,,,,PPT17,001,2022-06-30_11h30.37.978,ABstudy,2022.1.4,59.94531788510642,
AB,Lag5_T1A_T2P,5,A,P,5,10,4,5,15,Sushi,Did you see the Sushi?,0.12,0.016,JPG\,pineapple01a,leaf02a,grape01,toiletpaper01a,match,tennisball01b,spoon01,chain01,pig,stapler04b,ring01,lemon02,dice05a,pizza,potato02b,blankImage,blankImage,crown,,,,,,,,,,,,0,130,130,285,,,,,,,,,,,,,,,,,,,,,,,,,,,,,,,,,,,776.484712000005,777.4975947000057,777.4808086999983,778.0538713999995,778.0538713999995,None,779.9029025000054,None,right,0.7078705000021728,779.9029025000054,None,780.6342651000014,None,left,0.2874885000055656,780.6342651000014,None,,,,,,,,,,,,,,,,,,,,,,,PPT17,001,2022-06-30_11h30.37.978,ABstudy,2022.1.4,59.94531788510642,
AB,Lag1_T1A_T2P,1,A,P,6,7,5,5,12,Ostrich,Did you see the Ostrich?,0.12,0.016,JPG\,thermometer02b,candle08b,comb02a,toothbrush03b,brick,computerkeyboard02,stapler05,pineapple01a,candy,birthdaycandle,clock04,hairclip03,blankImage,blankImage,blankImage,blankImage,blankImage,discoball,,,,,,,,,,,,0,131,131,232,,,,,,,,,,,,,,,,,,,,,,,,,,,,,,,,,,,780.9592354000051,781.9690966000053,781.9536541999987,782.5895515000011,782.5895515000011,None,783.9633448999957,None,right,0.9660468000074616,783.9633448999957,None,784.954717200002,None,left,0.31844709999859333,784.954717200002,None,,,,,,,,,,,,,,,,,,,,,,,PPT17,001,2022-06-30_11h30.37.978,ABstudy,2022.1.4,59.94531788510642,
AB,Lag1_T1P_T2P,1,P,P,5,6,4,5,11,beaver,Did you see the beaver?,0.12,0.016,JPG\,belt02a,sunglasses04,computerkeyboard02,cherry01,beaver,stapler03a,watch02a,dice05a,blueberry01,spoon01,match,blankImage,blankImage,blankImage,blankImage,blankImage,blankImage,beaver,,,,,,,,,,,,0,132,132,55,,,,,,,,,,,,,,,,,,,,,,,,,,,,,,,,,,,785.3076956000004,786.3227570000017,786.2894390000001,786.8722829000035,786.8722829000035,None,788.2088377000036,None,left,0.7850135000044247,788.2088377000036,None,789.0255509999988,None,left,0.39334720000624657,789.0255509999988,None,,,,,,,,,,,,,,,,,,,,,,,PPT17,001,2022-06-30_11h30.37.978,ABstudy,2022.1.4,59.94531788510642,
AB,Lag1_T1P_T2P,1,P,P,7,8,6,3,11,cloud,Did you see the cloud?,0.12,0.016,JPG\,lighter01,hammer01,spoon01,chain01,cymbal,sponge01,cloud,stapler06,pig,watermelon01,cauliflower01,blankImage,blankImage,blankImage,blankImage,blankImage,blankImage,cloud,,,,,,,,,,,,0,133,133,36,,,,,,,,,,,,,,,,,,,,,,,,,,,,,,,,,,,789.4447310999967,790.4602448000078,790.4269234999956,791.0073542000027,791.0073542000027,None,792.3362142999977,None,left,0.7377371000038693,792.3362142999977,None,793.0966305000038,None,right,0.3292077999940375,793.0966305000038,None,,,,,,,,,,,,,,,,,,,,,,,PPT17,001,2022-06-30_11h30.37.978,ABstudy,2022.1.4,59.94531788510642,
AB,Lag5_T1P_T2A,5,P,A,5,10,4,4,14,rocket,Did you see the rocket?,0.12,0.016,JPG\,fan,tomato01,candy,screwdriver04b,spacerocket,cd,thermometer02b,apple07,button01,plate01b,brownsugar,lighter01,clock01a,envelope03a,blankImage,blankImage,blankImage,spacerocket,,,,,,,,,,,,0,134,134,226,,,,,,,,,,,,,,,,,,,,,,,,,,,,,,,,,,,793.4509470000048,794.4644766999991,794.4476088999945,795.0422675000009,795.0422675000009,None,796.7353915999993,None,left,1.0265648000058718,796.7353915999993,None,797.7846857999975,None,right,0.6013663999910932,797.7846857999975,None,,,,,,,,,,,,,,,,,,,,,,,PPT17,001,2022-06-30_11h30.37.978,ABstudy,2022.1.4,59.94531788510642,
AB,Lag1_T1P_T2A,1,P,A,7,8,6,5,13,Well,Did you see the Well?,0.12,0.016,JPG\,leaf02a,apple07,cd,pineapple01a,envelope03a,paintbrush01,well,acorn,rice,feather03a,lemon02,balloon01b,avocado01,blankImage,blankImage,blankImage,blankImage,well,,,,,,,,,,,,0,135,135,178,,,,,,,,,,,,,,,,,,,,,,,,,,,,,,,,,,,798.4214894000033,799.436025899995,799.4193188000063,800.0599893000035,799.9876209000067,None,801.5730218999961,None,left,0.8364809000049718,801.5730218999961,None,802.4388564999972,None,right,0.2745009000063874,802.4388564999972,None,,,,,,,,,,,,,,,,,,,,,,,PPT17,001,2022-06-30_11h30.37.978,ABstudy,2022.1.4,59.94531788510642,
AB,Lag5_T1P_T2A,5,P,A,8,13,7,3,16,Shelves,Did you see the Shelves?,0.12,0.016,JPG\,pineapple01a,leaf02a,grape01,toiletpaper01a,match,tennisball01b,spoon01,shelves,pig,measuringcup01,ring01,lemon02,dice05a,pizza,potato02b,eraser,blankImage,shelves,,,,,,,,,,,,0,136,136,222,,,,,,,,,,,,,,,,,,,,,,,,,,,,,,,,,,,802.7435234000004,803.7569014000037,803.7402062000037,804.3207001999981,804.3207001999981,None,806.2405460000009,None,left,0.7859520999918459,806.2405460000009,None,807.0445371999958,None,right,0.32621080000535585,807.0445371999958,None,,,,,,,,,,,,,,,,,,,,,,,PPT17,001,2022-06-30_11h30.37.978,ABstudy,2022.1.4,59.94531788510642,
AB,Lag1_T1P_T2P,1,P,P,8,9,7,5,14,finger print,Did you see the finger print?,0.12,0.016,JPG\,chain01,pen04b,birthdaycandle,watermelon01,broom01,scissors01,measuringcup01,fingerprint,stapler01,calculator01,ashtray01,feather03a,sewingmachine01a,thermometer02b,blankImage,blankImage,blankImage,fingerprint,,,,,,,,,,,,0,137,137,62,,,,,,,,,,,,,,,,,,,,,,,,,,,,,,,,,,,807.466505999997,808.4783572000015,808.461638000008,809.0849288000027,809.0849288000027,None,810.6994157000008,None,left,0.5906087999901501,810.6994157000008,None,811.3155226999952,None,left,0.24624100000073668,811.3155226999952,None,,,,,,,,,,,,,,,,,,,,,,,PPT17,001,2022-06-30_11h30.37.978,ABstudy,2022.1.4,59.94531788510642,
