TrialType,CondType,Lag,T1_PA,T2_PA,T1Loc,T2Loc,PreDistractor,PostDistractor,TotalImg,cueWord,T1cue,StimLength,isi,PicFolder,Img1,Img2,Img3,Img4,Img5,Img6,Img7,Img8,Img9,Img10,Img11,Img12,Img13,Img14,Img15,Img16,Img17,T1_Identity,ImageType,T1PA,T2PA,Picture,Image,FullPathName,FilePath,Practice_Trials.thisRepN,Practice_Trials.thisTrialN,Practice_Trials.thisN,Practice_Trials.thisIndex,trials.thisRepN,trials.thisTrialN,trials.thisN,trials.thisIndex,trials_2.thisRepN,trials_2.thisTrialN,trials_2.thisN,trials_2.thisIndex,Practice_Ins.started,Practice_Ins.stopped,End_Prac_Ins.keys,End_Prac_Ins.rt,End_Prac_Ins.started,End_Prac_Ins.stopped,text_2.started,text_2.stopped,Fixation_Cross_2.started,Fixation_Cross_2.stopped,Rapid_Image_Present_2.started,Rapid_Image_Present_2.stopped,key_resp.keys,key_resp.rt,key_resp.started,key_resp.stopped,T1Response_2.started,T1Response_2.stopped,T2Response_2.started,T2Response_2.stopped,key_resp_4.keys,key_resp_4.rt,key_resp_4.started,key_resp_4.stopped,text.started,text.stopped,End_Instructions.keys,End_Instructions.rt,End_Instructions.started,End_Instructions.stopped,text_5.started,text_5.stopped,FC.started,FC.stopped,Rapid_Image_Present.started,Rapid_Image_Present.stopped,T1Response.started,T1Response.stopped,key_resp_2.keys,key_resp_2.rt,key_resp_2.started,key_resp_2.stopped,T2Response.started,T2Response.stopped,key_resp_3.keys,key_resp_3.rt,key_resp_3.started,key_resp_3.stopped,text_6.started,text_6.stopped,Fin_ins.keys,Fin_ins.rt,Fin_ins.started,Fin_ins.stopped,MemTest.started,MemTest.stopped,MemResponse.keys,MemResponse.rt,MemResponse.started,MemResponse.stopped,Display.started,Display.stopped,text_7.started,text_7.stopped,endOfExperiment.started,endOfExperiment.stopped,key_resp_5.keys,key_resp_5.rt,key_resp_5.started,key_resp_5.stopped,participant,session,date,expName,psychopyVersion,frameRate,
,,,,,,,,,,,,,,,,,,,,,,,,,,,,,,,,,,,,,,,,,,,,,,,,,,,,15.953800000002957,None,space,57.689227499999106,15.953800000002957,None,,,,,,,,,,,,,,,,,,,,,,,,,,,,,,,,,,,,,,,,,,,,,,,,,,,,,,,,,,,,,,,,,PPT16,001,2022-06-30_10h36.41.165,ABstudy,2022.1.4,59.94273071513893,
AB_Prac,Lag5_T1P_T2P,5,P,P,5,10,4,5,15,washing machine,Did you see the washing machine?,0.5,0.016,JPG\,waterbottle03,wheel01,flashlight02b,zucchini01,washingmachine,headphones02b,nutcracker01,paintroller01,paperclip03,stapler06,ribbon04,electricrazor,bottleofredwine01,pitabread,pot02a,blankImage,blankImage,washingmachine,,,,,,,,0,0,0,4,,,,,,,,,,,,,,,73.72878659999697,74.7394867999974,74.72281300000031,75.339238200002,75.339238200002,None,left,1.62028439999267,82.93439229999785,None,82.93439229999785,None,84.58400859999529,None,left,0.794480399999884,84.58400859999529,None,,,,,,,,,,,,,,,,,,,,,,,,,,,,,,,,,,,,,,,,,,,,,,,PPT16,001,2022-06-30_10h36.41.165,ABstudy,2022.1.4,59.94273071513893,
AB_Prac,Lag1_T1P_T2P,1,P,P,6,7,5,5,12,triangle,Did you see the triangle?,0.5,0.016,JPG\,ginger,mousetrap,plum01,slipper01b,dropper01,triangle,stapler04b,pants,raspberry01,rope03,scale01a,vase01,blankImage,blankImage,blankImage,blankImage,blankImage,triangle,,,,,,,,0,1,1,1,,,,,,,,,,,,,,,85.40749610000057,86.41799139999785,86.40132340000127,86.99964690000343,86.99964690000343,None,left,1.0750678000040352,93.03217560000485,None,93.03217560000485,None,94.12591170000087,None,left,0.43687030000728555,94.12591170000087,None,,,,,,,,,,,,,,,,,,,,,,,,,,,,,,,,,,,,,,,,,,,,,,,PPT16,001,2022-06-30_10h36.41.165,ABstudy,2022.1.4,59.94273071513893,
AB_Prac,Lag5_T1P_T2A,5,P,A,6,11,5,5,16,Wheat,Did you see the Wheat?,0.5,0.016,JPG\,bottleopener01,dentalfloss03b,cooler01,icecreamcone01a,paperclip01b,wheat,pencilsharpener02a,plasticbasket01a,toycar04,apricot,hairclip02,rock01a,honeydewmelon,antenna,blackberry,cardboardbox,blankImage,wheat,,,,,,,,0,2,2,7,,,,,,,,,,,,,,,94.5995980000007,95.61057669999718,95.59381540000322,96.15969159999804,96.15969159999804,None,left,2.295116599998437,104.17198559999815,None,104.17198559999815,None,106.49041650000436,None,right,0.8720903000066755,106.49041650000436,None,,,,,,,,,,,,,,,,,,,,,,,,,,,,,,,,,,,,,,,,,,,,,,,PPT16,001,2022-06-30_10h36.41.165,ABstudy,2022.1.4,59.94273071513893,
AB_Prac,Lag5_T1P_T2A,5,P,A,6,11,5,5,16,bread,Did you see the bread?,0.5,0.016,JPG\,cleaver01,clipboard,dustpan,hikingshoe01,notebook03a,baguette01,playingcard,pliers02b,styrofoamcup,rollingpin01a,swimgoggles,wineglass01,fryingpan02a,safetypin,syringe01,thimble,blankImage,baguette01,,,,,,,,0,3,3,8,,,,,,,,,,,,,,,107.39064680000592,108.38966610000352,108.37302959999943,108.98732200000086,108.98732200000086,None,left,1.108077199998661,117.10208569999668,None,117.10208569999668,None,118.23316089999571,None,right,0.6103926000068896,118.23316089999571,None,,,,,,,,,,,,,,,,,,,,,,,,,,,,,,,,,,,,,,,,,,,,,,,PPT16,001,2022-06-30_10h36.41.165,ABstudy,2022.1.4,59.94273071513893,
AB_Prac,Lag5_T1A_T2P,5,A,P,6,11,5,3,14,dog,Did you see the dog?,0.5,0.016,JPG\,bucket01a,doorlock,cookiecutter,fireextinguisher01,gluestick,highlighter02b,sportbag,spraybottle01,suitcase,thread02,stapler05,walnut01c,icecubetray01a,vikingmask01b,blankImage,blankImage,blankImage,None,,,,,,,,0,4,4,9,,,,,,,,,,,,,,,118.8704732000042,119.88465290000022,119.8680788000056,120.51904080000531,120.43653740000445,None,right,1.2795220999978483,127.5396366000059,None,127.5396366000059,None,128.84340820000216,None,left,1.1834929999895394,128.84340820000216,None,,,,,,,,,,,,,,,,,,,,,,,,,,,,,,,,,,,,,,,,,,,,,,,PPT16,001,2022-06-30_10h36.41.165,ABstudy,2022.1.4,59.94273071513893,
AB_Prac,Lag1_T1A_T2A,1,A,A,8,9,7,3,12,Moose,Did you see the Moose?,0.5,0.016,JPG\,clothespin03b,corkscrew03a,drillbit03a,fusilli03a,needlenosepliers01,perfume01a,pistachio,scrubbingbrush05b,spatula03,toothpastetube,hinge,toydinosaur,blankImage,blankImage,blankImage,blankImage,blankImage,None,,,,,,,,0,5,5,10,,,,,,,,,,,,,,,130.0504140999983,131.06228169999667,131.04557689999638,131.6298906000011,131.6298906000011,None,right,1.4558337000053143,137.69120309999562,None,137.69120309999562,None,139.17028299999947,None,right,0.5039128999924287,139.17028299999947,None,,,,,,,,,,,,,,,,,,,,,,,,,,,,,,,,,,,,,,,,,,,,,,,PPT16,001,2022-06-30_10h36.41.165,ABstudy,2022.1.4,59.94273071513893,
AB_Prac,Lag5_T1P_T2P,5,P,P,5,10,4,5,15,Vulture,Did you see the Vulture?,0.5,0.016,JPG\,shorts01,toast,ramekin01,bib,vulture,cracker02,date,glasses01a,hat03b,stapler01,measuringtape01,nail,pill,drum01,starfish01,blankImage,blankImage,vulture,,,,,,,,0,6,6,3,,,,,,,,,,,,,,,139.71180689999892,140.72183100000257,140.70514320000075,141.28957740000624,141.28957740000624,None,left,1.2495673000084935,148.79327880000346,None,148.79327880000346,None,150.06490470000426,None,left,1.2492242000007536,150.06490470000426,None,,,,,,,,,,,,,,,,,,,,,,,,,,,,,,,,,,,,,,,,,,,,,,,PPT16,001,2022-06-30_10h36.41.165,ABstudy,2022.1.4,59.94273071513893,
AB_Prac,Lag1_T1P_T2P,1,P,P,8,9,7,5,14,Tennis racket,Did you see the Tennis racket?,0.5,0.016,JPG\,coconut,computermouse06,croissant01,deodorant02a,pillow01a,peanut01,boot02b,tennisracket,stapler03b,crayon,eggplant,marker01a,plant01,radish01,blankImage,blankImage,blankImage,tennisracket,,,,,,,,0,7,7,0,,,,,,,,,,,,,,,151.42961199999263,152.4337771999999,152.4169533999957,153.0369689999934,153.0369689999934,None,left,1.3634758999978658,159.9035070999962,None,159.9035070999962,None,161.29228929999226,None,left,1.0225455000036163,161.29228929999226,None,,,,,,,,,,,,,,,,,,,,,,,,,,,,,,,,,,,,,,,,,,,,,,,PPT16,001,2022-06-30_10h36.41.165,ABstudy,2022.1.4,59.94273071513893,
AB_Prac,Lag5_T1A_T2A,5,A,A,6,11,5,5,16,castle,Did you see the castle?,0.5,0.016,JPG\,tape02a,englishmuffin,flask,ladle02a,monitor,peach01,keychain,squeegee01b,telephone01b,whisk,walkman,syringe02,baguette01,coaster,box01a,coffeepot03a,blankImage,None,,,,,,,,0,8,8,11,,,,,,,,,,,,,,,162.34542490000604,163.36110429999826,163.3277226999926,163.92560519999824,163.92560519999824,None,right,1.3214074999996228,171.96873520000372,None,171.96873520000372,None,173.32100880000507,None,right,0.5532592999952612,173.32100880000507,None,,,,,,,,,,,,,,,,,,,,,,,,,,,,,,,,,,,,,,,,,,,,,,,PPT16,001,2022-06-30_10h36.41.165,ABstudy,2022.1.4,59.94273071513893,
AB_Prac,Lag1_T1P_T2A,1,P,A,5,6,4,5,11,Webcam,Did you see the Webcam?,0.5,0.016,JPG\,pictureframe04,binder03b,straw,adjustablewrench01b,webcam,cane,hairdryer02a,icepack,kitchenscale01a,lifejacket,piggybank,blankImage,blankImage,blankImage,blankImage,blankImage,blankImage,webcam,,,,,,,,0,9,9,6,,,,,,,,,,,,,,,173.90695839999535,174.9225615000032,174.88922250000178,175.47513479999907,175.47513479999907,None,left,1.1868787999992492,180.99989859999914,None,180.99989859999914,None,182.21317309999722,None,right,1.0779051999998046,182.21317309999722,None,,,,,,,,,,,,,,,,,,,,,,,,,,,,,,,,,,,,,,,,,,,,,,,PPT16,001,2022-06-30_10h36.41.165,ABstudy,2022.1.4,59.94273071513893,
AB_Prac,Lag1_T1P_T2A,1,P,A,8,9,7,5,14,flower,Did you see the flower?,0.5,0.016,JPG\,razor01,axe01,binder03b,bowl01,kettle01,lettuce,lime,plasticflower01b,mitten04,pencilcase01,plunger02,strawbasket01,toothpick02,wallet02a,blankImage,blankImage,blankImage,plasticflower01b,,,,,,,,0,10,10,5,,,,,,,,,,,,,,,183.3198301999946,184.33255019999342,184.31701909999538,184.89839230000507,184.89839230000507,None,left,1.0989092999952845,191.93521149999287,None,191.93521149999287,None,193.05729799999972,None,right,0.9452981999929762,193.05729799999972,None,,,,,,,,,,,,,,,,,,,,,,,,,,,,,,,,,,,,,,,,,,,,,,,PPT16,001,2022-06-30_10h36.41.165,ABstudy,2022.1.4,59.94273071513893,
AB_Prac,Lag5_T1P_T2P,5,P,P,7,12,6,3,15,vacuum,Did you see the vacuum?,0.5,0.016,JPG\,fork07b,lightbulb01,manshoe,saw02b,shoelace,soap03a,vacuumcleaner01,floortile01,necklace,doll,cabbage,stapler03a,hanger02a,laptop01a,nailpolish03b,blankImage,blankImage,vacuumcleaner01,,,,,,,,0,11,11,2,,,,,,,,,,,,,,,194.0294886000047,195.04287799999292,195.0260930999939,195.59495759999845,195.59495759999845,None,left,1.278673599998001,203.1479537999985,None,203.1479537999985,None,204.4522980000038,None,left,0.47758710000198334,204.4522980000038,None,,,,,,,,,,,,,,,,,,,,,,,,,,,,,,,,,,,,,,,,,,,,,,,PPT16,001,2022-06-30_10h36.41.165,ABstudy,2022.1.4,59.94273071513893,
,,,,,,,,,,,,,,,,,,,,,,,,,,,,,,,,,,,,,,,,,,,,,,,,,,,,,,,,,,,,,,,,,,,,,,,,,,,,204.95277020000503,None,space,17.186681100007263,204.95277020000503,None,,,,,,,,,,,,,,,,,,,,,,,,,,,,,,,,,,,,,,,,,PPT16,001,2022-06-30_10h36.41.165,ABstudy,2022.1.4,59.94273071513893,
AB,Lag1_T1A_T2P,1,A,P,5,6,4,3,9,Stool,Did you see the Stool?,0.12,0.016,JPG\,cherry01,cymbal,envelope03a,foosballtable,shirt02,stapler01,sewingmachine01a,candle08b,battery02b,blankImage,blankImage,blankImage,blankImage,blankImage,blankImage,blankImage,blankImage,hulahoop,,,,,,,,,,,,0,0,0,236,,,,,,,,,,,,,,,,,,,,,,,,,,,,,,,,,,,222.75887099999818,223.77120309999736,223.75451719999546,224.3699792999978,224.3699792999978,None,225.50128440000117,None,right,2.2464275999955134,225.50128440000117,None,227.7754852999933,None,left,0.7549566999950912,227.7754852999933,None,,,,,,,,,,,,,,,,,,,,,,,PPT16,001,2022-06-30_10h36.41.165,ABstudy,2022.1.4,59.94273071513893,
AB,Lag1_T1P_T2P,1,P,P,6,7,5,3,10,jelly beans,Did you see the jelly beans?,0.12,0.016,JPG\,lipstick02a,cucumber,candle08b,printer02,grape01,jellybean,stapler01,lighter01,belt02a,balloon01b,blankImage,blankImage,blankImage,blankImage,blankImage,blankImage,blankImage,jellybean,,,,,,,,,,,,0,1,1,15,,,,,,,,,,,,,,,,,,,,,,,,,,,,,,,,,,,228.56190109999443,229.5771636999998,229.54374819999794,230.12331480000285,230.12331480000285,None,231.34489649999887,None,left,1.3538390000030631,231.34489649999887,None,232.73009979999915,None,left,0.6876937000051839,232.73009979999915,None,,,,,,,,,,,,,,,,,,,,,,,PPT16,001,2022-06-30_10h36.41.165,ABstudy,2022.1.4,59.94273071513893,
AB,Lag1_T1P_T2A,1,P,A,6,7,5,5,12,foot,Did you see the foot?,0.12,0.016,JPG\,watermelon01,cigarette,weight04a,cymbal,cauliflower01,foot,cherry01,broom01,battery02b,key01,baseball01a,iron01b,blankImage,blankImage,blankImage,blankImage,blankImage,foot,,,,,,,,,,,,0,2,2,188,,,,,,,,,,,,,,,,,,,,,,,,,,,,,,,,,,,233.44951449999644,234.46519059999264,234.43181729999196,235.0161386999971,235.0161386999971,None,236.5003679999936,None,left,1.2785277999937534,236.5003679999936,None,237.8017564000038,None,right,0.6161027000052854,237.8017564000038,None,,,,,,,,,,,,,,,,,,,,,,,PPT16,001,2022-06-30_10h36.41.165,ABstudy,2022.1.4,59.94273071513893,
AB,Lag1_T1P_T2P,1,P,P,5,6,4,5,11,football,Did you see the football?,0.12,0.016,JPG\,globe,belt02a,sponge01,violin,soccerball,stapler01,clock01a,microscope,balloon01b,scarf,teabag,blankImage,blankImage,blankImage,blankImage,blankImage,blankImage,soccerball,,,,,,,,,,,,0,3,3,26,,,,,,,,,,,,,,,,,,,,,,,,,,,,,,,,,,,238.43890259999898,239.4534680999932,239.42003059999843,240.0094003999984,240.0094003999984,None,241.35676819999935,None,left,1.0696246000006795,241.35676819999935,None,242.45645110000623,None,left,0.36969459999818355,242.45645110000623,None,,,,,,,,,,,,,,,,,,,,,,,PPT16,001,2022-06-30_10h36.41.165,ABstudy,2022.1.4,59.94273071513893,
AB,Lag5_T1A_T2A,5,A,A,6,11,5,5,16,shrimp,Did you see the shrimp?,0.12,0.016,JPG\,speaker04,sewingmachine01a,eraser,violin,globe,belt02a,sunglasses04,cymbal,cd,greenolive,alligator,pear01,watch02a,screwdriver04b,banana01,cigarette,blankImage,rollerblade,,,,,,,,,,,,0,4,4,300,,,,,,,,,,,,,,,,,,,,,,,,,,,,,,,,,,,242.90867900000012,243.90814580000006,243.89133850000508,244.5103422999964,244.5103422999964,None,246.35088749999704,None,right,1.6352604999992764,246.35088749999704,None,248.01198470000236,None,left,0.5500668000022415,248.01198470000236,None,,,,,,,,,,,,,,,,,,,,,,,PPT16,001,2022-06-30_10h36.41.165,ABstudy,2022.1.4,59.94273071513893,
AB,Lag5_T1P_T2P,5,P,P,6,11,5,3,14,Poker chips,Did you see the Poker chips?,0.12,0.016,JPG\,iron01b,brick,broccoli01a,balloon01b,tomato01,pokerchips,sandal,teabag,scissors01,pineapple01a,stapler04b,measuringcup01,sock01a,book01b,blankImage,blankImage,blankImage,pokerchips,,,,,,,,,,,,0,5,5,154,,,,,,,,,,,,,,,,,,,,,,,,,,,,,,,,,,,248.58547890000045,249.5967859999946,249.5800639999943,250.15457640000386,250.15457640000386,None,251.87307729999884,None,left,1.0415290999953868,251.87307729999884,None,252.93398990000424,None,left,0.33261460000358056,252.93398990000424,None,,,,,,,,,,,,,,,,,,,,,,,PPT16,001,2022-06-30_10h36.41.165,ABstudy,2022.1.4,59.94273071513893,
AB,Lag1_T1P_T2P,1,P,P,6,7,5,5,12,owl,Did you see the owl?,0.12,0.016,JPG\,paintbrush01,eraser,medal02b,hammer01,speaker04,greathornowl,stapler01,comb02a,plate01b,clock01a,button01,globe,blankImage,blankImage,blankImage,blankImage,blankImage,greathornowl,,,,,,,,,,,,0,6,6,1,,,,,,,,,,,,,,,,,,,,,,,,,,,,,,,,,,,253.28793320000113,254.30184040000313,254.28512450000562,254.8682220000046,254.8682220000046,None,256.37755319999997,None,left,1.0406116000085603,256.37755319999997,None,257.4380536999961,None,left,0.5640756000066176,257.4380536999961,None,,,,,,,,,,,,,,,,,,,,,,,PPT16,001,2022-06-30_10h36.41.165,ABstudy,2022.1.4,59.94273071513893,
AB,Lag5_T1P_T2P,5,P,P,7,12,6,4,16,Recycling bin,Did you see the Recycling bin?,0.12,0.016,JPG\,broccoli01a,scissors01,toothbrush03b,foosballtable,iron01b,brick,recyclingbin,toiletpaper01a,cd,garlic01a,carrot01,stapler03a,envelope03a,battery02b,balloon01b,broom01,blankImage,recyclingbin,,,,,,,,,,,,0,7,7,157,,,,,,,,,,,,,,,,,,,,,,,,,,,,,,,,,,,258.0300055999978,259.03969209999195,259.0230096000014,259.61097249999875,259.61097249999875,None,261.549981499993,None,left,1.116124000007403,261.549981499993,None,262.6931220999977,None,left,0.3168617000046652,262.6931220999977,None,,,,,,,,,,,,,,,,,,,,,,,PPT16,001,2022-06-30_10h36.41.165,ABstudy,2022.1.4,59.94273071513893,
AB,Lag1_T1A_T2P,1,A,P,5,6,4,5,11,rake,Did you see the rake?,0.12,0.016,JPG\,candy,brownsugar,dice05a,cd,sock01a,stapler01,button01,potato02b,feather03a,grape01,dandelion,blankImage,blankImage,blankImage,blankImage,blankImage,blankImage,greatwhiteshark,,,,,,,,,,,,0,8,8,256,,,,,,,,,,,,,,,,,,,,,,,,,,,,,,,,,,,263.028776799998,264.04444800000056,264.01108280000335,264.5844120999973,264.5844120999973,None,265.8645642000047,None,right,1.4975463999871863,265.8645642000047,None,267.38122250000015,None,left,0.6447712999943178,267.38122250000015,None,,,,,,,,,,,,,,,,,,,,,,,PPT16,001,2022-06-30_10h36.41.165,ABstudy,2022.1.4,59.94273071513893,
AB,Lag1_T1P_T2A,1,P,A,8,9,7,5,14,Parrot,Did you see the Parrot?,0.12,0.016,JPG\,candy,brownsugar,dice05a,cd,sock01a,blueberry01,button01,parrot01,feather03a,grape01,dandelion,scissors01,watch02a,candle08b,blankImage,blankImage,blankImage,parrot01,,,,,,,,,,,,0,9,9,192,,,,,,,,,,,,,,,,,,,,,,,,,,,,,,,,,,,268.1884677000053,269.19999819999794,269.18319670000346,269.6854547999974,269.6854547999974,None,271.33022370000253,None,left,1.0413028000039048,271.33022370000253,None,272.402935399994,None,right,0.46341969999775756,272.402935399994,None,,,,,,,,,,,,,,,,,,,,,,,PPT16,001,2022-06-30_10h36.41.165,ABstudy,2022.1.4,59.94273071513893,
AB,Lag5_T1A_T2P,5,A,P,5,10,4,5,15,Sushi,Did you see the Sushi?,0.12,0.016,JPG\,pineapple01a,leaf02a,grape01,toiletpaper01a,match,tennisball01b,spoon01,chain01,pig,stapler04b,ring01,lemon02,dice05a,pizza,potato02b,blankImage,blankImage,crown,,,,,,,,,,,,0,10,10,285,,,,,,,,,,,,,,,,,,,,,,,,,,,,,,,,,,,272.8895169000025,273.9044591999991,273.8710444000026,274.4553426999919,274.4553426999919,None,276.32673780000187,None,left,2.0754223999974784,276.32673780000187,None,278.4255865000014,None,right,0.6165344000037294,278.4255865000014,None,,,,,,,,,,,,,,,,,,,,,,,PPT16,001,2022-06-30_10h36.41.165,ABstudy,2022.1.4,59.94273071513893,
AB,Lag5_T1P_T2P,5,P,P,7,12,6,4,16,Fireplace,Did you see the Fireplace?,0.12,0.016,JPG\,printer02,leaf02a,cauliflower01,sock01a,brownsugar,paintbrush01,fireplace,orange,belt02a,shirt02,key01,stapler01,cigarette,scissors01,envelope03a,blueberry01,blankImage,fireplace,,,,,,,,,,,,0,11,11,88,,,,,,,,,,,,,,,,,,,,,,,,,,,,,,,,,,,279.06655659999524,280.0774298000033,280.0606379999954,280.6530297999998,280.6530297999998,None,282.5963247000036,None,left,1.0869385999976657,282.5963247000036,None,283.71421979999286,None,left,1.4799762000038754,283.71421979999286,None,,,,,,,,,,,,,,,,,,,,,,,PPT16,001,2022-06-30_10h36.41.165,ABstudy,2022.1.4,59.94273071513893,
AB,Lag1_T1P_T2P,1,P,P,5,6,4,3,9,mail box,Did you see the mail box?,0.12,0.016,JPG\,watermelon01,banana01,ring01,pencil01,mailbox02,stapler04b,cucumber,thermometer02b,key01,blankImage,blankImage,blankImage,blankImage,blankImage,blankImage,blankImage,blankImage,mailbox02,,,,,,,,,,,,0,12,12,21,,,,,,,,,,,,,,,,,,,,,,,,,,,,,,,,,,,285.2204430999991,286.2333154999942,286.216723000005,286.8088656000036,286.8088656000036,None,287.9598401999974,None,left,1.0738979000016116,287.9598401999974,None,289.0532396000053,None,left,0.4047059000004083,289.0532396000053,None,,,,,,,,,,,,,,,,,,,,,,,PPT16,001,2022-06-30_10h36.41.165,ABstudy,2022.1.4,59.94273071513893,
AB,Lag1_T1P_T2P,1,P,P,8,9,7,3,12,Wheelchair,Did you see the Wheelchair?,0.12,0.016,JPG\,cigarette,pig,banana01,strawberry,clock01a,plate01b,spoon01,wheelchair,stapler03b,pineapple01a,chain01,paintbrush01,blankImage,blankImage,blankImage,blankImage,blankImage,wheelchair,,,,,,,,,,,,0,13,13,27,,,,,,,,,,,,,,,,,,,,,,,,,,,,,,,,,,,289.49085889999697,290.5046907999931,290.4879796000023,291.06111959999544,291.06111959999544,None,292.5262107000017,None,left,0.7327943000127561,292.5262107000017,None,293.29310989999794,None,right,0.32590380001056474,293.29310989999794,None,,,,,,,,,,,,,,,,,,,,,,,PPT16,001,2022-06-30_10h36.41.165,ABstudy,2022.1.4,59.94273071513893,
AB,Lag5_T1A_T2P,5,A,P,6,11,5,5,16,baseball bat,Did you see the baseball bat?,0.12,0.016,JPG\,avocado01,aceofdiamond,match,cauliflower01,paintbrush01,clock01a,pig,cd,balloon01b,cellphone,stapler01,pear01,toaster01,sponge01,orange,blueberry01,blankImage,stool01,,,,,,,,,,,,0,14,14,273,,,,,,,,,,,,,,,,,,,,,,,,,,,,,,,,,,,293.65170970000327,294.65821080000023,294.6415626999951,295.22109000000637,295.22109000000637,None,297.24529690000054,None,right,1.0047612999915145,297.24529690000054,None,298.2787001999968,None,right,0.4202198000130011,298.2787001999968,None,,,,,,,,,,,,,,,,,,,,,,,PPT16,001,2022-06-30_10h36.41.165,ABstudy,2022.1.4,59.94273071513893,
AB,Lag1_T1P_T2A,1,P,A,7,8,6,3,11,Seagull,Did you see the Seagull?,0.12,0.016,JPG\,toiletpaper01a,mushroom01,medal02b,sandal,rice,cd,seagull,pizza,candle08b,garlic01a,toaster01,blankImage,blankImage,blankImage,blankImage,blankImage,blankImage,seagull,,,,,,,,,,,,0,15,15,176,,,,,,,,,,,,,,,,,,,,,,,,,,,,,,,,,,,298.7318305999943,299.74682650000614,299.7134825999965,300.29944180000166,300.29944180000166,None,301.6330259999959,None,left,1.4096828999900026,301.6330259999959,None,303.0668067999941,None,right,0.7604607999965083,303.0668067999941,None,,,,,,,,,,,,,,,,,,,,,,,PPT16,001,2022-06-30_10h36.41.165,ABstudy,2022.1.4,59.94273071513893,
AB,Lag5_T1A_T2P,5,A,P,7,12,6,3,15,hockey puck,Did you see the hockey puck?,0.12,0.016,JPG\,toiletpaper01a,lipstick02a,potato02b,speaker04,globe,strawberry,carrot01,plate01b,sock01a,candle08b,pen04b,stapler04b,foosballtable,brick,pear01,blankImage,blankImage,frisbee,,,,,,,,,,,,0,16,16,260,,,,,,,,,,,,,,,,,,,,,,,,,,,,,,,,,,,303.85565129999304,304.8686450999958,304.8518824999919,305.4382292999944,305.4382292999944,None,307.25769440000295,None,right,1.7048262000025716,307.25769440000295,None,308.9893863000034,None,left,0.444158599988441,308.9893863000034,None,,,,,,,,,,,,,,,,,,,,,,,PPT16,001,2022-06-30_10h36.41.165,ABstudy,2022.1.4,59.94273071513893,
AB,Lag5_T1P_T2P,5,P,P,5,10,4,5,15,rake,Did you see the rake?,0.12,0.016,JPG\,scissors01,grape01,mushroom01,toiletpaper01a,leafrake,pizza,cigarette,ashtray01,carrot01,stapler03b,foosballtable,lipstick02a,teabag,acorn,potato02b,blankImage,blankImage,leafrake,,,,,,,,,,,,0,17,17,92,,,,,,,,,,,,,,,,,,,,,,,,,,,,,,,,,,,309.4585165000026,310.4742159000016,310.44073269999353,311.01389439999184,311.01389439999184,None,312.89948469999945,None,left,1.3279619999957504,312.89948469999945,None,314.244724499993,None,left,0.42869870000868104,314.244724499993,None,,,,,,,,,,,,,,,,,,,,,,,PPT16,001,2022-06-30_10h36.41.165,ABstudy,2022.1.4,59.94273071513893,
AB,Lag5_T1P_T2A,5,P,A,8,13,7,4,17,fountain,Did you see the fountain?,0.12,0.016,JPG\,printer02,envelope03a,potato02b,calculator01,tableknife02,cigarette,ashtray01,parkfountain,broom01,greenolive,candle08b,battery02b,strawberry,candle01,foosballtable,tennisball01b,blankImage,parkfountain,,,,,,,,,,,,0,18,18,219,,,,,,,,,,,,,,,,,,,,,,,,,,,,,,,,,,,314.7439425000048,315.74625379999634,315.72956550000526,316.3088982000045,316.3088982000045,None,318.2549859999999,None,left,0.9388494000013452,318.2549859999999,None,319.2165920999978,None,right,0.40105520001088735,319.2165920999978,None,,,,,,,,,,,,,,,,,,,,,,,PPT16,001,2022-06-30_10h36.41.165,ABstudy,2022.1.4,59.94273071513893,
AB,Lag1_T1P_T2A,1,P,A,5,6,4,4,10,paper airplane,Did you see the paper airplane?,0.12,0.016,JPG\,thermometer02b,avocado01,scissors01,tennisball01b,paperairplane,banana01,strawberry,cigarette,potato02b,pineapple01a,blankImage,blankImage,blankImage,blankImage,blankImage,blankImage,blankImage,paperairplane,,,,,,,,,,,,0,19,19,191,,,,,,,,,,,,,,,,,,,,,,,,,,,,,,,,,,,319.65793719999783,320.6678060999984,320.6510679000057,321.2354478000052,321.2354478000052,None,322.5096640999982,None,left,0.8041449000011198,322.5096640999982,None,323.337366199994,None,right,0.5603231999994023,323.337366199994,None,,,,,,,,,,,,,,,,,,,,,,,PPT16,001,2022-06-30_10h36.41.165,ABstudy,2022.1.4,59.94273071513893,
AB,Lag5_T1P_T2A,5,P,A,5,10,4,3,13,pin,Did you see the pin?,0.12,0.016,JPG\,candle01,fork03c,plate01b,violin,pin,candy,calculator01,paintbrush01,cherry01,sock01a,teabag,banana01,cd,blankImage,blankImage,blankImage,blankImage,pin,,,,,,,,,,,,0,20,20,215,,,,,,,,,,,,,,,,,,,,,,,,,,,,,,,,,,,323.92587409999396,324.93896679999307,324.92220420000376,325.513695799993,325.513695799993,None,327.10679479999817,None,right,1.2146069000009447,327.10679479999817,None,328.34194379999826,None,right,0.30753169998934027,328.34194379999826,None,,,,,,,,,,,,,,,,,,,,,,,PPT16,001,2022-06-30_10h36.41.165,ABstudy,2022.1.4,59.94273071513893,
AB,Lag1_T1P_T2P,1,P,P,8,9,7,3,12,Eiffel tower,Did you see the Eiffel tower?,0.12,0.016,JPG\,celery,tennisball01b,calculator01,pear01,screw02,orange,button01,eiffeltower,stapler03b,apple07,iron01b,brownsugar,blankImage,blankImage,blankImage,blankImage,blankImage,eiffeltower,,,,,,,,,,,,0,21,21,40,,,,,,,,,,,,,,,,,,,,,,,,,,,,,,,,,,,328.6823107999953,329.6936587999953,329.6769779000024,330.2659765999997,330.2659765999997,None,331.65728610000224,None,left,1.2496141000010539,331.65728610000224,None,332.9298851000058,None,right,0.4239653999975417,332.9298851000058,None,,,,,,,,,,,,,,,,,,,,,,,PPT16,001,2022-06-30_10h36.41.165,ABstudy,2022.1.4,59.94273071513893,
AB,Lag5_T1A_T2P,5,A,P,5,10,4,5,15,Eye patch,Did you see the Eye patch?,0.12,0.016,JPG\,scissors01,balloon01b,eraser,feather03a,banana01,candle01,measuringcup01,calculator01,thermometer02b,stapler03b,pear01,carrot01,globe,baseball01a,leaf02a,blankImage,blankImage,cross01,,,,,,,,,,,,0,22,22,258,,,,,,,,,,,,,,,,,,,,,,,,,,,,,,,,,,,333.3852335999982,334.3980009999941,334.3813053000049,334.95516689999204,334.95516689999204,None,336.76484000000346,None,right,0.9967896000016481,336.76484000000346,None,337.78509039999335,None,right,0.6647273999988101,337.78509039999335,None,,,,,,,,,,,,,,,,,,,,,,,PPT16,001,2022-06-30_10h36.41.165,ABstudy,2022.1.4,59.94273071513893,
AB,Lag1_T1A_T2P,1,A,P,5,6,4,3,9,barrel,Did you see the barrel?,0.12,0.016,JPG\,clock01a,cellphone,toaster01,toothbrush03b,cauliflower01,stapler01,comb02a,paintbrush01,scarf,blankImage,blankImage,blankImage,blankImage,blankImage,blankImage,blankImage,blankImage,sheep,,,,,,,,,,,,0,23,23,243,,,,,,,,,,,,,,,,,,,,,,,,,,,,,,,,,,,338.4734272999922,339.48667549999664,339.4699675000011,340.041985200005,340.041985200005,None,341.245574799992,None,right,1.2536628999951063,341.245574799992,None,342.5230467999936,None,left,0.8386270000046352,342.5230467999936,None,,,,,,,,,,,,,,,,,,,,,,,PPT16,001,2022-06-30_10h36.41.165,ABstudy,2022.1.4,59.94273071513893,
AB,Lag1_T1P_T2P,1,P,P,5,6,4,3,9,elephant,Did you see the elephant?,0.12,0.016,JPG\,celery,brownsugar,key01,sunglasses04,arugula,stapler04b,dice05a,tennisball01b,scarf,blankImage,blankImage,blankImage,blankImage,blankImage,blankImage,blankImage,blankImage,arugula,,,,,,,,,,,,0,24,24,54,,,,,,,,,,,,,,,,,,,,,,,,,,,,,,,,,,,343.39053020000574,344.3915494999965,344.3747607999976,344.9607204000058,344.9607204000058,None,346.0468564000039,None,right,1.4909091999870725,346.0468564000039,None,347.5610455999995,None,left,0.45643760000530165,347.5610455999995,None,,,,,,,,,,,,,,,,,,,,,,,PPT16,001,2022-06-30_10h36.41.165,ABstudy,2022.1.4,59.94273071513893,
AB,Lag1_T1P_T2P,1,P,P,5,6,4,5,11,golf ball,Did you see the golf ball?,0.12,0.016,JPG\,foosballtable,cigarette,pen04b,birthdaycandle,golfball,stapler05,binoculars01b,chain01,potato02b,cauliflower01,paintbrush01,blankImage,blankImage,blankImage,blankImage,blankImage,blankImage,golfball,,,,,,,,,,,,0,25,25,13,,,,,,,,,,,,,,,,,,,,,,,,,,,,,,,,,,,348.0493184999941,349.0629130000016,349.04622790000576,349.5467245000036,349.5467245000036,None,350.92485670000315,None,left,1.1100676999922143,350.92485670000315,None,352.06558939999377,None,right,0.504203000004054,352.06558939999377,None,,,,,,,,,,,,,,,,,,,,,,,PPT16,001,2022-06-30_10h36.41.165,ABstudy,2022.1.4,59.94273071513893,
AB,Lag1_T1P_T2P,1,P,P,6,7,5,3,10,windmill,Did you see the windmill?,0.12,0.016,JPG\,pizza,printer02,medal02b,spoon01,grape01,windmill,stapler04b,watermelon01,celery,battery02b,blankImage,blankImage,blankImage,blankImage,blankImage,blankImage,blankImage,windmill,,,,,,,,,,,,0,26,26,75,,,,,,,,,,,,,,,,,,,,,,,,,,,,,,,,,,,352.60155659999873,353.617121999996,353.58378169999924,354.1735369999951,354.1735369999951,None,355.40503150000586,None,left,0.8850009000016144,355.40503150000586,None,356.31982140000036,None,right,0.41825580000295304,356.31982140000036,None,,,,,,,,,,,,,,,,,,,,,,,PPT16,001,2022-06-30_10h36.41.165,ABstudy,2022.1.4,59.94273071513893,
AB,Lag5_T1P_T2P,5,P,P,7,12,6,5,17,truck,Did you see the truck?,0.12,0.016,JPG\,binoculars01b,speaker04,sandal,envelope03a,plate01b,comb02a,boxtruck,chain01,measuringcup01,key01,medal02b,stapler05,tennisball01b,pizza,cigarette,sunglasses04,blankImage,boxtruck,,,,,,,,,,,,0,27,27,166,,,,,,,,,,,,,,,,,,,,,,,,,,,,,,,,,,,356.77331550000235,357.7879479999974,357.7546049999946,358.3393936999928,358.3393936999928,None,360.4007094999979,None,left,0.8086490999994567,360.4007094999979,None,361.2414277999924,None,left,0.37702790000184905,361.2414277999924,None,,,,,,,,,,,,,,,,,,,,,,,PPT16,001,2022-06-30_10h36.41.165,ABstudy,2022.1.4,59.94273071513893,
AB,Lag5_T1A_T2P,5,A,P,5,10,4,4,14,Chefs hat,Did you see the Chefs hat?,0.12,0.016,JPG\,candle01,fork03c,plate01b,violin,computerkeyboard02,candy,calculator01,paintbrush01,cherry01,stapler06,teabag,banana01,cd,lighter01,blankImage,blankImage,blankImage,horseshoe,,,,,,,,,,,,0,28,28,278,,,,,,,,,,,,,,,,,,,,,,,,,,,,,,,,,,,361.64907709999534,362.65941120000207,362.6427810000023,363.21578329999465,363.21578329999465,None,364.91929269999673,None,right,1.0500883999920916,364.91929269999673,None,365.9961356999993,None,left,0.39803130000655074,365.9961356999993,None,,,,,,,,,,,,,,,,,,,,,,,PPT16,001,2022-06-30_10h36.41.165,ABstudy,2022.1.4,59.94273071513893,
AB,Lag1_T1A_T2P,1,A,P,6,7,5,3,10,Jellyfish,Did you see the Jellyfish?,0.12,0.016,JPG\,thermometer02b,avocado01,scissors01,tennisball01b,medal02b,banana01,stapler01,cigarette,potato02b,pineapple01a,blankImage,blankImage,blankImage,blankImage,blankImage,blankImage,blankImage,firehydrant,,,,,,,,,,,,0,29,29,255,,,,,,,,,,,,,,,,,,,,,,,,,,,,,,,,,,,366.4160344999982,367.4307498999988,367.41452350000327,367.99197420000564,367.99197420000564,None,369.2174365999963,None,right,1.1207758000091417,369.2174365999963,None,370.3671744000021,None,left,3.3304586999875028,370.3671744000021,None,,,,,,,,,,,,,,,,,,,,,,,PPT16,001,2022-06-30_10h36.41.165,ABstudy,2022.1.4,59.94273071513893,
AB,Lag5_T1P_T2A,5,P,A,7,12,6,3,15,Toy soldier,Did you see the Toy soldier?,0.12,0.016,JPG\,binoculars01b,cymbal,pizza,candy,paintbrush01,sponge01,toysoldier01b,thermometer02b,speaker04,lemon02,lipstick02a,strawberry,candle01,acorn,plate01b,blankImage,blankImage,toysoldier01b,,,,,,,,,,,,0,30,30,203,,,,,,,,,,,,,,,,,,,,,,,,,,,,,,,,,,,373.72493229999964,374.7381874999992,374.721497999999,375.30848479999986,375.30848479999986,None,377.13475309999194,None,left,0.5787607999955071,377.13475309999194,None,377.74113110000326,None,right,0.3565491000044858,377.74113110000326,None,,,,,,,,,,,,,,,,,,,,,,,PPT16,001,2022-06-30_10h36.41.165,ABstudy,2022.1.4,59.94273071513893,
AB,Lag1_T1P_T2P,1,P,P,6,7,5,3,10,spider web,Did you see the spider web?,0.12,0.016,JPG\,toaster01,chain01,sponge01,baseball01a,carrot01,spiderweb,stapler03b,iron01b,grape01,brick,blankImage,blankImage,blankImage,blankImage,blankImage,blankImage,blankImage,spiderweb,,,,,,,,,,,,0,31,31,72,,,,,,,,,,,,,,,,,,,,,,,,,,,,,,,,,,,378.1284563999943,379.14290730000357,379.1262018999987,379.79311909999524,379.7135918999993,None,380.91482999999425,None,left,0.8317941999994218,380.91482999999425,None,381.7787427000003,None,right,0.43096169999626,381.7787427000003,None,,,,,,,,,,,,,,,,,,,,,,,PPT16,001,2022-06-30_10h36.41.165,ABstudy,2022.1.4,59.94273071513893,
AB,Lag5_T1P_T2P,5,P,P,8,13,7,3,16,church,Did you see the church?,0.12,0.016,JPG\,clock01a,cellphone,toaster01,toothbrush03b,cauliflower01,microscope,comb02a,church,scarf,clock04,sponge01,iron01b,stapler06,celery,ring01,ashtray01,blankImage,church,,,,,,,,,,,,0,32,32,129,,,,,,,,,,,,,,,,,,,,,,,,,,,,,,,,,,,382.2334878999973,383.2471787999966,383.23145150000346,383.8258179999975,383.8258179999975,None,385.7179669000034,None,left,0.6280817999941064,385.7179669000034,None,386.3807661000028,None,left,0.18881680000049528,386.3807661000028,None,,,,,,,,,,,,,,,,,,,,,,,PPT16,001,2022-06-30_10h36.41.165,ABstudy,2022.1.4,59.94273071513893,
AB,Lag1_T1A_T2P,1,A,P,8,9,7,4,13,Rabbit,Did you see the Rabbit?,0.12,0.016,JPG\,lamp04a,broccoli01a,alligator,garlic01a,dandelion,brownsugar,avocado01,ring01,stapler06,cellphone,medal02b,cd,calculator01,blankImage,blankImage,blankImage,blankImage,escalator,,,,,,,,,,,,0,33,33,254,,,,,,,,,,,,,,,,,,,,,,,,,,,,,,,,,,,386.6034246000054,387.61796889999823,387.6012763000035,388.19345779999276,388.19345779999276,None,389.73870230000466,None,right,0.6707800000003772,389.73870230000466,None,390.4393937999994,None,left,0.31470019998960197,390.4393937999994,None,,,,,,,,,,,,,,,,,,,,,,,PPT16,001,2022-06-30_10h36.41.165,ABstudy,2022.1.4,59.94273071513893,
AB,Lag5_T1P_T2P,5,P,P,6,11,5,5,16,Parking meter,Did you see the Parking meter?,0.12,0.016,JPG\,dice05a,watch02a,pig,lighter01,button01,parkingmeter,paintbrush01,microscope,plate01b,pen04b,stapler03b,weight04a,carrot01,shirt02,globe,garlic01a,blankImage,parkingmeter,,,,,,,,,,,,0,34,34,172,,,,,,,,,,,,,,,,,,,,,,,,,,,,,,,,,,,390.77897739999753,391.7886776999949,391.7719042999961,392.3599826999998,392.3599826999998,None,394.35115309999674,None,left,0.5464292999968166,394.35115309999674,None,394.9252916999976,None,right,0.8207172999973409,394.9252916999976,None,,,,,,,,,,,,,,,,,,,,,,,PPT16,001,2022-06-30_10h36.41.165,ABstudy,2022.1.4,59.94273071513893,
AB,Lag1_T1P_T2P,1,P,P,7,8,6,3,11,compass,Did you see the compass?,0.12,0.016,JPG\,brick,plate01b,pen04b,toaster01,screwdriver04b,candle01,magneticcompass,stapler03a,pig,ring01,orange,blankImage,blankImage,blankImage,blankImage,blankImage,blankImage,magneticcompass,,,,,,,,,,,,0,35,35,66,,,,,,,,,,,,,,,,,,,,,,,,,,,,,,,,,,,395.78098959999625,396.79403730000195,396.778309500005,397.3677680999972,397.3677680999972,None,398.6837605000037,None,left,0.5746589000045788,398.6837605000037,None,399.27925819999655,None,right,0.4099673000018811,399.27925819999655,None,,,,,,,,,,,,,,,,,,,,,,,PPT16,001,2022-06-30_10h36.41.165,ABstudy,2022.1.4,59.94273071513893,
AB,Lag1_T1P_T2A,1,P,A,8,9,7,4,13,boat,Did you see the boat?,0.12,0.016,JPG\,fork03c,dandelion,dice05a,belt02a,onion,watch02a,key01,boat,eraser,medal02b,greenolive,shirt02,candle08b,blankImage,blankImage,blankImage,blankImage,boat,,,,,,,,,,,,0,36,36,199,,,,,,,,,,,,,,,,,,,,,,,,,,,,,,,,,,,399.716809199992,400.7308159999957,400.71424000000115,401.34469149999495,401.27650550000544,None,402.8598184000002,None,left,0.6702412000013283,402.8598184000002,None,403.552485799999,None,right,1.6653225000045495,403.552485799999,None,,,,,,,,,,,,,,,,,,,,,,,PPT16,001,2022-06-30_10h36.41.165,ABstudy,2022.1.4,59.94273071513893,
AB,Lag1_T1P_T2P,1,P,P,7,8,6,3,11,trampoline,Did you see the trampoline?,0.12,0.016,JPG\,dice05a,watch02a,pig,lighter01,button01,strawberry,trampoline,stapler03a,plate01b,pen04b,feather03a,blankImage,blankImage,blankImage,blankImage,blankImage,blankImage,trampoline,,,,,,,,,,,,0,37,37,73,,,,,,,,,,,,,,,,,,,,,,,,,,,,,,,,,,,405.2395625000063,406.25289819999307,406.236176099992,406.81308269999863,406.81308269999863,None,408.14738569999463,None,left,0.670145500000217,408.14738569999463,None,408.83914739999454,None,left,0.24267690000124276,408.83914739999454,None,,,,,,,,,,,,,,,,,,,,,,,PPT16,001,2022-06-30_10h36.41.165,ABstudy,2022.1.4,59.94273071513893,
AB,Lag5_T1P_T2A,5,P,A,7,12,6,5,17,flower,Did you see the flower?,0.12,0.016,JPG\,cellphone,tomato01,comb02a,candy,celery,cucumber,craneflower,fan,feather03a,pen04b,lemon02,blueberry01,plate01b,cherry01,baseball01a,candle08b,blankImage,craneflower,,,,,,,,,,,,0,38,38,211,,,,,,,,,,,,,,,,,,,,,,,,,,,,,,,,,,,409.10625840000284,410.10712149999745,410.09039339999435,410.67682039999636,410.67682039999636,None,412.6118174000003,None,left,0.8140268999995897,412.6118174000003,None,413.4433540000027,None,right,0.38218529999721795,413.4433540000027,None,,,,,,,,,,,,,,,,,,,,,,,PPT16,001,2022-06-30_10h36.41.165,ABstudy,2022.1.4,59.94273071513893,
AB,Lag1_T1P_T2A,1,P,A,7,8,6,3,11,Snowshoe,Did you see the Snowshoe?,0.12,0.016,JPG\,birthdaycandle,mushroom01,strawberry,match,cherry01,eraser,snowshoe,thermometer02b,sock01a,ring01,feather03a,blankImage,blankImage,blankImage,blankImage,blankImage,blankImage,snowshoe,,,,,,,,,,,,0,39,39,194,,,,,,,,,,,,,,,,,,,,,,,,,,,,,,,,,,,413.8457761000027,414.861453000005,414.82806159999745,415.3293860999984,415.3293860999984,None,416.7270245999971,None,right,1.1708165000018198,416.7270245999971,None,417.9148892999947,None,right,0.47121070000866894,417.9148892999947,None,,,,,,,,,,,,,,,,,,,,,,,PPT16,001,2022-06-30_10h36.41.165,ABstudy,2022.1.4,59.94273071513893,
AB,Lag1_T1A_T2P,1,A,P,8,9,7,3,12,seal,Did you see the seal?,0.12,0.016,JPG\,dice05a,watch02a,pig,lighter01,button01,strawberry,paintbrush01,microscope,stapler03a,pen04b,feather03a,8ball,blankImage,blankImage,blankImage,blankImage,blankImage,hockeystick,,,,,,,,,,,,0,40,40,235,,,,,,,,,,,,,,,,,,,,,,,,,,,,,,,,,,,418.4191021000006,419.4328747999971,419.41618000000017,420.07918329999666,420.00415110000176,None,421.45779590000166,None,right,1.3763527000119211,421.45779590000166,None,422.85308479999367,None,right,0.3722399999969639,422.85308479999367,None,,,,,,,,,,,,,,,,,,,,,,,PPT16,001,2022-06-30_10h36.41.165,ABstudy,2022.1.4,59.94273071513893,
AB,Lag5_T1P_T2P,5,P,P,6,11,5,4,15,shovel,Did you see the shovel?,0.12,0.016,JPG\,carrot01,watch02a,clock04,microscope,toiletpaper01a,shovel01,alligator,ring01,brick,watermelon01,stapler03b,pencil01,measuringcup01,balloon01b,computerkeyboard02,blankImage,blankImage,shovel01,,,,,,,,,,,,0,41,41,139,,,,,,,,,,,,,,,,,,,,,,,,,,,,,,,,,,,423.25918690000253,424.2713669999939,424.2558929999941,424.83745959999214,424.83745959999214,None,426.6905987999926,None,left,0.6874383999966085,426.6905987999926,None,427.4075746000017,None,left,0.32998189999489114,427.4075746000017,None,,,,,,,,,,,,,,,,,,,,,,,PPT16,001,2022-06-30_10h36.41.165,ABstudy,2022.1.4,59.94273071513893,
AB,Lag1_T1P_T2P,1,P,P,8,9,7,5,14,bullet,Did you see the bullet?,0.12,0.016,JPG\,measuringcup01,dice05a,greenolive,lipstick02a,feather03a,balloon01b,lighter01,bullet,stapler04b,plate01b,microscope,brick,thermometer02b,screw02,blankImage,blankImage,blankImage,bullet,,,,,,,,,,,,0,42,42,57,,,,,,,,,,,,,,,,,,,,,,,,,,,,,,,,,,,427.8244585999928,428.82567940000445,428.8089704000013,429.3823660000053,429.3823660000053,None,431.01113139999507,None,left,0.6942683999950532,431.01113139999507,None,431.72858549999364,None,right,0.320919200006756,431.72858549999364,None,,,,,,,,,,,,,,,,,,,,,,,PPT16,001,2022-06-30_10h36.41.165,ABstudy,2022.1.4,59.94273071513893,
AB,Lag5_T1A_T2A,5,A,A,6,11,5,3,14,mirror,Did you see the mirror?,0.12,0.016,JPG\,foosballtable,candy,envelope03a,microscope,pencil01,leaf02a,scissors01,watermelon01,grape01,dandelion,pineapple01a,hammer01,celery,thermometer02b,blankImage,blankImage,blankImage,shower,,,,,,,,,,,,0,43,43,305,,,,,,,,,,,,,,,,,,,,,,,,,,,,,,,,,,,432.0828913000005,433.0964815000043,433.0797498000029,433.5809786000027,433.5809786000027,None,435.47510409999813,None,right,0.9180705000035232,435.47510409999813,None,436.41623000000254,None,right,0.18484639999223873,436.41623000000254,None,,,,,,,,,,,,,,,,,,,,,,,PPT16,001,2022-06-30_10h36.41.165,ABstudy,2022.1.4,59.94273071513893,
AB,Lag5_T1P_T2A,5,P,A,8,13,7,5,18,telescope,Did you see the telescope?,0.12,0.016,JPG\,globe,broccoli01a,binoculars01b,iron01b,avocado01,dandelion,pineapple01a,handheldtelescope,fan,pizza,celery,blueberry01,sewingmachine01a,dice05a,watermelon01,candy,blankImage,handheldtelescope,,,,,,,,,,,,0,44,44,228,,,,,,,,,,,,,,,,,,,,,,,,,,,,,,,,,,,436.63647440000204,437.65080730000045,437.63413740000397,438.2366546999983,438.2366546999983,None,440.1441829999967,None,right,0.8012903999915579,440.1441829999967,None,440.97113700000045,None,right,0.25405039999168366,440.97113700000045,None,,,,,,,,,,,,,,,,,,,,,,,PPT16,001,2022-06-30_10h36.41.165,ABstudy,2022.1.4,59.94273071513893,
AB,Lag1_T1A_T2A,1,A,A,5,6,4,3,9,Pigeon,Did you see the Pigeon?,0.12,0.016,JPG\,candle01,paintbrush01,scissors01,fan,microscope,toothbrush03b,candle08b,watermelon01,teabag,blankImage,blankImage,blankImage,blankImage,blankImage,blankImage,blankImage,blankImage,floorlamp,,,,,,,,,,,,0,45,45,286,,,,,,,,,,,,,,,,,,,,,,,,,,,,,,,,,,,441.26037629999337,442.2720006000018,442.25534859999607,442.8431571999972,442.8431571999972,None,443.97192840000207,None,right,0.8860190000123112,443.97192840000207,None,444.87472599999455,None,right,0.6871895999938715,444.87472599999455,None,,,,,,,,,,,,,,,,,,,,,,,PPT16,001,2022-06-30_10h36.41.165,ABstudy,2022.1.4,59.94273071513893,
AB,Lag5_T1A_T2P,5,A,P,5,10,4,3,13,License Plate,Did you see the License Plate?,0.12,0.016,JPG\,tomato01,pen04b,shirt02,carrot01,lamp04a,key01,pizza,avocado01,sewingmachine01a,stapler06,iron01b,book01b,chain01,blankImage,blankImage,blankImage,blankImage,porcupine,,,,,,,,,,,,0,46,46,270,,,,,,,,,,,,,,,,,,,,,,,,,,,,,,,,,,,445.59893680000096,446.60974250000436,446.59306240000296,447.179919599992,447.179919599992,None,448.74869369999215,None,right,0.797094499997911,448.74869369999215,None,449.5626556000061,None,left,0.30317769999965094,449.5626556000061,None,,,,,,,,,,,,,,,,,,,,,,,PPT16,001,2022-06-30_10h36.41.165,ABstudy,2022.1.4,59.94273071513893,
AB,Lag1_T1P_T2P,1,P,P,7,8,6,3,11,swing,Did you see the swing?,0.12,0.016,JPG\,sewingmachine01a,thermometer02b,sponge01,eraser,broccoli01a,fork03c,swing,stapler03b,belt02a,medal02b,pineapple01a,blankImage,blankImage,blankImage,blankImage,blankImage,blankImage,swing,,,,,,,,,,,,0,47,47,30,,,,,,,,,,,,,,,,,,,,,,,,,,,,,,,,,,,449.89838410000084,450.8973340999946,450.8807639000006,451.46296509999956,451.46296509999956,None,452.8571935999935,None,left,1.0402353999961633,452.8571935999935,None,453.91742779999913,None,right,0.39582330000121146,453.91742779999913,None,,,,,,,,,,,,,,,,,,,,,,,PPT16,001,2022-06-30_10h36.41.165,ABstudy,2022.1.4,59.94273071513893,
AB,Lag5_T1P_T2P,5,P,P,7,12,6,3,15,lips,Did you see the lips?,0.12,0.016,JPG\,cigarette,fork03c,greenolive,broccoli01a,avocado01,tennisball01b,lip,leaf02a,pig,fan,clock01a,stapler03a,envelope03a,birthdaycandle,teabag,blankImage,blankImage,lip,,,,,,,,,,,,0,48,48,95,,,,,,,,,,,,,,,,,,,,,,,,,,,,,,,,,,,454.3398492999986,455.35194959999353,455.33521469999687,455.92201029999705,455.92201029999705,None,457.7333404999954,None,left,0.5322873999975855,457.7333404999954,None,458.28793599999335,None,left,0.20182620000559837,458.28793599999335,None,,,,,,,,,,,,,,,,,,,,,,,PPT16,001,2022-06-30_10h36.41.165,ABstudy,2022.1.4,59.94273071513893,
AB,Lag1_T1P_T2P,1,P,P,7,8,6,5,13,disco ball,Did you see the disco ball?,0.12,0.016,JPG\,candle01,paintbrush01,scissors01,fan,microscope,toothbrush03b,discoball,stapler03b,teabag,pencil01,lemon02,ashtray01,shirt02,blankImage,blankImage,blankImage,blankImage,discoball,,,,,,,,,,,,0,49,49,60,,,,,,,,,,,,,,,,,,,,,,,,,,,,,,,,,,,458.52146170000196,459.5225336000003,459.5058769000025,460.08149989999947,460.08149989999947,None,461.6680631000054,None,left,0.6934174000052735,461.6680631000054,None,462.3921146999928,None,right,0.2814855000033276,462.3921146999928,None,,,,,,,,,,,,,,,,,,,,,,,PPT16,001,2022-06-30_10h36.41.165,ABstudy,2022.1.4,59.94273071513893,
AB,Lag1_T1P_T2P,1,P,P,5,6,4,5,11,owl,Did you see the owl?,0.12,0.016,JPG\,cellphone,tomato01,comb02a,candy,barnowl,stapler03a,toaster01,fan,feather03a,pen04b,lemon02,blankImage,blankImage,blankImage,blankImage,blankImage,blankImage,barnowl,,,,,,,,,,,,0,50,50,33,,,,,,,,,,,,,,,,,,,,,,,,,,,,,,,,,,,462.69447560000117,463.71012459999474,463.6766944999981,464.2826472000015,464.2826472000015,None,465.62347299999965,None,left,0.7299242000008235,465.62347299999965,None,466.3793688000005,None,right,0.5349853000079747,466.3793688000005,None,,,,,,,,,,,,,,,,,,,,,,,PPT16,001,2022-06-30_10h36.41.165,ABstudy,2022.1.4,59.94273071513893,
AB,Lag5_T1P_T2P,5,P,P,6,11,5,4,15,boxing glove,Did you see the boxing glove?,0.12,0.016,JPG\,button01,celery,birthdaycandle,apple07,avocado01,boxingglove01,dice05a,teabag,clock01a,feather03a,stapler06,scarf,orange,battery02b,thermometer02b,blankImage,blankImage,boxingglove01,,,,,,,,,,,,0,51,51,165,,,,,,,,,,,,,,,,,,,,,,,,,,,,,,,,,,,466.94980699999724,467.96429750000243,467.9476035999978,468.52564160000475,468.52564160000475,None,470.37551379999786,None,left,0.48985840000386816,470.37551379999786,None,470.8842963000061,None,left,0.19692840000789147,470.8842963000061,None,,,,,,,,,,,,,,,,,,,,,,,PPT16,001,2022-06-30_10h36.41.165,ABstudy,2022.1.4,59.94273071513893,
AB,Lag5_T1P_T2P,5,P,P,6,11,5,3,14,shower head,Did you see the shower head?,0.12,0.016,JPG\,belt02a,measuringcup01,spoon01,chain01,greenolive,showerhead01,computerkeyboard02,onion,fan,strawberry,stapler01,broom01,binoculars01b,ashtray01,blankImage,blankImage,blankImage,showerhead01,,,,,,,,,,,,0,52,52,98,,,,,,,,,,,,,,,,,,,,,,,,,,,,,,,,,,,471.106687099993,472.1187019999925,472.10215700000117,472.6647307999956,472.6647307999956,None,474.3693640999991,None,left,1.0715464999957476,474.3693640999991,None,475.4721307,None,right,0.3288157999922987,475.4721307,None,,,,,,,,,,,,,,,,,,,,,,,PPT16,001,2022-06-30_10h36.41.165,ABstudy,2022.1.4,59.94273071513893,
AB,Lag1_T1P_T2P,1,P,P,6,7,5,3,10,drum sticks,Did you see the drum sticks?,0.12,0.016,JPG\,pineapple01a,tennisball01b,computerkeyboard02,feather03a,belt02a,drumstick,stapler03b,blueberry01,medal02b,alligator,blankImage,blankImage,blankImage,blankImage,blankImage,blankImage,blankImage,drumstick,,,,,,,,,,,,0,53,53,61,,,,,,,,,,,,,,,,,,,,,,,,,,,,,,,,,,,475.8298247000057,476.84004569999524,476.8232505000051,477.4197894999961,477.4197894999961,None,478.545292099996,None,left,0.7843452999950387,478.545292099996,None,479.3593583000038,None,right,0.3065342000045348,479.3593583000038,None,,,,,,,,,,,,,,,,,,,,,,,PPT16,001,2022-06-30_10h36.41.165,ABstudy,2022.1.4,59.94273071513893,
AB,Lag1_T1P_T2A,1,P,A,6,7,5,5,12,Barn,Did you see the Barn?,0.12,0.016,JPG\,celery,pencil01,fan,foosballtable,iron01b,barn,potato02b,fork03c,button01,pineapple01a,baseball01a,printer02,blankImage,blankImage,blankImage,blankImage,blankImage,barn,,,,,,,,,,,,0,54,54,181,,,,,,,,,,,,,,,,,,,,,,,,,,,,,,,,,,,479.6965101999958,480.7105794999952,480.69398589999764,481.2675034999993,481.2675034999993,None,482.7265428999963,None,left,0.9465421000058996,482.7265428999963,None,483.69698540000536,None,right,0.4163420999975642,483.69698540000536,None,,,,,,,,,,,,,,,,,,,,,,,PPT16,001,2022-06-30_10h36.41.165,ABstudy,2022.1.4,59.94273071513893,
AB,Lag5_T1P_T2P,5,P,P,5,10,4,5,15,baseball bat,Did you see the baseball bat?,0.12,0.016,JPG\,pizza,printer02,medal02b,spoon01,baseballbat,lighter01,belt02a,watermelon01,celery,stapler04b,screw02,comb02a,cauliflower01,lipstick02a,potato02b,blankImage,blankImage,baseballbat,,,,,,,,,,,,0,55,55,123,,,,,,,,,,,,,,,,,,,,,,,,,,,,,,,,,,,484.13560850000067,485.148259900001,485.1315012999985,485.7374067000055,485.7374067000055,None,487.5945603,None,right,1.3026870000030613,487.5945603,None,488.9188881000009,None,left,0.6103071999968961,488.9188881000009,None,,,,,,,,,,,,,,,,,,,,,,,PPT16,001,2022-06-30_10h36.41.165,ABstudy,2022.1.4,59.94273071513893,
AB,Lag5_T1P_T2P,5,P,P,5,10,4,5,15,Eye,Did you see the Eye?,0.12,0.016,JPG\,apple07,toiletpaper01a,pizza,dandelion,eye,eraser,microscope,violin,orange,stapler01,balloon01b,sandal,lighter01,fan,book01b,blankImage,blankImage,eye,,,,,,,,,,,,0,56,56,171,,,,,,,,,,,,,,,,,,,,,,,,,,,,,,,,,,,489.5579391999927,490.5703321000037,490.553728999992,491.14060820000304,491.14060820000304,None,492.93399320000026,None,left,0.4838625999982469,492.93399320000026,None,493.44034329999704,None,left,0.2663036000012653,493.44034329999704,None,,,,,,,,,,,,,,,,,,,,,,,PPT16,001,2022-06-30_10h36.41.165,ABstudy,2022.1.4,59.94273071513893,
AB,Lag1_T1P_T2A,1,P,A,8,9,7,5,14,Ceiling fan,Did you see the Ceiling fan?,0.12,0.016,JPG\,cucumber,sponge01,alligator,pear01,ashtray01,hammer01,clock04,ceilingfan01,fork03c,binoculars01b,mushroom01,broccoli01a,leaf02a,acorn,blankImage,blankImage,blankImage,ceilingfan01,,,,,,,,,,,,0,57,57,183,,,,,,,,,,,,,,,,,,,,,,,,,,,,,,,,,,,493.7960970999993,494.807862200003,494.7911623999971,495.3856856999919,495.3856856999919,None,496.9145068999933,None,left,0.8946431999938795,496.9145068999933,None,497.8277667999937,None,right,0.3265144000033615,497.8277667999937,None,,,,,,,,,,,,,,,,,,,,,,,PPT16,001,2022-06-30_10h36.41.165,ABstudy,2022.1.4,59.94273071513893,
AB,Lag5_T1P_T2P,5,P,P,7,12,6,4,16,Bird feeder,Did you see the Bird feeder?,0.12,0.016,JPG\,watermelon01,banana01,ring01,pencil01,tomato01,speaker04,birdfeeder,thermometer02b,key01,foosballtable,violin,stapler06,clock04,dice05a,pen04b,mushroom01,blankImage,birdfeeder,,,,,,,,,,,,0,58,58,164,,,,,,,,,,,,,,,,,,,,,,,,,,,,,,,,,,,498.1848655999929,499.1956394000008,499.17885480000405,499.77344010000525,499.77344010000525,None,501.74834170000395,None,left,0.63688479999837,501.74834170000395,None,502.4155188000004,None,right,0.3461091000062879,502.4155188000004,None,,,,,,,,,,,,,,,,,,,,,,,PPT16,001,2022-06-30_10h36.41.165,ABstudy,2022.1.4,59.94273071513893,
AB,Lag1_T1P_T2A,1,P,A,5,6,4,4,10,flower,Did you see the flower?,0.12,0.016,JPG\,broom01,globe,cellphone,tableknife02,daffodil,scissors01,ring01,alligator,rice,toaster01,blankImage,blankImage,blankImage,blankImage,blankImage,blankImage,blankImage,daffodil,,,,,,,,,,,,0,59,59,184,,,,,,,,,,,,,,,,,,,,,,,,,,,,,,,,,,,502.788730500004,503.800115799997,503.7833926000021,504.362853300001,504.362853300001,None,505.5829286999942,None,left,0.8356697999988683,505.5829286999942,None,506.4363439000008,None,right,0.4697200999944471,506.4363439000008,None,,,,,,,,,,,,,,,,,,,,,,,PPT16,001,2022-06-30_10h36.41.165,ABstudy,2022.1.4,59.94273071513893,
AB,Lag1_T1P_T2P,1,P,P,8,9,7,4,13,crab,Did you see the crab?,0.12,0.016,JPG\,candle01,fork03c,plate01b,violin,computerkeyboard02,candy,calculator01,crab01,stapler04b,sock01a,teabag,banana01,cd,blankImage,blankImage,blankImage,blankImage,crab01,,,,,,,,,,,,0,60,60,37,,,,,,,,,,,,,,,,,,,,,,,,,,,,,,,,,,,506.9395377000037,507.95447690000583,507.9376879000047,508.5557623000059,508.48586030000297,None,510.1415616000013,None,left,0.9639706000016304,510.1415616000013,None,511.12663309999334,None,right,0.5142743999895174,511.12663309999334,None,,,,,,,,,,,,,,,,,,,,,,,PPT16,001,2022-06-30_10h36.41.165,ABstudy,2022.1.4,59.94273071513893,
AB,Lag5_T1P_T2P,5,P,P,5,10,4,5,15,scorpion,Did you see the scorpion?,0.12,0.016,JPG\,fan,tomato01,candy,screwdriver04b,scorpion,cd,thermometer02b,apple07,button01,stapler01,brownsugar,lighter01,clock01a,envelope03a,clock04,blankImage,blankImage,scorpion,,,,,,,,,,,,0,61,61,97,,,,,,,,,,,,,,,,,,,,,,,,,,,,,,,,,,,511.6612521999923,512.6754874000035,512.6588532000023,513.3116095000005,513.2312575999968,None,515.0572956999968,None,left,0.45713969999633264,515.0572956999968,None,515.5446555999952,None,left,0.24860449999687262,515.5446555999952,None,,,,,,,,,,,,,,,,,,,,,,,PPT16,001,2022-06-30_10h36.41.165,ABstudy,2022.1.4,59.94273071513893,
AB,Lag5_T1A_T2P,5,A,P,5,10,4,4,14,duck,Did you see the duck?,0.12,0.016,JPG\,brick,eraser,cucumber,ashtray01,thermometer02b,binoculars01b,lipstick02a,screwdriver04b,grape01,stapler04b,battery02b,iron01b,dice05a,avocado01,blankImage,blankImage,blankImage,barrel01,,,,,,,,,,,,0,62,62,280,,,,,,,,,,,,,,,,,,,,,,,,,,,,,,,,,,,515.8245141999942,516.8302603000047,516.8146766999998,517.4249909999926,517.4249909999926,None,519.1287443000037,None,right,0.8168442000023788,519.1287443000037,None,519.9660266999999,None,left,0.35567199999059085,519.9660266999999,None,,,,,,,,,,,,,,,,,,,,,,,PPT16,001,2022-06-30_10h36.41.165,ABstudy,2022.1.4,59.94273071513893,
AB,Lag1_T1P_T2A,1,P,A,5,6,4,4,10,bird,Did you see the bird?,0.12,0.016,JPG\,toaster01,scarf,toiletpaper01a,calculator01,swallow,sewingmachine01a,fan,teabag,strawberry,balloon01b,blankImage,blankImage,blankImage,blankImage,blankImage,blankImage,blankImage,swallow,,,,,,,,,,,,0,63,63,195,,,,,,,,,,,,,,,,,,,,,,,,,,,,,,,,,,,520.3517753000051,521.3674640999961,521.3340720999986,521.9156469000009,521.9156469000009,None,523.1309934000019,None,left,0.9584911999991164,523.1309934000019,None,524.122663999995,None,right,0.45499879999260884,524.122663999995,None,,,,,,,,,,,,,,,,,,,,,,,PPT16,001,2022-06-30_10h36.41.165,ABstudy,2022.1.4,59.94273071513893,
AB,Lag1_T1P_T2P,1,P,P,8,9,7,5,14,giraffe,Did you see the giraffe?,0.12,0.016,JPG\,pencil01,foosballtable,banana01,lipstick02a,toaster01,grape01,key01,giraffe,stapler03b,pineapple01a,strawberry,teabag,dandelion,paintbrush01,blankImage,blankImage,blankImage,giraffe,,,,,,,,,,,,0,64,64,0,,,,,,,,,,,,,,,,,,,,,,,,,,,,,,,,,,,524.6058703000017,525.6052563999983,525.5884737000015,526.1631242000003,526.1631242000003,None,527.8892913000018,None,left,0.39991740000550635,527.8892913000018,None,528.308863600003,None,left,0.19656120000581723,528.308863600003,None,,,,,,,,,,,,,,,,,,,,,,,PPT16,001,2022-06-30_10h36.41.165,ABstudy,2022.1.4,59.94273071513893,
AB,Lag1_T1A_T2P,1,A,P,8,9,7,3,12,elbow,Did you see the elbow?,0.12,0.016,JPG\,watermelon01,cigarette,faucet,cymbal,cauliflower01,feather03a,cherry01,broom01,stapler01,key01,baseball01a,iron01b,blankImage,blankImage,blankImage,blankImage,blankImage,cashregister01,,,,,,,,,,,,0,65,65,251,,,,,,,,,,,,,,,,,,,,,,,,,,,,,,,,,,,528.5278662000055,529.5262813000008,529.5105084999959,530.1102058999968,530.1102058999968,None,531.5806159000058,None,right,1.0604023999912897,531.5806159000058,None,532.6623120000004,None,left,0.3228233999980148,532.6623120000004,None,,,,,,,,,,,,,,,,,,,,,,,PPT16,001,2022-06-30_10h36.41.165,ABstudy,2022.1.4,59.94273071513893,
AB,Lag1_T1P_T2P,1,P,P,7,8,6,5,13,horse,Did you see the horse?,0.12,0.016,JPG\,watermelon01,pencil01,microscope,blueberry01,computerkeyboard02,lamp04a,horse,stapler03b,sock01a,key01,binoculars01b,cauliflower01,ashtray01,blankImage,blankImage,blankImage,blankImage,horse,,,,,,,,,,,,0,66,66,3,,,,,,,,,,,,,,,,,,,,,,,,,,,,,,,,,,,533.0139772999974,534.0135651000019,533.996814099999,534.6022372000007,534.6022372000007,None,536.2228195999924,None,left,0.5556507000001147,536.2228195999924,None,536.7997304000019,None,left,0.19358459999784827,536.7997304000019,None,,,,,,,,,,,,,,,,,,,,,,,PPT16,001,2022-06-30_10h36.41.165,ABstudy,2022.1.4,59.94273071513893,
AB,Lag5_T1P_T2P,5,P,P,8,13,7,5,18,pipe,Did you see the pipe?,0.12,0.016,JPG\,scissors01,ashtray01,garlic01a,medal02b,cigarette,candle08b,leaf02a,smokingpipe,cucumber,rice,toiletpaper01a,greenolive,stapler01,cellphone,tableknife02,spoon01,blankImage,smokingpipe,,,,,,,,,,,,0,67,67,138,,,,,,,,,,,,,,,,,,,,,,,,,,,,,,,,,,,537.0215079000045,538.0344350999949,538.0177070000063,538.5917010999983,538.5917010999983,None,540.5602317000012,None,left,0.6493044999951962,540.5602317000012,None,541.2372386000061,None,left,0.15635539998766035,541.2372386000061,None,,,,,,,,,,,,,,,,,,,,,,,PPT16,001,2022-06-30_10h36.41.165,ABstudy,2022.1.4,59.94273071513893,
AB,Lag5_T1A_T2P,5,A,P,6,11,5,4,15,fish,Did you see the fish?,0.12,0.016,JPG\,pingpongpaddle01c,banana01,scissors01,pig,shirt02,leaf02a,pear01,sponge01,fork03c,tableknife02,stapler03a,match,toothbrush03b,birthdaycandle,candle01,blankImage,blankImage,lighthouse,,,,,,,,,,,,0,68,68,265,,,,,,,,,,,,,,,,,,,,,,,,,,,,,,,,,,,541.4230810000008,542.4221648999956,542.4054103999952,542.9938294000021,542.9938294000021,None,544.8050270999956,None,right,0.91630479999003,544.8050270999956,None,545.7420802999986,None,left,0.2993071999953827,545.7420802999986,None,,,,,,,,,,,,,,,,,,,,,,,PPT16,001,2022-06-30_10h36.41.165,ABstudy,2022.1.4,59.94273071513893,
AB,Lag5_T1A_T2A,5,A,A,5,10,4,5,15,window,Did you see the window?,0.12,0.016,JPG\,leaf02a,apple07,cd,pineapple01a,envelope03a,paintbrush01,pig,canoftennisballs,rice,feather03a,lemon02,balloon01b,avocado01,calculator01,watermelon01,blankImage,blankImage,saxophone,,,,,,,,,,,,0,69,69,301,,,,,,,,,,,,,,,,,,,,,,,,,,,,,,,,,,,546.0633373000019,547.0768296000024,547.0598694999935,547.657638299992,547.657638299992,None,549.4822968999943,None,right,0.870989399991231,549.4822968999943,None,550.380026400002,None,right,0.18937459999870043,550.380026400002,None,,,,,,,,,,,,,,,,,,,,,,,PPT16,001,2022-06-30_10h36.41.165,ABstudy,2022.1.4,59.94273071513893,
AB,Lag1_T1A_T2A,1,A,A,6,7,5,5,12,flamingo,Did you see the flamingo?,0.12,0.016,JPG\,chain01,pen04b,birthdaycandle,watermelon01,broom01,scissors01,measuringcup01,candle01,hammer01,calculator01,ashtray01,feather03a,blankImage,blankImage,blankImage,blankImage,blankImage,witchhat,,,,,,,,,,,,0,70,70,288,,,,,,,,,,,,,,,,,,,,,,,,,,,,,,,,,,,550.6538997000025,551.6645128999953,551.6477512999991,552.2313432999945,552.2313432999945,None,553.6367905999941,None,right,0.7653671000007307,553.6367905999941,None,554.4336858000024,None,right,0.1676314999931492,554.4336858000024,None,,,,,,,,,,,,,,,,,,,,,,,PPT16,001,2022-06-30_10h36.41.165,ABstudy,2022.1.4,59.94273071513893,
AB,Lag1_T1A_T2A,1,A,A,6,7,5,5,12,Safe,Did you see the Safe?,0.12,0.016,JPG\,hammer01,sponge01,toaster01,cherry01,feather03a,mushroom01,measuringcup01,pencil01,tennisball01b,brick,clock04,medal02b,blankImage,blankImage,blankImage,blankImage,blankImage,downhillski,,,,,,,,,,,,0,71,71,294,,,,,,,,,,,,,,,,,,,,,,,,,,,,,,,,,,,554.6367154000036,555.6516967999924,555.6183859000012,556.1956225000031,556.1956225000031,None,557.6992618999939,None,right,1.1417967000015778,557.6992618999939,None,558.8716779999959,None,right,0.801732499996433,558.8716779999959,None,,,,,,,,,,,,,,,,,,,,,,,PPT16,001,2022-06-30_10h36.41.165,ABstudy,2022.1.4,59.94273071513893,
AB,Lag1_T1A_T2P,1,A,P,6,7,5,5,12,Ostrich,Did you see the Ostrich?,0.12,0.016,JPG\,thermometer02b,candle08b,comb02a,toothbrush03b,brick,computerkeyboard02,stapler05,pineapple01a,candy,birthdaycandle,clock04,hairclip03,blankImage,blankImage,blankImage,blankImage,blankImage,discoball,,,,,,,,,,,,0,72,72,232,,,,,,,,,,,,,,,,,,,,,,,,,,,,,,,,,,,559.7134812000004,560.723633799993,560.7071705999988,561.2810345000034,561.2810345000034,None,562.7568145999976,None,right,1.4602272999909474,562.7568145999976,None,564.2440582999989,None,left,0.4462453000014648,564.2440582999989,None,,,,,,,,,,,,,,,,,,,,,,,PPT16,001,2022-06-30_10h36.41.165,ABstudy,2022.1.4,59.94273071513893,
AB,Lag5_T1P_T2P,5,P,P,6,11,5,4,15,fish,Did you see the fish?,0.12,0.016,JPG\,sock01a,spoon01,alligator,comb02a,printer02,rockbass,lamp04a,cymbal,greenolive,computerkeyboard02,stapler03a,scarf,teabag,watermelon01,battery02b,blankImage,blankImage,rockbass,,,,,,,,,,,,0,73,73,115,,,,,,,,,,,,,,,,,,,,,,,,,,,,,,,,,,,564.7164532000024,565.7284795000014,565.7117296999932,566.3095909999975,566.3095909999975,None,568.1117064999999,None,left,0.5216492000035942,568.1117064999999,None,568.647478999992,None,left,0.23392480000620708,568.647478999992,None,,,,,,,,,,,,,,,,,,,,,,,PPT16,001,2022-06-30_10h36.41.165,ABstudy,2022.1.4,59.94273071513893,
AB,Lag5_T1A_T2P,5,A,P,6,11,5,5,16,bed,Did you see the bed?,0.12,0.016,JPG\,cellphone,tomato01,comb02a,candy,celery,cucumber,toaster01,fan,feather03a,pen04b,stapler03b,blueberry01,plate01b,cherry01,baseball01a,candle08b,blankImage,toolbox02,,,,,,,,,,,,0,74,74,274,,,,,,,,,,,,,,,,,,,,,,,,,,,,,,,,,,,568.900226400001,569.9158154000033,569.8824769999919,570.4636878000019,570.4636878000019,None,572.4227523000009,None,right,0.6983250000048429,572.4227523000009,None,573.1526358999981,None,left,0.2883888999931514,573.1526358999981,None,,,,,,,,,,,,,,,,,,,,,,,PPT16,001,2022-06-30_10h36.41.165,ABstudy,2022.1.4,59.94273071513893,
AB,Lag5_T1P_T2P,5,P,P,6,11,5,4,15,saxophone,Did you see the saxophone?,0.12,0.016,JPG\,pizza,strawberry,potato02b,speaker04,battery02b,saxophone,dice05a,cellphone,globe,banana01,stapler03b,baseball01a,toaster01,broom01,ring01,blankImage,blankImage,saxophone,,,,,,,,,,,,0,75,75,117,,,,,,,,,,,,,,,,,,,,,,,,,,,,,,,,,,,573.4735566000018,574.4872531000001,574.4705357999919,575.0962445000041,575.0962445000041,None,576.8939111999935,None,left,0.42674980001174845,576.8939111999935,None,577.3403128999926,None,left,0.20433199999388307,577.3403128999926,None,,,,,,,,,,,,,,,,,,,,,,,PPT16,001,2022-06-30_10h36.41.165,ABstudy,2022.1.4,59.94273071513893,
AB,Lag1_T1A_T2A,1,A,A,8,9,7,4,13,Recycling bin,Did you see the Recycling bin?,0.12,0.016,JPG\,brick,plate01b,pen04b,toaster01,screwdriver04b,candle01,envelope03a,feather03a,pig,ring01,orange,clock01a,lighter01,blankImage,blankImage,blankImage,blankImage,bumpercar,,,,,,,,,,,,0,76,76,292,,,,,,,,,,,,,,,,,,,,,,,,,,,,,,,,,,,577.577492299999,578.5910539000033,578.5578959999984,579.1418161000038,579.1418161000038,None,580.7155604,None,right,1.157096900002216,580.7155604,None,581.8943716999929,None,right,0.314213200006634,581.8943716999929,None,,,,,,,,,,,,,,,,,,,,,,,PPT16,001,2022-06-30_10h36.41.165,ABstudy,2022.1.4,59.94273071513893,
AB,Lag1_T1P_T2P,1,P,P,8,9,7,3,12,Sheep,Did you see the Sheep?,0.12,0.016,JPG\,celery,orange,scissors01,balloon01b,avocado01,printer02,mushroom01,sheep,stapler03b,dice05a,ashtray01,fan,blankImage,blankImage,blankImage,blankImage,blankImage,sheep,,,,,,,,,,,,0,77,77,71,,,,,,,,,,,,,,,,,,,,,,,,,,,,,,,,,,,582.2317574000044,583.2456938999967,583.2290586000017,583.8743726999965,583.7993108999945,None,585.2606597999984,None,left,0.6041295000031823,585.2606597999984,None,585.8816932000045,None,left,0.4631686999928206,585.8816932000045,None,,,,,,,,,,,,,,,,,,,,,,,PPT16,001,2022-06-30_10h36.41.165,ABstudy,2022.1.4,59.94273071513893,
AB,Lag1_T1P_T2P,1,P,P,5,6,4,5,11,Guitar case,Did you see the Guitar case?,0.12,0.016,JPG\,broccoli01a,scissors01,toothbrush03b,foosballtable,guitarcase,stapler05,hammer01,toiletpaper01a,cd,garlic01a,carrot01,blankImage,blankImage,blankImage,blankImage,blankImage,blankImage,guitarcase,,,,,,,,,,,,0,78,78,14,,,,,,,,,,,,,,,,,,,,,,,,,,,,,,,,,,,586.3722921000008,587.3833389999927,587.3668234999932,588.001268699998,588.001268699998,None,589.2599553000036,None,left,0.5653031999972882,589.2599553000036,None,589.8523550999962,None,left,0.18882719999237452,589.8523550999962,None,,,,,,,,,,,,,,,,,,,,,,,PPT16,001,2022-06-30_10h36.41.165,ABstudy,2022.1.4,59.94273071513893,
AB,Lag5_T1P_T2P,5,P,P,6,11,5,4,15,punching bag,Did you see the punching bag?,0.12,0.016,JPG\,foosballtable,cigarette,pen04b,birthdaycandle,hammer01,punchingbag,binoculars01b,chain01,potato02b,cauliflower01,stapler04b,ashtray01,scarf,cellphone,calculator01,blankImage,blankImage,punchingbag,,,,,,,,,,,,0,79,79,156,,,,,,,,,,,,,,,,,,,,,,,,,,,,,,,,,,,590.1082007999939,591.1204579000041,591.1036680999969,591.604727900005,591.604727900005,None,593.5267809999932,None,left,0.49935709999408573,593.5267809999932,None,594.0567494999996,None,left,0.2326306999893859,594.0567494999996,None,,,,,,,,,,,,,,,,,,,,,,,PPT16,001,2022-06-30_10h36.41.165,ABstudy,2022.1.4,59.94273071513893,
AB,Lag5_T1P_T2P,5,P,P,7,12,6,4,16,window,Did you see the window?,0.12,0.016,JPG\,cigarette,pig,banana01,strawberry,clock01a,plate01b,dormer,blueberry01,battery02b,pineapple01a,chain01,stapler01,candy,pen04b,teabag,birthdaycandle,blankImage,dormer,,,,,,,,,,,,0,80,80,170,,,,,,,,,,,,,,,,,,,,,,,,,,,,,,,,,,,594.3114198999974,595.3245469999965,595.3080895000021,595.8998022000014,595.8998022000014,None,597.7439272000047,None,left,0.521211500003119,597.7439272000047,None,598.2941370000044,None,left,0.22689659999741707,598.2941370000044,None,,,,,,,,,,,,,,,,,,,,,,,PPT16,001,2022-06-30_10h36.41.165,ABstudy,2022.1.4,59.94273071513893,
AB,Lag5_T1P_T2P,5,P,P,6,11,5,4,15,shower,Did you see the shower?,0.12,0.016,JPG\,dice05a,watch02a,pig,lighter01,button01,shower,paintbrush01,microscope,plate01b,pen04b,stapler05,weight04a,carrot01,shirt02,globe,blankImage,blankImage,shower,,,,,,,,,,,,0,81,81,121,,,,,,,,,,,,,,,,,,,,,,,,,,,,,,,,,,,598.5463006000064,599.5619539000036,599.5286021999927,600.1086209000059,600.1086209000059,None,601.9641391000041,None,left,0.48591669999586884,601.9641391000041,None,602.481543300004,None,left,0.19970189999730792,602.481543300004,None,,,,,,,,,,,,,,,,,,,,,,,PPT16,001,2022-06-30_10h36.41.165,ABstudy,2022.1.4,59.94273071513893,
AB,Lag1_T1A_T2P,1,A,P,8,9,7,5,14,clock,Did you see the clock?,0.12,0.016,JPG\,speaker04,sewingmachine01a,eraser,violin,globe,belt02a,sunglasses04,cymbal,stapler01,greenolive,alligator,pear01,watch02a,screwdriver04b,blankImage,blankImage,blankImage,peacock,,,,,,,,,,,,0,82,82,240,,,,,,,,,,,,,,,,,,,,,,,,,,,,,,,,,,,602.7017605000001,603.7161883999943,603.6827709000063,604.2683935999958,604.2683935999958,None,605.9800887000019,None,right,0.9181024999998044,605.9800887000019,None,606.9196764999942,None,left,0.29685700000845827,606.9196764999942,None,,,,,,,,,,,,,,,,,,,,,,,PPT16,001,2022-06-30_10h36.41.165,ABstudy,2022.1.4,59.94273071513893,
AB,Lag5_T1A_T2P,5,A,P,5,10,4,5,15,shower,Did you see the shower?,0.12,0.016,JPG\,sewingmachine01a,thermometer02b,sponge01,eraser,broccoli01a,fork03c,pizza,violin,belt02a,stapler04b,pineapple01a,tennisball01b,dandelion,cauliflower01,lemon02,blankImage,blankImage,redfox,,,,,,,,,,,,0,83,83,271,,,,,,,,,,,,,,,,,,,,,,,,,,,,,,,,,,,607.241102400003,608.2542098999984,608.2374424000009,608.8142561999994,608.8142561999994,None,610.6798316999921,None,right,0.7855181000049924,610.6798316999921,None,611.4905429999926,None,right,0.31875350000336766,611.4905429999926,None,,,,,,,,,,,,,,,,,,,,,,,PPT16,001,2022-06-30_10h36.41.165,ABstudy,2022.1.4,59.94273071513893,
AB,Lag1_T1P_T2P,1,P,P,8,9,7,4,13,ladder,Did you see the ladder?,0.12,0.016,JPG\,cigarette,fork03c,greenolive,broccoli01a,avocado01,tennisball01b,balloon01b,ladder,stapler03b,fan,clock01a,strawberry,envelope03a,blankImage,blankImage,blankImage,blankImage,ladder,,,,,,,,,,,,0,84,84,45,,,,,,,,,,,,,,,,,,,,,,,,,,,,,,,,,,,611.8430154999951,612.8585701999982,612.825219499995,613.4284939999925,613.4284939999925,None,615.0281781999947,None,left,0.7262209000036819,615.0281781999947,None,615.7807554000028,None,left,0.2115944999968633,615.7807554000028,None,,,,,,,,,,,,,,,,,,,,,,,PPT16,001,2022-06-30_10h36.41.165,ABstudy,2022.1.4,59.94273071513893,
AB,Lag5_T1A_T2A,5,A,A,5,10,4,5,15,truck,Did you see the truck?,0.12,0.016,JPG\,pizza,printer02,medal02b,spoon01,grape01,lighter01,belt02a,watermelon01,celery,battery02b,screw02,comb02a,cauliflower01,lipstick02a,potato02b,blankImage,blankImage,postalmailbox01,,,,,,,,,,,,0,85,85,297,,,,,,,,,,,,,,,,,,,,,,,,,,,,,,,,,,,616.0120943999937,617.0129128999979,616.9961461000057,617.5879507000063,617.5879507000063,None,619.4899944999925,None,right,0.8388549000083003,619.4899944999925,None,620.3492725999968,None,right,0.21940810000523925,620.3492725999968,None,,,,,,,,,,,,,,,,,,,,,,,PPT16,001,2022-06-30_10h36.41.165,ABstudy,2022.1.4,59.94273071513893,
AB,Lag1_T1P_T2P,1,P,P,5,6,4,5,11,shark,Did you see the shark?,0.12,0.016,JPG\,cucumber,sponge01,alligator,pear01,greatwhiteshark,stapler06,clock04,battery02b,fork03c,binoculars01b,mushroom01,blankImage,blankImage,blankImage,blankImage,blankImage,blankImage,greatwhiteshark,,,,,,,,,,,,0,86,86,84,,,,,,,,,,,,,,,,,,,,,,,,,,,,,,,,,,,620.6016769999987,621.6172897999932,621.5839182000054,622.1811566999968,622.1811566999968,None,623.4942389999924,None,left,0.4828820000111591,623.4942389999924,None,624.0029759000026,None,left,0.1980868999962695,624.0029759000026,None,,,,,,,,,,,,,,,,,,,,,,,PPT16,001,2022-06-30_10h36.41.165,ABstudy,2022.1.4,59.94273071513893,
AB,Lag1_T1P_T2P,1,P,P,6,7,5,3,10,fortune cookie,Did you see the fortune cookie?,0.12,0.016,JPG\,scissors01,grape01,mushroom01,toiletpaper01a,greenolive,fortunecookie,stapler03b,ashtray01,carrot01,pineapple01a,blankImage,blankImage,blankImage,blankImage,blankImage,blankImage,blankImage,fortunecookie,,,,,,,,,,,,0,87,87,42,,,,,,,,,,,,,,,,,,,,,,,,,,,,,,,,,,,624.2240564999956,625.2375064999942,625.2208935999952,625.7992674999987,625.7992674999987,None,627.0254750000022,None,right,1.3675718000013148,627.0254750000022,None,628.4242476999934,None,left,0.29695299999730196,628.4242476999934,None,,,,,,,,,,,,,,,,,,,,,,,PPT16,001,2022-06-30_10h36.41.165,ABstudy,2022.1.4,59.94273071513893,
AB,Lag1_T1P_T2P,1,P,P,5,6,4,3,9,camel,Did you see the camel?,0.12,0.016,JPG\,iron01b,brick,broccoli01a,balloon01b,dromedary,stapler05,sandal,teabag,scissors01,blankImage,blankImage,blankImage,blankImage,blankImage,blankImage,blankImage,blankImage,dromedary,,,,,,,,,,,,0,88,88,11,,,,,,,,,,,,,,,,,,,,,,,,,,,,,,,,,,,628.7448856999981,629.7590386999946,629.7423716000048,630.3118200000026,630.3118200000026,None,631.4247083999944,None,left,0.5759298999910243,631.4247083999944,None,632.0276216000057,None,left,0.22107850000611506,632.0276216000057,None,,,,,,,,,,,,,,,,,,,,,,,PPT16,001,2022-06-30_10h36.41.165,ABstudy,2022.1.4,59.94273071513893,
AB,Lag5_T1P_T2P,5,P,P,7,12,6,5,17,tie,Did you see the tie?,0.12,0.016,JPG\,iron01b,orange,birthdaycandle,potato02b,cauliflower01,pencil01,tie02,candle08b,celery,tableknife02,pen04b,stapler06,ring01,rice,lemon02,tomato01,blankImage,tie02,,,,,,,,,,,,0,89,89,161,,,,,,,,,,,,,,,,,,,,,,,,,,,,,,,,,,,632.2798468999972,633.2788180999923,633.2621734999993,633.8377824000054,633.8377824000054,None,635.8378684000054,None,left,0.6841857000108575,635.8378684000054,None,636.5497391999961,None,right,0.2827636000001803,636.5497391999961,None,,,,,,,,,,,,,,,,,,,,,,,PPT16,001,2022-06-30_10h36.41.165,ABstudy,2022.1.4,59.94273071513893,
AB,Lag1_T1P_T2P,1,P,P,7,8,6,5,13,dream catcher,Did you see the dream catcher?,0.12,0.016,JPG\,clock01a,cellphone,toaster01,toothbrush03b,cauliflower01,microscope,dreamcatcher,stapler05,scarf,clock04,sponge01,iron01b,watch02a,blankImage,blankImage,blankImage,blankImage,dreamcatcher,,,,,,,,,,,,0,90,90,81,,,,,,,,,,,,,,,,,,,,,,,,,,,,,,,,,,,636.8552057000052,637.866992299998,637.8502815999964,638.4399260999926,638.4399260999926,None,639.9999138999992,None,left,1.552837900002487,639.9999138999992,None,641.5704835999932,None,left,0.7186803999939002,641.5704835999932,None,,,,,,,,,,,,,,,,,,,,,,,PPT16,001,2022-06-30_10h36.41.165,ABstudy,2022.1.4,59.94273071513893,
AB,Lag1_T1P_T2P,1,P,P,8,9,7,3,12,Fire hydrant,Did you see the Fire hydrant?,0.12,0.016,JPG\,foosballtable,candy,envelope03a,microscope,pencil01,leaf02a,scissors01,firehydrant,stapler01,dandelion,pineapple01a,hammer01,blankImage,blankImage,blankImage,blankImage,blankImage,firehydrant,,,,,,,,,,,,0,91,91,83,,,,,,,,,,,,,,,,,,,,,,,,,,,,,,,,,,,642.3252614999947,643.3394837999949,643.3239732999937,643.8260511999979,643.8260511999979,None,645.3259023999999,None,left,0.8762179000041215,645.3259023999999,None,646.2262339000008,None,right,0.3187725000025239,646.2262339000008,None,,,,,,,,,,,,,,,,,,,,,,,PPT16,001,2022-06-30_10h36.41.165,ABstudy,2022.1.4,59.94273071513893,
AB,Lag5_T1A_T2P,5,A,P,7,12,6,5,17,Rollerblade,Did you see the Rollerblade?,0.12,0.016,JPG\,binoculars01b,cymbal,pizza,candy,paintbrush01,sponge01,grape01,thermometer02b,speaker04,lemon02,lipstick02a,stapler03b,candle01,8ball,plate01b,pen04b,blankImage,lion,,,,,,,,,,,,0,92,92,266,,,,,,,,,,,,,,,,,,,,,,,,,,,,,,,,,,,646.5830404000008,647.5934232,647.5767715999973,648.179401500005,648.179401500005,None,650.102967999992,None,right,0.754667100001825,650.102967999992,None,650.8801492999919,None,left,0.34431580000091344,650.8801492999919,None,,,,,,,,,,,,,,,,,,,,,,,PPT16,001,2022-06-30_10h36.41.165,ABstudy,2022.1.4,59.94273071513893,
AB,Lag1_T1P_T2P,1,P,P,6,7,5,4,11,bowling pin,Did you see the bowling pin?,0.12,0.016,JPG\,strawberry,leaf02a,clock04,candle01,avocado01,bowlingpin,stapler03a,brownsugar,ring01,lemon02,fork03c,blankImage,blankImage,blankImage,blankImage,blankImage,blankImage,bowlingpin,,,,,,,,,,,,0,93,93,8,,,,,,,,,,,,,,,,,,,,,,,,,,,,,,,,,,,651.2988212000055,652.2980812000023,652.2980812000023,652.8896162000019,652.8896162000019,None,654.1368237999995,None,left,0.8405138999951305,654.1368237999995,None,655.0009443000017,None,right,0.7437604000006104,655.0009443000017,None,,,,,,,,,,,,,,,,,,,,,,,PPT16,001,2022-06-30_10h36.41.165,ABstudy,2022.1.4,59.94273071513893,
AB,Lag1_T1P_T2A,1,P,A,5,6,4,5,11,Sailboat,Did you see the Sailboat?,0.12,0.016,JPG\,chain01,speaker04,avocado01,watermelon01,sailboat,comb02a,lamp04a,fork03c,toaster01,slipper03b,scissors01,blankImage,blankImage,blankImage,blankImage,blankImage,blankImage,sailboat,,,,,,,,,,,,0,94,94,193,,,,,,,,,,,,,,,,,,,,,,,,,,,,,,,,,,,655.7745933999977,656.7857807999972,656.7691134000052,657.3521938000049,657.3521938000049,None,658.7319031999941,None,left,0.7888421999959974,658.7319031999941,None,659.5388467000012,None,right,0.3032303999934811,659.5388467000012,None,,,,,,,,,,,,,,,,,,,,,,,PPT16,001,2022-06-30_10h36.41.165,ABstudy,2022.1.4,59.94273071513893,
AB,Lag1_T1P_T2P,1,P,P,5,6,4,3,9,Pumpkin,Did you see the Pumpkin?,0.12,0.016,JPG\,binoculars01b,speaker04,sandal,envelope03a,pumpkin,stapler03b,battery02b,chain01,measuringcup01,blankImage,blankImage,blankImage,blankImage,blankImage,blankImage,blankImage,blankImage,pumpkin,,,,,,,,,,,,0,95,95,23,,,,,,,,,,,,,,,,,,,,,,,,,,,,,,,,,,,659.8775486999948,660.8899180000008,660.8731698000047,661.4813984999928,661.4813984999928,None,662.6113441000052,None,left,0.5666485999972792,662.6113441000052,None,663.2087238999957,None,left,0.21636099999886937,663.2087238999957,None,,,,,,,,,,,,,,,,,,,,,,,PPT16,001,2022-06-30_10h36.41.165,ABstudy,2022.1.4,59.94273071513893,
AB,Lag1_T1P_T2P,1,P,P,6,7,5,5,12,bat,Did you see the bat?,0.12,0.016,JPG\,comb02a,key01,medal02b,battery02b,lighter01,bat,stapler05,sandal,pig,cellphone,computerkeyboard02,calculator01,blankImage,blankImage,blankImage,blankImage,blankImage,bat,,,,,,,,,,,,0,96,96,35,,,,,,,,,,,,,,,,,,,,,,,,,,,,,,,,,,,663.4442696000042,664.4599125999957,664.4265770000056,665.0217292000016,665.0217292000016,None,666.518986199997,None,left,0.37752189999446273,666.518986199997,None,666.9292421999999,None,left,0.19929709999996703,666.9292421999999,None,,,,,,,,,,,,,,,,,,,,,,,PPT16,001,2022-06-30_10h36.41.165,ABstudy,2022.1.4,59.94273071513893,
AB,Lag1_T1P_T2A,1,P,A,7,8,6,4,12,gorilla,Did you see the gorilla?,0.12,0.016,JPG\,scissors01,ashtray01,garlic01a,medal02b,cigarette,candle08b,gorilla,envelope03a,cucumber,rice,toiletpaper01a,greenolive,blankImage,blankImage,blankImage,blankImage,blankImage,gorilla,,,,,,,,,,,,0,97,97,189,,,,,,,,,,,,,,,,,,,,,,,,,,,,,,,,,,,667.1503480999963,668.1637591000035,668.1470598000014,668.7435295000032,668.7435295000032,None,670.2084028999961,None,left,0.7283394999976736,670.2084028999961,None,670.9665856999927,None,right,0.26624209999863524,670.9665856999927,None,,,,,,,,,,,,,,,,,,,,,,,PPT16,001,2022-06-30_10h36.41.165,ABstudy,2022.1.4,59.94273071513893,
AB,Lag5_T1A_T2P,5,A,P,5,10,4,4,14,mail box,Did you see the mail box?,0.12,0.016,JPG\,button01,celery,birthdaycandle,apple07,avocado01,tennisball01b,dice05a,teabag,clock01a,stapler05,tomato01,scarf,orange,battery02b,blankImage,blankImage,blankImage,jeep,,,,,,,,,,,,0,98,98,263,,,,,,,,,,,,,,,,,,,,,,,,,,,,,,,,,,,671.2563994999946,672.2683338999923,672.2526241000014,672.8466107999993,672.8466107999993,None,674.6070689000044,None,right,0.7776184000103967,674.6070689000044,None,675.4041668999998,None,left,0.31646220000402536,675.4041668999998,None,,,,,,,,,,,,,,,,,,,,,,,PPT16,001,2022-06-30_10h36.41.165,ABstudy,2022.1.4,59.94273071513893,
AB,Lag1_T1P_T2P,1,P,P,6,7,5,3,10,handcuffs,Did you see the handcuffs?,0.12,0.016,JPG\,sewingmachine01a,scarf,carrot01,book01b,eraser,handcuffs,stapler05,lipstick02a,printer02,garlic01a,blankImage,blankImage,blankImage,blankImage,blankImage,blankImage,blankImage,handcuffs,,,,,,,,,,,,0,99,99,2,,,,,,,,,,,,,,,,,,,,,,,,,,,,,,,,,,,675.7406274999958,676.7556951000006,676.7222500000062,677.317732800002,677.317732800002,None,678.5148004999937,None,left,0.4863047000108054,678.5148004999937,None,679.0248126999941,None,left,0.1764415000070585,679.0248126999941,None,,,,,,,,,,,,,,,,,,,,,,,PPT16,001,2022-06-30_10h36.41.165,ABstudy,2022.1.4,59.94273071513893,
AB,Lag5_T1P_T2P,5,P,P,5,10,4,3,13,Rabbit,Did you see the Rabbit?,0.12,0.016,JPG\,celery,tennisball01b,calculator01,pear01,jackrabbit,orange,button01,cellphone,onion,stapler06,iron01b,brownsugar,banana01,blankImage,blankImage,blankImage,blankImage,jackrabbit,,,,,,,,,,,,0,100,100,90,,,,,,,,,,,,,,,,,,,,,,,,,,,,,,,,,,,679.2311096000049,680.2424912999995,680.2257580000005,680.8155498999986,680.8155498999986,None,682.4006800999923,None,left,0.47239059999992605,682.4006800999923,None,682.8948082999996,None,left,0.16231849999167025,682.8948082999996,None,,,,,,,,,,,,,,,,,,,,,,,PPT16,001,2022-06-30_10h36.41.165,ABstudy,2022.1.4,59.94273071513893,
AB,Lag1_T1P_T2A,1,P,A,7,8,6,3,11,fish,Did you see the fish?,0.12,0.016,JPG\,rice,watermelon01,tableknife02,scarf,computerkeyboard02,cauliflower01,salmon,binoculars01b,book01b,sandal,sponge01,blankImage,blankImage,blankImage,blankImage,blankImage,blankImage,salmon,,,,,,,,,,,,0,101,101,179,,,,,,,,,,,,,,,,,,,,,,,,,,,,,,,,,,,683.0806806000037,684.096149799996,684.0627710999979,684.6609469999967,684.6609469999967,None,686.0310679999966,None,left,0.8572923999890918,686.0310679999966,None,686.9156306999939,None,right,0.6125954000017373,686.9156306999939,None,,,,,,,,,,,,,,,,,,,,,,,PPT16,001,2022-06-30_10h36.41.165,ABstudy,2022.1.4,59.94273071513893,
AB,Lag1_T1A_T2A,1,A,A,8,9,7,5,14,Ping pong Table,Did you see the Ping pong Table?,0.12,0.016,JPG\,pineapple01a,tennisball01b,computerkeyboard02,feather03a,belt02a,acorn,violin,blueberry01,medal02b,alligator,greenolive,screwdriver04b,potato02b,fork03c,blankImage,blankImage,blankImage,statue,,,,,,,,,,,,0,102,102,287,,,,,,,,,,,,,,,,,,,,,,,,,,,,,,,,,,,687.5538152999943,688.567449299997,688.5508786999999,689.1177226,689.1177226,None,690.8308919999981,None,right,1.0413152999972226,690.8308919999981,None,691.9038956000004,None,right,0.32830169999215286,691.9038956000004,None,,,,,,,,,,,,,,,,,,,,,,,PPT16,001,2022-06-30_10h36.41.165,ABstudy,2022.1.4,59.94273071513893,
AB,Lag1_T1P_T2P,1,P,P,6,7,5,3,10,cupcake,Did you see the cupcake?,0.12,0.016,JPG\,printer02,leaf02a,cauliflower01,sock01a,brownsugar,cupcake,stapler01,orange,belt02a,shirt02,blankImage,blankImage,blankImage,blankImage,blankImage,blankImage,blankImage,cupcake,,,,,,,,,,,,0,103,103,38,,,,,,,,,,,,,,,,,,,,,,,,,,,,,,,,,,,692.2575432000012,693.2717959000001,693.2551031000039,693.9068160000024,693.8231411000015,None,695.0555074000004,None,left,0.8024154999875464,695.0555074000004,None,695.8749722999928,None,left,0.23802089999662712,695.8749722999928,None,,,,,,,,,,,,,,,,,,,,,,,PPT16,001,2022-06-30_10h36.41.165,ABstudy,2022.1.4,59.94273071513893,
AB,Lag1_T1P_T2A,1,P,A,7,8,6,5,13,Well,Did you see the Well?,0.12,0.016,JPG\,leaf02a,apple07,cd,pineapple01a,envelope03a,paintbrush01,well,acorn,rice,feather03a,lemon02,balloon01b,avocado01,blankImage,blankImage,blankImage,blankImage,well,,,,,,,,,,,,0,104,104,178,,,,,,,,,,,,,,,,,,,,,,,,,,,,,,,,,,,696.1449981000042,697.1593659999926,697.1259338999953,697.7234388999932,697.7234388999932,None,699.3218472000008,None,left,0.9350170000107028,699.3218472000008,None,700.2795629000029,None,right,0.6246792000019923,700.2795629000029,None,,,,,,,,,,,,,,,,,,,,,,,PPT16,001,2022-06-30_10h36.41.165,ABstudy,2022.1.4,59.94273071513893,
AB,Lag1_T1P_T2P,1,P,P,7,8,6,3,11,locker,Did you see the locker?,0.12,0.016,JPG\,toiletpaper01a,lipstick02a,potato02b,speaker04,globe,strawberry,locker,stapler04b,sock01a,candle08b,pen04b,blankImage,blankImage,blankImage,blankImage,blankImage,blankImage,locker,,,,,,,,,,,,0,105,105,19,,,,,,,,,,,,,,,,,,,,,,,,,,,,,,,,,,,700.9373690999928,701.9478687999945,701.9310090999934,702.5533451999945,702.5533451999945,None,703.819981099994,None,left,0.6211658000102034,703.819981099994,None,704.4672672000015,None,left,0.2132075999979861,704.4672672000015,None,,,,,,,,,,,,,,,,,,,,,,,PPT16,001,2022-06-30_10h36.41.165,ABstudy,2022.1.4,59.94273071513893,
AB,Lag1_T1P_T2A,1,P,A,6,7,5,4,11,Road,Did you see the Road?,0.12,0.016,JPG\,pizza,printer02,medal02b,spoon01,grape01,road02,belt02a,watermelon01,celery,battery02b,screw02,blankImage,blankImage,blankImage,blankImage,blankImage,blankImage,road02,,,,,,,,,,,,0,106,106,174,,,,,,,,,,,,,,,,,,,,,,,,,,,,,,,,,,,704.7031982000044,705.7179455000005,705.684592199992,706.2724907999946,706.2724907999946,None,707.6081873999938,None,left,0.6815337000007275,707.6081873999938,None,708.3207779999939,None,right,0.3199548999982653,708.3207779999939,None,,,,,,,,,,,,,,,,,,,,,,,PPT16,001,2022-06-30_10h36.41.165,ABstudy,2022.1.4,59.94273071513893,
AB,Lag5_T1P_T2A,5,P,A,6,11,5,3,14,toy truck,Did you see the toy truck?,0.12,0.016,JPG\,globe,belt02a,sponge01,violin,fork03c,bluecheese,clock01a,microscope,balloon01b,scarf,teabag,pen04b,brick,brownsugar,blankImage,blankImage,blankImage,bluecheese,,,,,,,,,,,,0,107,107,204,,,,,,,,,,,,,,,,,,,,,,,,,,,,,,,,,,,708.6790183999983,709.6885939000058,709.6720480999938,710.2524427000026,710.2524427000026,None,711.8613826999936,None,right,0.9230301000061445,711.8613826999936,None,712.808400199996,None,left,1.2242733000020962,712.808400199996,None,,,,,,,,,,,,,,,,,,,,,,,PPT16,001,2022-06-30_10h36.41.165,ABstudy,2022.1.4,59.94273071513893,
AB,Lag1_T1P_T2P,1,P,P,8,9,7,4,13,kite,Did you see the kite?,0.12,0.016,JPG\,scissors01,balloon01b,eraser,feather03a,banana01,candle01,measuringcup01,kite,stapler04b,strawberry,pear01,carrot01,globe,blankImage,blankImage,blankImage,blankImage,kite,,,,,,,,,,,,0,108,108,17,,,,,,,,,,,,,,,,,,,,,,,,,,,,,,,,,,,714.0647099000053,715.0771546000033,715.0604272000055,715.6446795999946,715.6446795999946,None,717.2542882999987,None,left,0.8271532000071602,717.2542882999987,None,718.1151933999936,None,left,0.23725500000000466,718.1151933999936,None,,,,,,,,,,,,,,,,,,,,,,,PPT16,001,2022-06-30_10h36.41.165,ABstudy,2022.1.4,59.94273071513893,
AB,Lag1_T1P_T2P,1,P,P,5,6,4,5,11,Light switch,Did you see the Light switch?,0.12,0.016,JPG\,iron01b,orange,birthdaycandle,potato02b,lightswitch01,stapler03b,key01,candle08b,celery,tableknife02,pen04b,blankImage,blankImage,blankImage,blankImage,blankImage,blankImage,lightswitch01,,,,,,,,,,,,0,109,109,18,,,,,,,,,,,,,,,,,,,,,,,,,,,,,,,,,,,718.3936297000037,719.3979813000042,719.3813125000015,719.9571137000021,719.9571137000021,None,721.2940299000038,None,left,0.4746943000063766,721.2940299000038,None,721.8003739999986,None,left,0.20024010000634007,721.8003739999986,None,,,,,,,,,,,,,,,,,,,,,,,PPT16,001,2022-06-30_10h36.41.165,ABstudy,2022.1.4,59.94273071513893,
AB,Lag5_T1P_T2P,5,P,P,8,13,7,5,18,Kiwi,Did you see the Kiwi?,0.12,0.016,JPG\,violin,pizza,toothbrush03b,pineapple01a,banana01,ashtray01,candy,kiwi03,clock04,sock01a,microscope,speaker04,stapler04b,sunglasses04,lipstick02a,blueberry01,blankImage,kiwi03,,,,,,,,,,,,0,110,110,111,,,,,,,,,,,,,,,,,,,,,,,,,,,,,,,,,,,722.0693351999944,723.0849340999994,723.0682554999948,723.6636120000039,723.6636120000039,None,725.5243801000033,None,left,0.5402377999998862,725.5243801000033,None,726.0883142999955,None,left,0.19327909999992698,726.0883142999955,None,,,,,,,,,,,,,,,,,,,,,,,PPT16,001,2022-06-30_10h36.41.165,ABstudy,2022.1.4,59.94273071513893,
AB,Lag1_T1P_T2P,1,P,P,8,9,7,4,13,mattress,Did you see the mattress?,0.12,0.016,JPG\,button01,celery,birthdaycandle,apple07,avocado01,tennisball01b,dice05a,mattress,stapler01,feather03a,tomato01,scarf,orange,blankImage,blankImage,blankImage,blankImage,mattress,,,,,,,,,,,,0,111,111,22,,,,,,,,,,,,,,,,,,,,,,,,,,,,,,,,,,,726.3097364999994,727.3228512999922,727.3061015999992,727.8905355000024,727.8905355000024,None,729.5247559999989,None,right,1.3640300999977626,729.5247559999989,None,730.9097435000003,None,left,0.4511123999982374,730.9097435000003,None,,,,,,,,,,,,,,,,,,,,,,,PPT16,001,2022-06-30_10h36.41.165,ABstudy,2022.1.4,59.94273071513893,
AB,Lag5_T1P_T2P,5,P,P,8,13,7,5,18,hand,Did you see the hand?,0.12,0.016,JPG\,foosballtable,candy,envelope03a,microscope,pencil01,leaf02a,scissors01,hand01b,grape01,dandelion,pineapple01a,hammer01,stapler03a,thermometer02b,ring01,sewingmachine01a,blankImage,hand01b,,,,,,,,,,,,0,112,112,131,,,,,,,,,,,,,,,,,,,,,,,,,,,,,,,,,,,731.3966004999966,732.4111110999947,732.3944403999922,732.8949895999976,732.8790350000054,None,734.8923062999966,None,left,0.49247149999428075,734.8923062999966,None,735.4142353000061,None,left,0.2185438000014983,735.4142353000061,None,,,,,,,,,,,,,,,,,,,,,,,PPT16,001,2022-06-30_10h36.41.165,ABstudy,2022.1.4,59.94273071513893,
AB,Lag1_T1A_T2P,1,A,P,7,8,6,3,11,Fox,Did you see the Fox?,0.12,0.016,JPG\,toaster01,chain01,sponge01,baseball01a,carrot01,belt02a,book01b,stapler03b,grape01,brick,celery,blankImage,blankImage,blankImage,blankImage,blankImage,blankImage,fingerprint,,,,,,,,,,,,0,113,113,234,,,,,,,,,,,,,,,,,,,,,,,,,,,,,,,,,,,735.6676173000014,736.6818250999931,736.6484790999966,737.2364148000052,737.2364148000052,None,738.6376310000051,None,right,0.9403664999990724,738.6376310000051,None,739.6013895999931,None,left,0.4554045999975642,739.6013895999931,None,,,,,,,,,,,,,,,,,,,,,,,PPT16,001,2022-06-30_10h36.41.165,ABstudy,2022.1.4,59.94273071513893,
AB,Lag1_T1P_T2P,1,P,P,6,7,5,3,10,elephant,Did you see the elephant?,0.12,0.016,JPG\,clock01a,grape01,plate01b,key01,screwdriver04b,africanelephant,stapler03b,iron01b,toothbrush03b,comb02a,blankImage,blankImage,blankImage,blankImage,blankImage,blankImage,blankImage,africanelephant,,,,,,,,,,,,0,114,114,31,,,,,,,,,,,,,,,,,,,,,,,,,,,,,,,,,,,740.0889525999955,741.1028947000013,741.0861956000008,741.7337086000043,741.6550898999994,None,742.8551133000001,None,left,0.769813000006252,742.8551133000001,None,743.6567044999974,None,left,0.46386389998951927,743.6567044999974,None,,,,,,,,,,,,,,,,,,,,,,,PPT16,001,2022-06-30_10h36.41.165,ABstudy,2022.1.4,59.94273071513893,
AB,Lag1_T1P_T2P,1,P,P,7,8,6,3,11,Sand castle,Did you see the Sand castle?,0.12,0.016,JPG\,thermometer02b,candle08b,comb02a,toothbrush03b,brick,computerkeyboard02,sandcastle,stapler06,candy,birthdaycandle,clock04,blankImage,blankImage,blankImage,blankImage,blankImage,blankImage,sandcastle,,,,,,,,,,,,0,115,115,70,,,,,,,,,,,,,,,,,,,,,,,,,,,,,,,,,,,744.1458579000027,745.1571220000042,745.1403573999996,745.7308392999985,745.7308392999985,None,747.1026373999921,None,left,0.8663263000053121,747.1026373999921,None,747.9930459000025,None,left,0.34387140000762884,747.9930459000025,None,,,,,,,,,,,,,,,,,,,,,,,PPT16,001,2022-06-30_10h36.41.165,ABstudy,2022.1.4,59.94273071513893,
AB,Lag5_T1P_T2P,5,P,P,6,11,5,4,15,Bumper car,Did you see the Bumper car?,0.12,0.016,JPG\,eraser,measuringcup01,chain01,birthdaycandle,ring01,bumpercar,weight04a,pig,cauliflower01,celery,stapler01,sunglasses04,greenolive,candy,strawberry,blankImage,blankImage,bumpercar,,,,,,,,,,,,0,116,116,104,,,,,,,,,,,,,,,,,,,,,,,,,,,,,,,,,,,748.3646889999945,749.3781179999933,749.3614172999951,749.9291032000037,749.9291032000037,None,751.7603988000046,None,left,0.5843621999956667,751.7603988000046,None,752.3645001999976,None,right,0.35641569999279454,752.3645001999976,None,,,,,,,,,,,,,,,,,,,,,,,PPT16,001,2022-06-30_10h36.41.165,ABstudy,2022.1.4,59.94273071513893,
AB,Lag1_T1P_T2P,1,P,P,7,8,6,5,13,school bus,Did you see the school bus?,0.12,0.016,JPG\,aceofdiamond,banana01,scissors01,pig,shirt02,leaf02a,schoolbus,stapler05,fork03c,tableknife02,balloon01b,match,toothbrush03b,blankImage,blankImage,blankImage,blankImage,schoolbus,,,,,,,,,,,,0,117,117,24,,,,,,,,,,,,,,,,,,,,,,,,,,,,,,,,,,,752.7926283999986,753.7990986999939,753.7824739999924,754.3782232999947,754.3782232999947,None,755.9168817000027,None,left,0.4524698999885004,755.9168817000027,None,756.4014623999974,None,left,0.23095139999350067,756.4014623999974,None,,,,,,,,,,,,,,,,,,,,,,,PPT16,001,2022-06-30_10h36.41.165,ABstudy,2022.1.4,59.94273071513893,
AB,Lag5_T1P_T2P,5,P,P,8,13,7,5,18,spice rack,Did you see the spice rack?,0.12,0.016,JPG\,lamp04a,broccoli01a,alligator,garlic01a,dandelion,brownsugar,avocado01,spicerack,leaf02a,cellphone,medal02b,cd,stapler05,sunglasses04,strawberry,eraser,blankImage,spicerack,,,,,,,,,,,,0,118,118,140,,,,,,,,,,,,,,,,,,,,,,,,,,,,,,,,,,,756.6576701000013,757.6697466000041,757.653067399995,758.2393404000031,758.2393404000031,None,760.1638015999924,None,left,0.41217369999503717,760.1638015999924,None,760.6059048000025,None,left,0.22614299999258947,760.6059048000025,None,,,,,,,,,,,,,,,,,,,,,,,PPT16,001,2022-06-30_10h36.41.165,ABstudy,2022.1.4,59.94273071513893,
AB,Lag5_T1P_T2P,5,P,P,6,11,5,5,16,table,Did you see the table?,0.12,0.016,JPG\,birthdaycandle,mushroom01,strawberry,match,cherry01,table01,hammer01,thermometer02b,sock01a,ring01,stapler06,banana01,toiletpaper01a,key01,sponge01,teabag,blankImage,table01,,,,,,,,,,,,0,119,119,144,,,,,,,,,,,,,,,,,,,,,,,,,,,,,,,,,,,760.8605269999971,761.8738025999919,761.8571628999925,762.3578293000028,762.3578293000028,None,764.3844232999982,None,left,0.48009000001184177,764.3844232999982,None,764.8932613999932,None,left,2.908071400001063,764.8932613999932,None,,,,,,,,,,,,,,,,,,,,,,,PPT16,001,2022-06-30_10h36.41.165,ABstudy,2022.1.4,59.94273071513893,
AB,Lag1_T1P_T2A,1,P,A,7,8,6,4,12,gate,Did you see the gate?,0.12,0.016,JPG\,pen04b,speaker04,lighter01,cherry01,pintofbeer,onion,entrancegate,toothbrush03b,broom01,sewingmachine01a,book01b,iron01b,blankImage,blankImage,blankImage,blankImage,blankImage,entrancegate,,,,,,,,,,,,0,120,120,187,,,,,,,,,,,,,,,,,,,,,,,,,,,,,,,,,,,767.8325932000007,768.8473427999998,768.8140068999928,769.3937805000023,769.3937805000023,None,770.8749615999986,None,left,0.6370659000094747,770.8749615999986,None,771.5358196000016,None,left,0.3684592999925371,771.5358196000016,None,,,,,,,,,,,,,,,,,,,,,,,PPT16,001,2022-06-30_10h36.41.165,ABstudy,2022.1.4,59.94273071513893,
AB,Lag5_T1P_T2A,5,P,A,5,10,4,3,13,fan,Did you see the fan?,0.12,0.016,JPG\,scissors01,grape01,mushroom01,toiletpaper01a,fanheater,pizza,cigarette,ashtray01,carrot01,pineapple01a,foosballtable,lipstick02a,teabag,blankImage,blankImage,blankImage,blankImage,fanheater,,,,,,,,,,,,0,121,121,220,,,,,,,,,,,,,,,,,,,,,,,,,,,,,,,,,,,771.9397351999942,772.9516901000025,772.9349853000022,773.494764499992,773.494764499992,None,775.1184059999941,None,left,1.4422007000102894,775.1184059999941,None,776.5885493999958,None,right,0.5800376999977743,776.5885493999958,None,,,,,,,,,,,,,,,,,,,,,,,PPT16,001,2022-06-30_10h36.41.165,ABstudy,2022.1.4,59.94273071513893,
AB,Lag1_T1A_T2P,1,A,P,8,9,7,5,14,calendar,Did you see the calendar?,0.12,0.016,JPG\,foosballtable,candy,envelope03a,microscope,pencil01,leaf02a,scissors01,watermelon01,stapler04b,dandelion,pineapple01a,hammer01,celery,thermometer02b,blankImage,blankImage,blankImage,trampoline,,,,,,,,,,,,0,122,122,245,,,,,,,,,,,,,,,,,,,,,,,,,,,,,,,,,,,777.1926798000059,778.2067075999948,778.1900499000039,778.6937703000003,778.6937703000003,None,780.4817490999994,None,right,1.0385376000049291,780.4817490999994,None,781.5435441000009,None,right,0.24093620000348892,781.5435441000009,None,,,,,,,,,,,,,,,,,,,,,,,PPT16,001,2022-06-30_10h36.41.165,ABstudy,2022.1.4,59.94273071513893,
AB,Lag5_T1P_T2P,5,P,P,5,10,4,5,15,Ipad,Did you see the Ipad?,0.12,0.016,JPG\,fork03c,toothbrush03b,cellphone,fan,ipad02,clock01a,ring01,eraser,sunglasses04,stapler06,violin,brownsugar,blueberry01,pear01,pencil01,blankImage,blankImage,ipad02,,,,,,,,,,,,0,123,123,150,,,,,,,,,,,,,,,,,,,,,,,,,,,,,,,,,,,781.8191630999936,782.8281059000001,782.8113637999923,783.3675497999939,783.3675497999939,None,785.2353058000008,None,left,1.117035900009796,785.2353058000008,None,786.3816751999984,None,right,0.5626868999970611,786.3816751999984,None,,,,,,,,,,,,,,,,,,,,,,,PPT16,001,2022-06-30_10h36.41.165,ABstudy,2022.1.4,59.94273071513893,
AB,Lag1_T1P_T2P,1,P,P,6,7,5,4,11,Bow,Did you see the Bow?,0.12,0.016,JPG\,broom01,plate01b,scissors01,garlic01a,paintbrush01,bow,stapler03a,shirt02,speaker04,celery,sandal,blankImage,blankImage,blankImage,blankImage,blankImage,blankImage,bow,,,,,,,,,,,,0,124,124,53,,,,,,,,,,,,,,,,,,,,,,,,,,,,,,,,,,,786.9712309000024,787.9829443000053,787.9679274999944,788.6314612999995,788.5633803999954,None,789.9038481000025,None,left,0.6728843000018969,789.9038481000025,None,790.602536099992,None,right,0.6781655999948271,790.602536099992,None,,,,,,,,,,,,,,,,,,,,,,,PPT16,001,2022-06-30_10h36.41.165,ABstudy,2022.1.4,59.94273071513893,
AB,Lag5_T1P_T2P,5,P,P,6,11,5,3,14,wrench,Did you see the wrench?,0.12,0.016,JPG\,cherry01,cymbal,envelope03a,foosballtable,shirt02,stubbywrench01a,sewingmachine01a,candle08b,battery02b,apple07,stapler03b,screwdriver04b,strawberry,sunglasses04,blankImage,blankImage,blankImage,stubbywrench01a,,,,,,,,,,,,0,125,125,122,,,,,,,,,,,,,,,,,,,,,,,,,,,,,,,,,,,791.304735800004,792.304367100005,792.288787700003,792.8812313999952,792.8812313999952,None,794.6074115999945,None,left,1.4814301000005798,794.6074115999945,None,796.1076018000022,None,right,0.44603240001015365,796.1076018000022,None,,,,,,,,,,,,,,,,,,,,,,,PPT16,001,2022-06-30_10h36.41.165,ABstudy,2022.1.4,59.94273071513893,
AB,Lag1_T1P_T2P,1,P,P,5,6,4,3,9,Escalator,Did you see the Escalator?,0.12,0.016,JPG\,celery,pencil01,fan,foosballtable,escalator,stapler05,potato02b,fork03c,button01,blankImage,blankImage,blankImage,blankImage,blankImage,blankImage,blankImage,blankImage,escalator,,,,,,,,,,,,0,126,126,82,,,,,,,,,,,,,,,,,,,,,,,,,,,,,,,,,,,796.5785137000057,797.5927995999955,797.5759333000024,798.2005162999994,798.1265593999997,None,799.226814499998,None,left,0.45323939999798313,799.226814499998,None,799.7119417999929,None,left,0.1762773000082234,799.7119417999929,None,,,,,,,,,,,,,,,,,,,,,,,PPT16,001,2022-06-30_10h36.41.165,ABstudy,2022.1.4,59.94273071513893,
AB,Lag5_T1P_T2A,5,P,A,6,11,5,5,16,hat,Did you see the hat?,0.12,0.016,JPG\,apple07,toiletpaper01a,pizza,dandelion,greenolive,pilgrimhat,microscope,violin,orange,lipstick02a,balloon01b,sandal,lighter01,fan,book01b,sewingmachine01a,blankImage,pilgrimhat,,,,,,,,,,,,0,127,127,206,,,,,,,,,,,,,,,,,,,,,,,,,,,,,,,,,,,799.9164374999964,800.9294609999924,800.9127165999962,801.5093142999976,801.5093142999976,None,803.4401881999947,None,right,1.9921245000005001,803.4401881999947,None,805.4506832000043,None,right,0.2214620000013383,805.4506832000043,None,,,,,,,,,,,,,,,,,,,,,,,PPT16,001,2022-06-30_10h36.41.165,ABstudy,2022.1.4,59.94273071513893,
AB,Lag5_T1A_T2P,5,A,P,8,13,7,5,18,fish,Did you see the fish?,0.12,0.016,JPG\,scissors01,grape01,mushroom01,toiletpaper01a,greenolive,pizza,cigarette,ashtray01,carrot01,pineapple01a,foosballtable,lipstick02a,stapler04b,tambourine02,potato02b,violin,blankImage,chimney,,,,,,,,,,,,0,128,128,283,,,,,,,,,,,,,,,,,,,,,,,,,,,,,,,,,,,805.7062099000032,806.7184247999976,806.7016539000033,807.2822629000002,807.2822629000002,None,809.2275799000054,None,right,0.7970139999961248,809.2275799000054,None,810.0551390000037,None,right,0.19361109999590553,810.0551390000037,None,,,,,,,,,,,,,,,,,,,,,,,PPT16,001,2022-06-30_10h36.41.165,ABstudy,2022.1.4,59.94273071513893,
AB,Lag5_T1A_T2P,5,A,P,8,13,7,5,18,lollipop,Did you see the lollipop?,0.12,0.016,JPG\,watermelon01,banana01,ring01,pencil01,tomato01,speaker04,cucumber,thermometer02b,key01,foosballtable,violin,spoon01,stapler04b,dice05a,pen04b,mushroom01,blankImage,jeans01,,,,,,,,,,,,0,129,129,262,,,,,,,,,,,,,,,,,,,,,,,,,,,,,,,,,,,810.2783265000035,811.2893543999962,811.2731270999939,811.8975253999961,811.8975253999961,None,813.791275800002,None,right,0.7612447999999858,813.791275800002,None,814.5763894999982,None,right,0.19322669999382924,814.5763894999982,None,,,,,,,,,,,,,,,,,,,,,,,PPT16,001,2022-06-30_10h36.41.165,ABstudy,2022.1.4,59.94273071513893,
AB,Lag1_T1P_T2P,1,P,P,7,8,6,5,13,arrow,Did you see the arrow?,0.12,0.016,JPG\,pencil01,broccoli01a,button01,sponge01,watermelon01,lipstick02a,arrow02,stapler04b,lighter01,sock01a,spoon01,blueberry01,belt02a,blankImage,blankImage,blankImage,blankImage,arrow02,,,,,,,,,,,,0,130,130,76,,,,,,,,,,,,,,,,,,,,,,,,,,,,,,,,,,,814.7969546999957,815.8108842999936,815.7940719000035,816.3720165999985,816.3720165999985,None,817.9783852999972,None,left,0.49521599999570753,817.9783852999972,None,818.4966239999922,None,left,0.2317507999978261,818.4966239999922,None,,,,,,,,,,,,,,,,,,,,,,,PPT16,001,2022-06-30_10h36.41.165,ABstudy,2022.1.4,59.94273071513893,
AB,Lag1_T1P_T2P,1,P,P,6,7,5,5,12,Snowboard,Did you see the Snowboard?,0.12,0.016,JPG\,belt02a,measuringcup01,spoon01,chain01,greenolive,snowboard,stapler01,onion,fan,strawberry,candle01,broom01,blankImage,blankImage,blankImage,blankImage,blankImage,snowboard,,,,,,,,,,,,0,131,131,49,,,,,,,,,,,,,,,,,,,,,,,,,,,,,,,,,,,818.7492193999933,819.7647004000028,819.7312672999979,820.3189532999968,820.3189532999968,None,821.8391867000028,None,right,1.2489008999982616,821.8391867000028,None,823.1178977999953,None,left,0.3060235000011744,823.1178977999953,None,,,,,,,,,,,,,,,,,,,,,,,PPT16,001,2022-06-30_10h36.41.165,ABstudy,2022.1.4,59.94273071513893,
AB,Lag5_T1P_T2P,5,P,P,8,13,7,4,17,lamp,Did you see the lamp?,0.12,0.016,JPG\,globe,broccoli01a,binoculars01b,iron01b,avocado01,dandelion,pineapple01a,floorlamp,fan,pizza,celery,blueberry01,stapler01,dice05a,watermelon01,candy,blankImage,floorlamp,,,,,,,,,,,,0,132,132,99,,,,,,,,,,,,,,,,,,,,,,,,,,,,,,,,,,,823.4543482000008,824.469259599995,824.4359343999968,825.0247114999947,825.0247114999947,None,826.9601272,None,left,0.5283740000013495,826.9601272,None,827.5057182000019,None,left,0.24658770000678487,827.5057182000019,None,,,,,,,,,,,,,,,,,,,,,,,PPT16,001,2022-06-30_10h36.41.165,ABstudy,2022.1.4,59.94273071513893,
AB,Lag5_T1P_T2P,5,P,P,5,10,4,5,15,mouse,Did you see the mouse?,0.12,0.016,JPG\,pineapple01a,leaf02a,grape01,toiletpaper01a,mouse,tennisball01b,spoon01,chain01,pig,stapler03a,ring01,lemon02,dice05a,pizza,potato02b,blankImage,blankImage,mouse,,,,,,,,,,,,0,133,133,94,,,,,,,,,,,,,,,,,,,,,,,,,,,,,,,,,,,827.8152030000056,828.8245213000046,828.8075948000042,829.3746623000043,829.3746623000043,None,831.1995259999967,None,left,0.36091440000745934,831.1995259999967,None,831.5933227999922,None,left,0.17505370000435505,831.5933227999922,None,,,,,,,,,,,,,,,,,,,,,,,PPT16,001,2022-06-30_10h36.41.165,ABstudy,2022.1.4,59.94273071513893,
AB,Lag1_T1A_T2P,1,A,P,8,9,7,4,13,Christmas tree,Did you see the Christmas tree?,0.12,0.016,JPG\,broom01,globe,cellphone,tableknife02,cauliflower01,scissors01,ring01,alligator,stapler03a,toaster01,cigarette,grape01,microscope,blankImage,blankImage,blankImage,blankImage,windmill,,,,,,,,,,,,0,134,134,247,,,,,,,,,,,,,,,,,,,,,,,,,,,,,,,,,,,831.7956464000017,832.8110141999932,832.7775067000039,833.3632644000027,833.3632644000027,None,834.990659499992,None,right,1.0580175999930361,834.990659499992,None,836.0807422999933,None,left,0.3607260999997379,836.0807422999933,None,,,,,,,,,,,,,,,,,,,,,,,PPT16,001,2022-06-30_10h36.41.165,ABstudy,2022.1.4,59.94273071513893,
AB,Lag5_T1A_T2P,5,A,P,6,11,5,3,14,keys,Did you see the keys?,0.12,0.016,JPG\,pencil01,microscope,banana01,computerkeyboard02,celery,cellphone,scissors01,sock01a,book01b,onion,stapler03a,binoculars01b,baseball01a,iron01b,blankImage,blankImage,blankImage,treadmill,,,,,,,,,,,,0,135,135,275,,,,,,,,,,,,,,,,,,,,,,,,,,,,,,,,,,,836.467550699992,837.4822148999956,837.4488542000036,838.0518253000046,838.0518253000046,None,839.7545102000004,None,right,0.9019528000062564,839.7545102000004,None,840.6857525999949,None,left,0.3466776999994181,840.6857525999949,None,,,,,,,,,,,,,,,,,,,,,,,PPT16,001,2022-06-30_10h36.41.165,ABstudy,2022.1.4,59.94273071513893,
AB,Lag1_T1A_T2P,1,A,P,5,6,4,4,10,Bull,Did you see the Bull?,0.12,0.016,JPG\,celery,pencil01,fan,foosballtable,iron01b,stapler01,potato02b,fork03c,button01,pineapple01a,blankImage,blankImage,blankImage,blankImage,blankImage,blankImage,blankImage,spiderweb,,,,,,,,,,,,0,136,136,244,,,,,,,,,,,,,,,,,,,,,,,,,,,,,,,,,,,841.0578742999933,842.0704845,842.053793900006,842.6245040999929,842.6245040999929,None,843.9184238000016,None,right,0.9538173000037204,843.9184238000016,None,844.8894876999984,None,left,0.3437142000038875,844.8894876999984,None,,,,,,,,,,,,,,,,,,,,,,,PPT16,001,2022-06-30_10h36.41.165,ABstudy,2022.1.4,59.94273071513893,
AB,Lag5_T1P_T2P,5,P,P,8,13,7,4,17,cruise ship,Did you see the cruise ship?,0.12,0.016,JPG\,measuringcup01,dice05a,greenolive,lipstick02a,feather03a,balloon01b,lighter01,cruiseship,carrot01,plate01b,microscope,brick,stapler05,screw02,speaker04,spoon01,blankImage,cruiseship,,,,,,,,,,,,0,137,137,105,,,,,,,,,,,,,,,,,,,,,,,,,,,,,,,,,,,845.2599271999934,846.2743362000037,846.2577023000049,846.9339030999981,846.8537276999996,None,848.7756401999941,None,left,0.6005149999982677,848.7756401999941,None,849.3940282999974,None,left,0.20610940000915434,849.3940282999974,None,,,,,,,,,,,,,,,,,,,,,,,PPT16,001,2022-06-30_10h36.41.165,ABstudy,2022.1.4,59.94273071513893,
