TrialType,CondType,Lag,T1_PA,T2_PA,T1Loc,T2Loc,PreDistractor,PostDistractor,TotalImg,cueWord,T1cue,StimLength,isi,PicFolder,Img1,Img2,Img3,Img4,Img5,Img6,Img7,Img8,Img9,Img10,Img11,Img12,Img13,Img14,Img15,Img16,Img17,T1_Identity,ImageType,T1PA,T2PA,Picture,Image,FullPathName,FilePath,Practice_Trials.thisRepN,Practice_Trials.thisTrialN,Practice_Trials.thisN,Practice_Trials.thisIndex,trials.thisRepN,trials.thisTrialN,trials.thisN,trials.thisIndex,trials_2.thisRepN,trials_2.thisTrialN,trials_2.thisN,trials_2.thisIndex,Practice_Ins.started,Practice_Ins.stopped,End_Prac_Ins.keys,End_Prac_Ins.rt,End_Prac_Ins.started,End_Prac_Ins.stopped,text_2.started,text_2.stopped,Fixation_Cross_2.started,Fixation_Cross_2.stopped,Rapid_Image_Present_2.started,Rapid_Image_Present_2.stopped,key_resp.keys,key_resp.rt,key_resp.started,key_resp.stopped,T1Response_2.started,T1Response_2.stopped,T2Response_2.started,T2Response_2.stopped,key_resp_4.keys,key_resp_4.rt,key_resp_4.started,key_resp_4.stopped,text.started,text.stopped,End_Instructions.keys,End_Instructions.rt,End_Instructions.started,End_Instructions.stopped,text_5.started,text_5.stopped,FC.started,FC.stopped,Rapid_Image_Present.started,Rapid_Image_Present.stopped,T1Response.started,T1Response.stopped,key_resp_2.keys,key_resp_2.rt,key_resp_2.started,key_resp_2.stopped,T2Response.started,T2Response.stopped,key_resp_3.keys,key_resp_3.rt,key_resp_3.started,key_resp_3.stopped,text_6.started,text_6.stopped,Fin_ins.keys,Fin_ins.rt,Fin_ins.started,Fin_ins.stopped,MemTest.started,MemTest.stopped,MemResponse.keys,MemResponse.rt,MemResponse.started,MemResponse.stopped,Display.started,Display.stopped,text_7.started,text_7.stopped,endOfExperiment.started,endOfExperiment.stopped,key_resp_5.keys,key_resp_5.rt,key_resp_5.started,key_resp_5.stopped,participant,session,date,expName,psychopyVersion,frameRate,
,,,,,,,,,,,,,,,,,,,,,,,,,,,,,,,,,,,,,,,,,,,,,,,,,,,,20.043516899997485,None,space,32.73041020000528,20.043516899997485,None,,,,,,,,,,,,,,,,,,,,,,,,,,,,,,,,,,,,,,,,,,,,,,,,,,,,,,,,,,,,,,,,,PPT18,001,2022-06-30_12h37.33.852,ABstudy,2022.1.4,59.92857712385407,
AB_Prac,Lag5_T1A_T2A,5,A,A,6,11,5,5,16,castle,Did you see the castle?,0.5,0.016,JPG\,tape02a,englishmuffin,flask,ladle02a,monitor,peach01,keychain,squeegee01b,telephone01b,whisk,walkman,syringe02,baguette01,coaster,box01a,coffeepot03a,blankImage,None,,,,,,,,0,0,0,11,,,,,,,,,,,,,,,52.854688699997496,53.85842099999718,53.84192360000452,54.459765999999945,54.459765999999945,None,right,1.9408513999951538,62.56962629999907,None,62.56962629999907,None,64.53569970000535,None,right,2.349860499991337,64.53569970000535,None,,,,,,,,,,,,,,,,,,,,,,,,,,,,,,,,,,,,,,,,,,,,,,,PPT18,001,2022-06-30_12h37.33.852,ABstudy,2022.1.4,59.92857712385407,
AB_Prac,Lag5_T1P_T2A,5,P,A,6,11,5,5,16,Wheat,Did you see the Wheat?,0.5,0.016,JPG\,bottleopener01,dentalfloss03b,cooler01,icecreamcone01a,paperclip01b,wheat,pencilsharpener02a,plasticbasket01a,toycar04,apricot,hairclip02,rock01a,honeydewmelon,antenna,blackberry,cardboardbox,blankImage,wheat,,,,,,,,0,1,1,7,,,,,,,,,,,,,,,66.90960250000353,67.92249470000388,67.90570430000662,68.47798340000736,68.47798340000736,None,left,2.0797375999973156,76.52586520000477,None,76.52586520000477,None,78.63360159999866,None,right,0.8933360000082757,78.63360159999866,None,,,,,,,,,,,,,,,,,,,,,,,,,,,,,,,,,,,,,,,,,,,,,,,PPT18,001,2022-06-30_12h37.33.852,ABstudy,2022.1.4,59.92857712385407,
AB_Prac,Lag1_T1A_T2A,1,A,A,8,9,7,3,12,Moose,Did you see the Moose?,0.5,0.016,JPG\,clothespin03b,corkscrew03a,drillbit03a,fusilli03a,needlenosepliers01,perfume01a,pistachio,scrubbingbrush05b,spatula03,toothpastetube,hinge,toydinosaur,blankImage,blankImage,blankImage,blankImage,blankImage,None,,,,,,,,0,2,2,10,,,,,,,,,,,,,,,79.55978250000044,80.56856210000115,80.55169459999888,81.12564880000718,81.12564880000718,None,right,1.5283176000084495,87.12542270000267,None,87.12542270000267,None,88.67618740000762,None,right,0.656933400008711,88.67618740000762,None,,,,,,,,,,,,,,,,,,,,,,,,,,,,,,,,,,,,,,,,,,,,,,,PPT18,001,2022-06-30_12h37.33.852,ABstudy,2022.1.4,59.92857712385407,
AB_Prac,Lag5_T1P_T2P,5,P,P,5,10,4,5,15,washing machine,Did you see the washing machine?,0.5,0.016,JPG\,waterbottle03,wheel01,flashlight02b,zucchini01,washingmachine,headphones02b,nutcracker01,paintroller01,paperclip03,stapler06,ribbon04,electricrazor,bottleofredwine01,pitabread,pot02a,blankImage,blankImage,washingmachine,,,,,,,,0,3,3,4,,,,,,,,,,,,,,,89.36742120000417,90.37810070000705,90.36143590000574,90.95034110000415,90.95034110000415,None,left,2.183994699997129,98.46115550000104,None,98.46115550000104,None,100.67143460000807,None,right,3.2778941000142368,100.67143460000807,None,,,,,,,,,,,,,,,,,,,,,,,,,,,,,,,,,,,,,,,,,,,,,,,PPT18,001,2022-06-30_12h37.33.852,ABstudy,2022.1.4,59.92857712385407,
AB_Prac,Lag1_T1P_T2P,1,P,P,8,9,7,5,14,Tennis racket,Did you see the Tennis racket?,0.5,0.016,JPG\,coconut,computermouse06,croissant01,deodorant02a,pillow01a,peanut01,boot02b,tennisracket,stapler03b,crayon,eggplant,marker01a,plant01,radish01,blankImage,blankImage,blankImage,tennisracket,,,,,,,,0,4,4,0,,,,,,,,,,,,,,,103.97889790000045,104.99251650000224,104.97584630000347,105.56625920000079,105.56625920000079,None,left,1.5239906999922823,112.56925529999717,None,112.56925529999717,None,114.11844950000523,None,left,0.27108280001266394,114.11844950000523,None,,,,,,,,,,,,,,,,,,,,,,,,,,,,,,,,,,,,,,,,,,,,,,,PPT18,001,2022-06-30_12h37.33.852,ABstudy,2022.1.4,59.92857712385407,
AB_Prac,Lag5_T1P_T2P,5,P,P,5,10,4,5,15,Vulture,Did you see the Vulture?,0.5,0.016,JPG\,shorts01,toast,ramekin01,bib,vulture,cracker02,date,glasses01a,hat03b,stapler01,measuringtape01,nail,pill,drum01,starfish01,blankImage,blankImage,vulture,,,,,,,,0,5,5,3,,,,,,,,,,,,,,,114.42150700000639,115.43664129999524,115.40357120000408,115.968423600003,115.968423600003,None,left,1.0243248000042513,123.54952539999795,None,123.54952539999795,None,124.59608970000409,None,left,0.3059382000064943,124.59608970000409,None,,,,,,,,,,,,,,,,,,,,,,,,,,,,,,,,,,,,,,,,,,,,,,,PPT18,001,2022-06-30_12h37.33.852,ABstudy,2022.1.4,59.92857712385407,
AB_Prac,Lag1_T1P_T2P,1,P,P,6,7,5,5,12,triangle,Did you see the triangle?,0.5,0.016,JPG\,ginger,mousetrap,plum01,slipper01b,dropper01,triangle,stapler04b,pants,raspberry01,rope03,scale01a,vase01,blankImage,blankImage,blankImage,blankImage,blankImage,triangle,,,,,,,,0,6,6,1,,,,,,,,,,,,,,,124.9337508000026,125.94705109999632,125.93036209999991,126.51539390000107,126.51539390000107,None,left,0.7165131000074325,132.62498560000677,None,132.62498560000677,None,133.37066840000625,None,left,0.2828695000061998,133.37066840000625,None,,,,,,,,,,,,,,,,,,,,,,,,,,,,,,,,,,,,,,,,,,,,,,,PPT18,001,2022-06-30_12h37.33.852,ABstudy,2022.1.4,59.92857712385407,
AB_Prac,Lag5_T1P_T2A,5,P,A,6,11,5,5,16,bread,Did you see the bread?,0.5,0.016,JPG\,cleaver01,clipboard,dustpan,hikingshoe01,notebook03a,baguette01,playingcard,pliers02b,styrofoamcup,rollingpin01a,swimgoggles,wineglass01,fryingpan02a,safetypin,syringe01,thimble,blankImage,baguette01,,,,,,,,0,7,7,8,,,,,,,,,,,,,,,133.6768754000077,134.68871309999668,134.67200530000264,135.24386570000206,135.24386570000206,None,left,0.9737374000105774,143.25635680000414,None,143.25635680000414,None,144.2485522000061,None,right,0.5963192000053823,144.2485522000061,None,,,,,,,,,,,,,,,,,,,,,,,,,,,,,,,,,,,,,,,,,,,,,,,PPT18,001,2022-06-30_12h37.33.852,ABstudy,2022.1.4,59.92857712385407,
AB_Prac,Lag5_T1A_T2P,5,A,P,6,11,5,3,14,dog,Did you see the dog?,0.5,0.016,JPG\,bucket01a,doorlock,cookiecutter,fireextinguisher01,gluestick,highlighter02b,sportbag,spraybottle01,suitcase,thread02,stapler05,walnut01c,icecubetray01a,vikingmask01b,blankImage,blankImage,blankImage,None,,,,,,,,0,8,8,9,,,,,,,,,,,,,,,144.86773130000802,145.88312290000613,145.84979989999556,146.438613300008,146.438613300008,None,right,1.094190499992692,153.47970070000156,None,153.47970070000156,None,154.5925966000068,None,left,2.324694200011436,154.5925966000068,None,,,,,,,,,,,,,,,,,,,,,,,,,,,,,,,,,,,,,,,,,,,,,,,PPT18,001,2022-06-30_12h37.33.852,ABstudy,2022.1.4,59.92857712385407,
AB_Prac,Lag1_T1P_T2A,1,P,A,8,9,7,5,14,flower,Did you see the flower?,0.5,0.016,JPG\,razor01,axe01,binder03b,bowl01,kettle01,lettuce,lime,plasticflower01b,mitten04,pencilcase01,plunger02,strawbasket01,toothpick02,wallet02a,blankImage,blankImage,blankImage,plasticflower01b,,,,,,,,0,9,9,5,,,,,,,,,,,,,,,156.95326890000433,157.96213620000344,157.94538849999662,158.5310477000021,158.5310477000021,None,right,2.587576899997657,165.59470879999571,None,165.59470879999571,None,168.20526719999907,None,right,1.3836357000109274,168.20526719999907,None,,,,,,,,,,,,,,,,,,,,,,,,,,,,,,,,,,,,,,,,,,,,,,,PPT18,001,2022-06-30_12h37.33.852,ABstudy,2022.1.4,59.92857712385407,
AB_Prac,Lag1_T1P_T2A,1,P,A,5,6,4,5,11,Webcam,Did you see the Webcam?,0.5,0.016,JPG\,pictureframe04,binder03b,straw,adjustablewrench01b,webcam,cane,hairdryer02a,icepack,kitchenscale01a,lifejacket,piggybank,blankImage,blankImage,blankImage,blankImage,blankImage,blankImage,webcam,,,,,,,,0,10,10,6,,,,,,,,,,,,,,,169.61095529999875,170.62454610000714,170.60789440000372,171.19318499999645,171.19318499999645,None,left,1.0688358000043081,176.71201980000478,None,176.71201980000478,None,177.79883080000582,None,right,0.4080450000037672,177.79883080000582,None,,,,,,,,,,,,,,,,,,,,,,,,,,,,,,,,,,,,,,,,,,,,,,,PPT18,001,2022-06-30_12h37.33.852,ABstudy,2022.1.4,59.92857712385407,
AB_Prac,Lag5_T1P_T2P,5,P,P,7,12,6,3,15,vacuum,Did you see the vacuum?,0.5,0.016,JPG\,fork07b,lightbulb01,manshoe,saw02b,shoelace,soap03a,vacuumcleaner01,floortile01,necklace,doll,cabbage,stapler03a,hanger02a,laptop01a,nailpolish03b,blankImage,blankImage,vacuumcleaner01,,,,,,,,0,11,11,2,,,,,,,,,,,,,,,178.2413491000043,179.25004090000584,179.23367070000677,179.84822949999943,179.84822949999943,None,left,0.6762665999995079,187.3052527999971,None,187.3052527999971,None,188.00851860000694,None,left,0.461062900008983,188.00851860000694,None,,,,,,,,,,,,,,,,,,,,,,,,,,,,,,,,,,,,,,,,,,,,,,,PPT18,001,2022-06-30_12h37.33.852,ABstudy,2022.1.4,59.92857712385407,
,,,,,,,,,,,,,,,,,,,,,,,,,,,,,,,,,,,,,,,,,,,,,,,,,,,,,,,,,,,,,,,,,,,,,,,,,,,,188.49256759999844,None,space,19.304265200000373,188.49256759999844,None,,,,,,,,,,,,,,,,,,,,,,,,,,,,,,,,,,,,,,,,,PPT18,001,2022-06-30_12h37.33.852,ABstudy,2022.1.4,59.92857712385407,
AB,Lag1_T1P_T2P,1,P,P,5,6,4,5,11,Light switch,Did you see the Light switch?,0.12,0.016,JPG\,iron01b,orange,birthdaycandle,potato02b,lightswitch01,stapler03b,key01,candle08b,celery,tableknife02,pen04b,blankImage,blankImage,blankImage,blankImage,blankImage,blankImage,lightswitch01,,,,,,,,,,,,0,0,0,18,,,,,,,,,,,,,,,,,,,,,,,,,,,,,,,,,,,208.4179654000036,209.42999459999555,209.41348790000484,210.0437879999954,210.0437879999954,None,211.3801417000068,None,left,1.5213524000137113,211.3801417000068,None,212.9356165000063,None,left,0.7347486000071513,212.9356165000063,None,,,,,,,,,,,,,,,,,,,,,,,PPT18,001,2022-06-30_12h37.33.852,ABstudy,2022.1.4,59.92857712385407,
AB,Lag5_T1A_T2P,5,A,P,6,11,5,4,15,fish,Did you see the fish?,0.12,0.016,JPG\,pingpongpaddle01c,banana01,scissors01,pig,shirt02,leaf02a,pear01,sponge01,fork03c,tableknife02,stapler03a,match,toothbrush03b,birthdaycandle,candle01,blankImage,blankImage,lighthouse,,,,,,,,,,,,0,1,1,265,,,,,,,,,,,,,,,,,,,,,,,,,,,,,,,,,,,213.70702339999843,214.71959480000078,214.70371480000904,215.30079300000216,215.30079300000216,None,217.08737019999535,None,right,1.350071199995,217.08737019999535,None,218.46985069999937,None,left,0.6556373000057647,218.46985069999937,None,,,,,,,,,,,,,,,,,,,,,,,PPT18,001,2022-06-30_12h37.33.852,ABstudy,2022.1.4,59.92857712385407,
AB,Lag5_T1P_T2P,5,P,P,5,10,4,5,15,funnel,Did you see the funnel?,0.12,0.016,JPG\,pineapple01a,tennisball01b,computerkeyboard02,feather03a,funnel,acorn,violin,blueberry01,medal02b,stapler01,greenolive,screwdriver04b,potato02b,fork03c,cymbal,blankImage,blankImage,funnel,,,,,,,,,,,,0,2,2,109,,,,,,,,,,,,,,,,,,,,,,,,,,,,,,,,,,,219.15944519999903,220.1738231000054,220.14047470000514,220.73144240000693,220.73144240000693,None,222.47795719999704,None,left,1.118845600009081,222.47795719999704,None,223.62723220000044,None,right,0.777623300004052,223.62723220000044,None,,,,,,,,,,,,,,,,,,,,,,,PPT18,001,2022-06-30_12h37.33.852,ABstudy,2022.1.4,59.92857712385407,
AB,Lag1_T1A_T2P,1,A,P,5,6,4,5,11,rake,Did you see the rake?,0.12,0.016,JPG\,candy,brownsugar,dice05a,cd,sock01a,stapler01,button01,potato02b,feather03a,grape01,dandelion,blankImage,blankImage,blankImage,blankImage,blankImage,blankImage,greatwhiteshark,,,,,,,,,,,,0,3,3,256,,,,,,,,,,,,,,,,,,,,,,,,,,,,,,,,,,,224.4303469000006,225.44577230000868,225.41231260000495,225.9891426999966,225.9891426999966,None,227.31097489999956,None,right,0.8559077000099933,227.31097489999956,None,228.1993580999988,None,right,0.8141204999992624,228.1993580999988,None,,,,,,,,,,,,,,,,,,,,,,,PPT18,001,2022-06-30_12h37.33.852,ABstudy,2022.1.4,59.92857712385407,
AB,Lag5_T1P_T2P,5,P,P,7,12,6,3,15,lips,Did you see the lips?,0.12,0.016,JPG\,cigarette,fork03c,greenolive,broccoli01a,avocado01,tennisball01b,lip,leaf02a,pig,fan,clock01a,stapler03a,envelope03a,birthdaycandle,teabag,blankImage,blankImage,lip,,,,,,,,,,,,0,4,4,95,,,,,,,,,,,,,,,,,,,,,,,,,,,,,,,,,,,229.0418786000082,230.05064840000705,230.03408779999882,230.63456839999708,230.63456839999708,None,232.46150600000692,None,left,1.0394147000042722,232.46150600000692,None,233.52186619999702,None,right,0.7549636000039754,233.52186619999702,None,,,,,,,,,,,,,,,,,,,,,,,PPT18,001,2022-06-30_12h37.33.852,ABstudy,2022.1.4,59.92857712385407,
AB,Lag1_T1A_T2P,1,A,P,5,6,4,3,9,chimney,Did you see the chimney?,0.12,0.016,JPG\,cucumber,sponge01,alligator,pear01,ashtray01,stapler06,clock04,battery02b,fork03c,blankImage,blankImage,blankImage,blankImage,blankImage,blankImage,blankImage,blankImage,trophy01,,,,,,,,,,,,0,5,5,246,,,,,,,,,,,,,,,,,,,,,,,,,,,,,,,,,,,234.31103660000372,235.322559799999,235.30571070000587,235.87912369999685,235.87912369999685,None,236.97290290000092,None,right,1.407926400002907,236.97290290000092,None,238.4092379000067,None,left,0.5078306999930646,238.4092379000067,None,,,,,,,,,,,,,,,,,,,,,,,PPT18,001,2022-06-30_12h37.33.852,ABstudy,2022.1.4,59.92857712385407,
AB,Lag5_T1A_T2P,5,A,P,7,12,6,4,16,hand,Did you see the hand?,0.12,0.016,JPG\,celery,tennisball01b,calculator01,pear01,screw02,orange,button01,cellphone,onion,apple07,iron01b,stapler05,banana01,paintbrush01,dandelion,toothbrush03b,blankImage,bull,,,,,,,,,,,,0,6,6,281,,,,,,,,,,,,,,,,,,,,,,,,,,,,,,,,,,,238.9463883999997,239.96039980000933,239.9436468000058,240.53618579999602,240.53618579999602,None,242.48605880000105,None,right,1.527418800003943,242.48605880000105,None,244.03157429999555,None,left,0.8778935000009369,244.03157429999555,None,,,,,,,,,,,,,,,,,,,,,,,PPT18,001,2022-06-30_12h37.33.852,ABstudy,2022.1.4,59.92857712385407,
AB,Lag5_T1A_T2P,5,A,P,8,13,7,4,17,wrench,Did you see the wrench?,0.12,0.016,JPG\,clock01a,grape01,plate01b,key01,screwdriver04b,feather03a,pineapple01a,iron01b,toothbrush03b,comb02a,broom01,toaster01,stapler05,garlic01a,match,ashtray01,blankImage,seal,,,,,,,,,,,,0,7,7,272,,,,,,,,,,,,,,,,,,,,,,,,,,,,,,,,,,,244.93643100000918,245.94977730000392,245.9329771000048,246.51508900000772,246.51508900000772,None,248.51176280000072,None,right,0.7016326000011759,248.51176280000072,None,249.23670039999706,None,left,0.8244384999998147,249.23670039999706,None,,,,,,,,,,,,,,,,,,,,,,,PPT18,001,2022-06-30_12h37.33.852,ABstudy,2022.1.4,59.92857712385407,
AB,Lag1_T1P_T2P,1,P,P,6,7,5,3,10,spider web,Did you see the spider web?,0.12,0.016,JPG\,toaster01,chain01,sponge01,baseball01a,carrot01,spiderweb,stapler03b,iron01b,grape01,brick,blankImage,blankImage,blankImage,blankImage,blankImage,blankImage,blankImage,spiderweb,,,,,,,,,,,,0,8,8,72,,,,,,,,,,,,,,,,,,,,,,,,,,,,,,,,,,,250.09066610000446,251.10457270000188,251.08793490000244,251.6735394999996,251.6735394999996,None,252.87240340000426,None,left,1.2370549000042956,252.87240340000426,None,254.1409421999997,None,left,0.6643258999974933,254.1409421999997,None,,,,,,,,,,,,,,,,,,,,,,,PPT18,001,2022-06-30_12h37.33.852,ABstudy,2022.1.4,59.92857712385407,
AB,Lag5_T1P_T2P,5,P,P,8,13,7,3,16,church,Did you see the church?,0.12,0.016,JPG\,clock01a,cellphone,toaster01,toothbrush03b,cauliflower01,microscope,comb02a,church,scarf,clock04,sponge01,iron01b,stapler06,celery,ring01,ashtray01,blankImage,church,,,,,,,,,,,,0,9,9,129,,,,,,,,,,,,,,,,,,,,,,,,,,,,,,,,,,,254.8274897000083,255.84269869999844,255.80934269999852,256.3957961999986,256.3957961999986,None,258.4047498,None,left,0.9043307999963872,258.4047498,None,259.32950370000617,None,left,0.6034689999942202,259.32950370000617,None,,,,,,,,,,,,,,,,,,,,,,,PPT18,001,2022-06-30_12h37.33.852,ABstudy,2022.1.4,59.92857712385407,
AB,Lag5_T1P_T2A,5,P,A,5,10,4,4,14,rocket,Did you see the rocket?,0.12,0.016,JPG\,fan,tomato01,candy,screwdriver04b,spacerocket,cd,thermometer02b,apple07,button01,plate01b,brownsugar,lighter01,clock01a,envelope03a,blankImage,blankImage,blankImage,spacerocket,,,,,,,,,,,,0,10,10,226,,,,,,,,,,,,,,,,,,,,,,,,,,,,,,,,,,,259.9657852000091,260.9813243999961,260.9479280000087,261.530204900002,261.530204900002,None,263.3410690000019,None,right,0.8478523000085261,263.3410690000019,None,264.220501600008,None,right,2.0723966999939876,264.220501600008,None,,,,,,,,,,,,,,,,,,,,,,,PPT18,001,2022-06-30_12h37.33.852,ABstudy,2022.1.4,59.92857712385407,
AB,Lag5_T1P_T2P,5,P,P,6,11,5,5,16,sword,Did you see the sword?,0.12,0.016,JPG\,chain01,speaker04,avocado01,watermelon01,scarf,sword01,lamp04a,fork03c,toaster01,slipper03b,stapler03a,cucumber,teabag,ashtray01,computerkeyboard02,book01b,blankImage,sword01,,,,,,,,,,,,0,11,11,143,,,,,,,,,,,,,,,,,,,,,,,,,,,,,,,,,,,266.3220793000073,267.33746260000044,267.30406219999713,267.87974920000124,267.87974920000124,None,269.8167960999999,None,left,0.9255956999986665,269.8167960999999,None,270.7745283999975,None,right,0.9502997000090545,270.7745283999975,None,,,,,,,,,,,,,,,,,,,,,,,PPT18,001,2022-06-30_12h37.33.852,ABstudy,2022.1.4,59.92857712385407,
AB,Lag5_T1P_T2P,5,P,P,5,10,4,3,13,rose,Did you see the rose?,0.12,0.016,JPG\,lipstick02a,cucumber,candle08b,printer02,rose,violin,paintbrush01,lighter01,belt02a,stapler03b,thermometer02b,microscope,cigarette,blankImage,blankImage,blankImage,blankImage,rose,,,,,,,,,,,,0,12,12,158,,,,,,,,,,,,,,,,,,,,,,,,,,,,,,,,,,,271.7460815000086,272.75972550000006,272.74295240000356,273.3905715000001,273.3160695999977,None,274.99380250000104,None,left,0.6675670999975409,274.99380250000104,None,275.6817566999962,None,left,0.2994260999985272,275.6817566999962,None,,,,,,,,,,,,,,,,,,,,,,,PPT18,001,2022-06-30_12h37.33.852,ABstudy,2022.1.4,59.92857712385407,
AB,Lag1_T1A_T2A,1,A,A,5,6,4,4,10,rose,Did you see the rose?,0.12,0.016,JPG\,sock01a,spoon01,alligator,comb02a,printer02,medal02b,lamp04a,cymbal,greenolive,computerkeyboard02,blankImage,blankImage,blankImage,blankImage,blankImage,blankImage,blankImage,cruiseship,,,,,,,,,,,,0,13,13,293,,,,,,,,,,,,,,,,,,,,,,,,,,,,,,,,,,,276.01574919999985,277.03043280000566,276.9970467000094,277.57902259999537,277.57902259999537,None,278.84439729999576,None,right,1.777168900007382,278.84439729999576,None,280.6533194000076,None,right,0.9926203000068199,280.6533194000076,None,,,,,,,,,,,,,,,,,,,,,,,PPT18,001,2022-06-30_12h37.33.852,ABstudy,2022.1.4,59.92857712385407,
AB,Lag1_T1P_T2P,1,P,P,7,8,6,3,11,Sand castle,Did you see the Sand castle?,0.12,0.016,JPG\,thermometer02b,candle08b,comb02a,toothbrush03b,brick,computerkeyboard02,sandcastle,stapler06,candy,birthdaycandle,clock04,blankImage,blankImage,blankImage,blankImage,blankImage,blankImage,sandcastle,,,,,,,,,,,,0,14,14,70,,,,,,,,,,,,,,,,,,,,,,,,,,,,,,,,,,,281.68564930000866,282.68627489999926,282.66966440000397,283.24159320000035,283.24159320000035,None,284.6768835999974,None,left,1.1759945000085281,284.6768835999974,None,285.8724605000025,None,right,0.8125347000022884,285.8724605000025,None,,,,,,,,,,,,,,,,,,,,,,,PPT18,001,2022-06-30_12h37.33.852,ABstudy,2022.1.4,59.92857712385407,
AB,Lag5_T1P_T2P,5,P,P,6,11,5,4,15,shovel,Did you see the shovel?,0.12,0.016,JPG\,carrot01,watch02a,clock04,microscope,toiletpaper01a,shovel01,alligator,ring01,brick,watermelon01,stapler03b,pencil01,measuringcup01,balloon01b,computerkeyboard02,blankImage,blankImage,shovel01,,,,,,,,,,,,0,15,15,139,,,,,,,,,,,,,,,,,,,,,,,,,,,,,,,,,,,286.70937540000887,287.72442610000144,287.6910508000001,288.27106260000437,288.27106260000437,None,290.1010433000047,None,left,0.6074506000004476,290.1010433000047,None,290.72796329999983,None,left,0.27658650001103524,290.72796329999983,None,,,,,,,,,,,,,,,,,,,,,,,PPT18,001,2022-06-30_12h37.33.852,ABstudy,2022.1.4,59.92857712385407,
AB,Lag5_T1P_T2P,5,P,P,5,10,4,5,15,penguin,Did you see the penguin?,0.12,0.016,JPG\,watermelon01,cigarette,pintofbeer,cymbal,penguin,feather03a,cherry01,broom01,battery02b,stapler05,baseball01a,iron01b,garlic01a,computerkeyboard02,pig,blankImage,blankImage,penguin,,,,,,,,,,,,0,16,16,137,,,,,,,,,,,,,,,,,,,,,,,,,,,,,,,,,,,291.03384210000513,292.04601760000514,292.0307024000067,292.6927230000001,292.6927230000001,None,294.3531018000067,None,left,0.87578429999121,294.3531018000067,None,295.24859899999865,None,left,0.24458330000925343,295.24859899999865,None,,,,,,,,,,,,,,,,,,,,,,,PPT18,001,2022-06-30_12h37.33.852,ABstudy,2022.1.4,59.92857712385407,
AB,Lag1_T1P_T2P,1,P,P,6,7,5,3,10,drum sticks,Did you see the drum sticks?,0.12,0.016,JPG\,pineapple01a,tennisball01b,computerkeyboard02,feather03a,belt02a,drumstick,stapler03b,blueberry01,medal02b,alligator,blankImage,blankImage,blankImage,blankImage,blankImage,blankImage,blankImage,drumstick,,,,,,,,,,,,0,17,17,61,,,,,,,,,,,,,,,,,,,,,,,,,,,,,,,,,,,295.5184741999983,296.5332138000085,296.51655339999706,297.167136700009,297.0851033000072,None,298.28061190000153,None,left,32.97249820000434,298.28061190000153,None,331.2848207000061,None,left,0.5355664000089746,331.2848207000061,None,,,,,,,,,,,,,,,,,,,,,,,PPT18,001,2022-06-30_12h37.33.852,ABstudy,2022.1.4,59.92857712385407,
AB,Lag1_T1A_T2P,1,A,P,7,8,6,5,13,Horseshoe,Did you see the Horseshoe?,0.12,0.016,JPG\,leaf02a,apple07,cd,pineapple01a,envelope03a,paintbrush01,pig,stapler06,rice,feather03a,lemon02,balloon01b,avocado01,blankImage,blankImage,blankImage,blankImage,rooster,,,,,,,,,,,,0,18,18,241,,,,,,,,,,,,,,,,,,,,,,,,,,,,,,,,,,,331.85411040000326,332.86968770000385,332.83620510000037,333.46771559999615,333.46771559999615,None,335.0174546000053,None,right,4.634854699994321,335.0174546000053,None,339.6763429999992,None,right,0.6967786000022897,339.6763429999992,None,,,,,,,,,,,,,,,,,,,,,,,PPT18,001,2022-06-30_12h37.33.852,ABstudy,2022.1.4,59.92857712385407,
AB,Lag5_T1P_T2P,5,P,P,5,10,4,5,15,Safe,Did you see the Safe?,0.12,0.016,JPG\,candle01,shirt02,brick,orange,safe,toothbrush03b,pizza,thermometer02b,book01b,stapler01,sewingmachine01a,toaster01,candy,cymbal,potato02b,blankImage,blankImage,safe,,,,,,,,,,,,0,19,19,159,,,,,,,,,,,,,,,,,,,,,,,,,,,,,,,,,,,340.3957442999963,341.4111828000023,341.3778220999957,341.967061000003,341.967061000003,None,343.8226130999974,None,left,0.8620750999980373,343.8226130999974,None,344.7147488000046,None,left,0.24988950000260957,344.7147488000046,None,,,,,,,,,,,,,,,,,,,,,,,PPT18,001,2022-06-30_12h37.33.852,ABstudy,2022.1.4,59.92857712385407,
AB,Lag1_T1P_T2P,1,P,P,8,9,7,3,12,Fire hydrant,Did you see the Fire hydrant?,0.12,0.016,JPG\,foosballtable,candy,envelope03a,microscope,pencil01,leaf02a,scissors01,firehydrant,stapler01,dandelion,pineapple01a,hammer01,blankImage,blankImage,blankImage,blankImage,blankImage,firehydrant,,,,,,,,,,,,0,20,20,83,,,,,,,,,,,,,,,,,,,,,,,,,,,,,,,,,,,344.9901685000077,345.9990969000064,345.9823997000058,346.4829541000072,346.4829541000072,None,348.03361420000147,None,left,0.8371214000071632,348.03361420000147,None,348.90212189999875,None,right,0.4624799000157509,348.90212189999875,None,,,,,,,,,,,,,,,,,,,,,,,PPT18,001,2022-06-30_12h37.33.852,ABstudy,2022.1.4,59.92857712385407,
AB,Lag1_T1P_T2A,1,P,A,6,7,5,3,10,Dragon fly,Did you see the Dragon fly?,0.12,0.016,JPG\,leaf02a,pear01,measuringcup01,cigarette,fan,dragonfly01,teabag,tableknife02,ring01,pencil01,blankImage,blankImage,blankImage,blankImage,blankImage,blankImage,blankImage,dragonfly01,,,,,,,,,,,,0,21,21,185,,,,,,,,,,,,,,,,,,,,,,,,,,,,,,,,,,,349.38993330000085,350.4034534999955,350.386803100002,350.9647115999978,350.9647115999978,None,352.18491680000443,None,left,0.7964379000040935,352.18491680000443,None,353.00885830000334,None,right,0.5162573999987217,353.00885830000334,None,,,,,,,,,,,,,,,,,,,,,,,PPT18,001,2022-06-30_12h37.33.852,ABstudy,2022.1.4,59.92857712385407,
AB,Lag5_T1P_T2P,5,P,P,5,10,4,5,15,Eye,Did you see the Eye?,0.12,0.016,JPG\,apple07,toiletpaper01a,pizza,dandelion,eye,eraser,microscope,violin,orange,stapler01,balloon01b,sandal,lighter01,fan,book01b,blankImage,blankImage,eye,,,,,,,,,,,,0,22,22,171,,,,,,,,,,,,,,,,,,,,,,,,,,,,,,,,,,,353.56240189999517,354.57433430000674,354.5576662999956,355.14681940000446,355.14681940000446,None,356.9738784000074,None,left,0.5903964000026463,356.9738784000074,None,357.59403069999826,None,left,0.23607300000730902,357.59403069999826,None,,,,,,,,,,,,,,,,,,,,,,,PPT18,001,2022-06-30_12h37.33.852,ABstudy,2022.1.4,59.92857712385407,
AB,Lag1_T1P_T2A,1,P,A,8,9,7,5,14,Ceiling fan,Did you see the Ceiling fan?,0.12,0.016,JPG\,cucumber,sponge01,alligator,pear01,ashtray01,hammer01,clock04,ceilingfan01,fork03c,binoculars01b,mushroom01,broccoli01a,leaf02a,acorn,blankImage,blankImage,blankImage,ceilingfan01,,,,,,,,,,,,0,23,23,183,,,,,,,,,,,,,,,,,,,,,,,,,,,,,,,,,,,357.8714035000012,358.8785576000082,358.8619427000085,359.4475717000023,359.4475717000023,None,361.08176410000306,None,left,0.730989400006365,361.08176410000306,None,361.83210510000936,None,right,0.5569484000006923,361.83210510000936,None,,,,,,,,,,,,,,,,,,,,,,,PPT18,001,2022-06-30_12h37.33.852,ABstudy,2022.1.4,59.92857712385407,
AB,Lag5_T1A_T2P,5,A,P,7,12,6,4,16,scooter,Did you see the scooter?,0.12,0.016,JPG\,cigarette,pig,banana01,strawberry,clock01a,plate01b,spoon01,blueberry01,battery02b,pineapple01a,chain01,stapler05,candy,pen04b,teabag,birthdaycandle,blankImage,1nose,,,,,,,,,,,,0,24,24,268,,,,,,,,,,,,,,,,,,,,,,,,,,,,,,,,,,,362.4203725999978,363.43336300000374,363.41659409999556,364.0079725999967,364.0079725999967,None,365.85315740000806,None,right,0.6558749000105308,365.85315740000806,None,366.5362410000089,None,left,0.8283305000077235,366.5362410000089,None,,,,,,,,,,,,,,,,,,,,,,,PPT18,001,2022-06-30_12h37.33.852,ABstudy,2022.1.4,59.92857712385407,
AB,Lag1_T1P_T2P,1,P,P,8,9,7,5,14,giraffe,Did you see the giraffe?,0.12,0.016,JPG\,pencil01,foosballtable,banana01,lipstick02a,toaster01,grape01,key01,giraffe,stapler03b,pineapple01a,strawberry,teabag,dandelion,paintbrush01,blankImage,blankImage,blankImage,giraffe,,,,,,,,,,,,0,25,25,0,,,,,,,,,,,,,,,,,,,,,,,,,,,,,,,,,,,367.39016740000807,368.40467820000777,368.3714047999965,368.9431891999993,368.9431891999993,None,370.678714499998,None,left,0.7501950000005309,370.678714499998,None,371.45812500000466,None,right,1.0502429999905871,371.45812500000466,None,,,,,,,,,,,,,,,,,,,,,,,PPT18,001,2022-06-30_12h37.33.852,ABstudy,2022.1.4,59.92857712385407,
AB,Lag5_T1P_T2P,5,P,P,6,11,5,5,16,Car,Did you see the Car?,0.12,0.016,JPG\,leaf02a,apple07,cd,pineapple01a,envelope03a,car,pig,canoftennisballs,rice,feather03a,stapler03a,balloon01b,avocado01,calculator01,watermelon01,teabag,blankImage,car,,,,,,,,,,,,0,26,26,127,,,,,,,,,,,,,,,,,,,,,,,,,,,,,,,,,,,372.53136999999697,373.54339420000906,373.5266440999985,374.1132742000045,374.1132742000045,None,376.09931259999576,None,left,1.6254119999939576,376.09931259999576,None,377.7476114000019,None,right,0.9533679000014672,377.7476114000019,None,,,,,,,,,,,,,,,,,,,,,,,PPT18,001,2022-06-30_12h37.33.852,ABstudy,2022.1.4,59.92857712385407,
AB,Lag5_T1P_T2P,5,P,P,6,11,5,4,15,punching bag,Did you see the punching bag?,0.12,0.016,JPG\,foosballtable,cigarette,pen04b,birthdaycandle,hammer01,punchingbag,binoculars01b,chain01,potato02b,cauliflower01,stapler04b,ashtray01,scarf,cellphone,calculator01,blankImage,blankImage,punchingbag,,,,,,,,,,,,0,27,27,156,,,,,,,,,,,,,,,,,,,,,,,,,,,,,,,,,,,378.7341835999978,379.7495593000058,379.71627550000267,380.22010350000346,380.22010350000346,None,382.11736689999816,None,left,0.6396487000019988,382.11736689999816,None,382.7857275999995,None,left,0.2831838999991305,382.7857275999995,None,,,,,,,,,,,,,,,,,,,,,,,PPT18,001,2022-06-30_12h37.33.852,ABstudy,2022.1.4,59.92857712385407,
AB,Lag1_T1P_T2P,1,P,P,5,6,4,3,9,kangaroo,Did you see the kangaroo?,0.12,0.016,JPG\,candle01,shirt02,brick,orange,kangaroo,stapler03a,pizza,thermometer02b,book01b,blankImage,blankImage,blankImage,blankImage,blankImage,blankImage,blankImage,blankImage,kangaroo,,,,,,,,,,,,0,28,28,16,,,,,,,,,,,,,,,,,,,,,,,,,,,,,,,,,,,383.08858700000565,384.10372860000643,384.07033010000305,384.6839409000095,384.6839409000095,None,385.76410190000024,None,left,1.088377300009597,385.76410190000024,None,386.87314350000815,None,right,0.5954428000113694,386.87314350000815,None,,,,,,,,,,,,,,,,,,,,,,,PPT18,001,2022-06-30_12h37.33.852,ABstudy,2022.1.4,59.92857712385407,
AB,Lag1_T1P_T2P,1,P,P,7,8,6,3,11,harmonica,Did you see the harmonica?,0.12,0.016,JPG\,cucumber,ring01,lipstick02a,microscope,violin,garlic01a,harmonica,stapler03b,cherry01,sewingmachine01a,belt02a,blankImage,blankImage,blankImage,blankImage,blankImage,blankImage,harmonica,,,,,,,,,,,,0,29,29,43,,,,,,,,,,,,,,,,,,,,,,,,,,,,,,,,,,,387.49264710000716,388.5080885000061,388.4747158999962,389.0518974000006,389.0518974000006,None,390.4712750000035,None,left,0.8379891999938991,390.4712750000035,None,391.32820000000356,None,right,1.5081795000005513,391.32820000000356,None,,,,,,,,,,,,,,,,,,,,,,,PPT18,001,2022-06-30_12h37.33.852,ABstudy,2022.1.4,59.92857712385407,
AB,Lag5_T1P_T2P,5,P,P,6,11,5,4,15,Witch hat,Did you see the Witch hat?,0.12,0.016,JPG\,pizza,watch02a,greenolive,cucumber,match,witchhat,scissors01,broom01,globe,cherry01,stapler03a,cigarette,microscope,cellphone,speaker04,blankImage,blankImage,witchhat,,,,,,,,,,,,0,30,30,101,,,,,,,,,,,,,,,,,,,,,,,,,,,,,,,,,,,392.8678149000043,393.88041460000386,393.86354800000845,394.45507710000675,394.45507710000675,None,396.28476039999805,None,left,0.5359593000030145,396.28476039999805,None,396.8500922000094,None,left,0.2595377000106964,396.8500922000094,None,,,,,,,,,,,,,,,,,,,,,,,PPT18,001,2022-06-30_12h37.33.852,ABstudy,2022.1.4,59.92857712385407,
AB,Lag1_T1P_T2P,1,P,P,5,6,4,5,11,candy cane,Did you see the candy cane?,0.12,0.016,JPG\,shirt02,match,screw02,foosballtable,candycane01a,stapler04b,sewingmachine01a,watch02a,button01,comb02a,dice05a,blankImage,blankImage,blankImage,blankImage,blankImage,blankImage,candycane01a,,,,,,,,,,,,0,31,31,9,,,,,,,,,,,,,,,,,,,,,,,,,,,,,,,,,,,397.13888450000377,398.1512161999999,398.1345020000008,398.79496199999994,398.79496199999994,None,400.0674635000032,None,left,0.7686798999930033,400.0674635000032,None,400.854313600008,None,right,0.27796809999563266,400.854313600008,None,,,,,,,,,,,,,,,,,,,,,,,PPT18,001,2022-06-30_12h37.33.852,ABstudy,2022.1.4,59.92857712385407,
AB,Lag5_T1A_T2A,5,A,A,6,11,5,3,14,mirror,Did you see the mirror?,0.12,0.016,JPG\,foosballtable,candy,envelope03a,microscope,pencil01,leaf02a,scissors01,watermelon01,grape01,dandelion,pineapple01a,hammer01,celery,thermometer02b,blankImage,blankImage,blankImage,shower,,,,,,,,,,,,0,32,32,305,,,,,,,,,,,,,,,,,,,,,,,,,,,,,,,,,,,401.1586626000062,402.1716509999969,402.15539539999736,402.6558049000014,402.6558049000014,None,404.492410699997,None,right,1.4092575000104262,404.492410699997,None,405.9257750999968,None,right,0.5909899999969639,405.9257750999968,None,,,,,,,,,,,,,,,,,,,,,,,PPT18,001,2022-06-30_12h37.33.852,ABstudy,2022.1.4,59.92857712385407,
AB,Lag1_T1P_T2A,1,P,A,6,7,5,5,12,Tombstone,Did you see the Tombstone?,0.12,0.016,JPG\,cigarette,ashtray01,envelope03a,sandal,chain01,tombstone,broccoli01a,tomato01,dandelion,candle01,lemon02,button01,blankImage,blankImage,blankImage,blankImage,blankImage,tombstone,,,,,,,,,,,,0,33,33,196,,,,,,,,,,,,,,,,,,,,,,,,,,,,,,,,,,,406.54982450000534,407.5605435000034,407.5439114000037,408.1301592999953,408.1301592999953,None,409.5964406999992,None,left,0.9042725000035716,409.5964406999992,None,410.5306258000055,None,right,0.29012259999581147,410.5306258000055,None,,,,,,,,,,,,,,,,,,,,,,,PPT18,001,2022-06-30_12h37.33.852,ABstudy,2022.1.4,59.92857712385407,
AB,Lag1_T1P_T2P,1,P,P,8,9,7,3,12,Eiffel tower,Did you see the Eiffel tower?,0.12,0.016,JPG\,celery,tennisball01b,calculator01,pear01,screw02,orange,button01,eiffeltower,stapler03b,apple07,iron01b,brownsugar,blankImage,blankImage,blankImage,blankImage,blankImage,eiffeltower,,,,,,,,,,,,0,34,34,40,,,,,,,,,,,,,,,,,,,,,,,,,,,,,,,,,,,410.8915108000074,411.8984771999967,411.8815457000019,412.4924205999996,412.4924205999996,None,413.8014300000068,None,left,0.915870900003938,413.8014300000068,None,414.7347538000031,None,left,0.19748400000389665,414.7347538000031,None,,,,,,,,,,,,,,,,,,,,,,,PPT18,001,2022-06-30_12h37.33.852,ABstudy,2022.1.4,59.92857712385407,
AB,Lag5_T1A_T2A,5,A,A,5,10,4,5,15,window,Did you see the window?,0.12,0.016,JPG\,leaf02a,apple07,cd,pineapple01a,envelope03a,paintbrush01,pig,canoftennisballs,rice,feather03a,lemon02,balloon01b,avocado01,calculator01,watermelon01,blankImage,blankImage,saxophone,,,,,,,,,,,,0,35,35,301,,,,,,,,,,,,,,,,,,,,,,,,,,,,,,,,,,,414.95564960000047,415.968898799998,415.9521817000059,416.5115766999952,416.5115766999952,None,418.44505310000386,None,right,0.8478383000037866,418.44505310000386,None,419.3220481000026,None,right,0.7227959000010742,419.3220481000026,None,,,,,,,,,,,,,,,,,,,,,,,PPT18,001,2022-06-30_12h37.33.852,ABstudy,2022.1.4,59.92857712385407,
AB,Lag5_T1A_T2P,5,A,P,5,10,4,5,15,shower,Did you see the shower?,0.12,0.016,JPG\,sewingmachine01a,thermometer02b,sponge01,eraser,broccoli01a,fork03c,pizza,violin,belt02a,stapler04b,pineapple01a,tennisball01b,dandelion,cauliflower01,lemon02,blankImage,blankImage,redfox,,,,,,,,,,,,0,36,36,271,,,,,,,,,,,,,,,,,,,,,,,,,,,,,,,,,,,420.075576999996,421.09073660000286,421.0574301000015,421.64033540000673,421.64033540000673,None,423.4448665999953,None,right,0.9114490000065416,423.4448665999953,None,424.37717960000737,None,left,0.4910426999995252,424.37717960000737,None,,,,,,,,,,,,,,,,,,,,,,,PPT18,001,2022-06-30_12h37.33.852,ABstudy,2022.1.4,59.92857712385407,
AB,Lag5_T1P_T2A,5,P,A,6,11,5,4,15,Spear,Did you see the Spear?,0.12,0.016,JPG\,belt02a,measuringcup01,spoon01,chain01,greenolive,spear02,computerkeyboard02,onion,fan,strawberry,candle01,broom01,binoculars01b,ashtray01,pingpongpaddle01c,blankImage,blankImage,spear02,,,,,,,,,,,,0,37,37,227,,,,,,,,,,,,,,,,,,,,,,,,,,,,,,,,,,,424.89742380000826,425.9120217000018,425.8786523000017,426.46537259999604,426.46537259999604,None,428.37740640000266,None,left,1.0591411999921547,428.37740640000266,None,429.4655158999958,None,right,0.5149148000054993,429.4655158999958,None,,,,,,,,,,,,,,,,,,,,,,,PPT18,001,2022-06-30_12h37.33.852,ABstudy,2022.1.4,59.92857712385407,
AB,Lag1_T1P_T2A,1,P,A,7,8,6,5,13,Well,Did you see the Well?,0.12,0.016,JPG\,leaf02a,apple07,cd,pineapple01a,envelope03a,paintbrush01,well,acorn,rice,feather03a,lemon02,balloon01b,avocado01,blankImage,blankImage,blankImage,blankImage,well,,,,,,,,,,,,0,38,38,178,,,,,,,,,,,,,,,,,,,,,,,,,,,,,,,,,,,430.00164580000273,431.01708930000314,430.9836593000073,431.55974199999764,431.55974199999764,None,433.17449710000074,None,left,1.0472716000076616,433.17449710000074,None,434.25393990000885,None,right,0.5666838999895845,434.25393990000885,None,,,,,,,,,,,,,,,,,,,,,,,PPT18,001,2022-06-30_12h37.33.852,ABstudy,2022.1.4,59.92857712385407,
AB,Lag1_T1A_T2A,1,A,A,5,6,4,3,9,Pigeon,Did you see the Pigeon?,0.12,0.016,JPG\,candle01,paintbrush01,scissors01,fan,microscope,toothbrush03b,candle08b,watermelon01,teabag,blankImage,blankImage,blankImage,blankImage,blankImage,blankImage,blankImage,blankImage,floorlamp,,,,,,,,,,,,0,39,39,286,,,,,,,,,,,,,,,,,,,,,,,,,,,,,,,,,,,434.8476265000063,435.8554617000045,435.83869109999796,436.42402360000415,436.42402360000415,None,437.54090089999954,None,right,0.9685499999905005,437.54090089999954,None,438.54155520000495,None,right,0.4783900000038557,438.54155520000495,None,,,,,,,,,,,,,,,,,,,,,,,PPT18,001,2022-06-30_12h37.33.852,ABstudy,2022.1.4,59.92857712385407,
AB,Lag1_T1P_T2P,1,P,P,7,8,6,3,11,tree,Did you see the tree?,0.12,0.016,JPG\,pear01,clock01a,cymbal,match,ashtray01,globe,tree,stapler03b,lemon02,pen04b,dice05a,blankImage,blankImage,blankImage,blankImage,blankImage,blankImage,tree,,,,,,,,,,,,0,40,40,51,,,,,,,,,,,,,,,,,,,,,,,,,,,,,,,,,,,439.045655599999,440.0595691000053,440.0262517000083,440.61145199999737,440.61145199999737,None,441.9846305999963,None,left,0.987729100001161,441.9846305999963,None,442.99563350000244,None,left,0.4485924000036903,442.99563350000244,None,,,,,,,,,,,,,,,,,,,,,,,PPT18,001,2022-06-30_12h37.33.852,ABstudy,2022.1.4,59.92857712385407,
AB,Lag1_T1P_T2P,1,P,P,8,9,7,4,13,crab,Did you see the crab?,0.12,0.016,JPG\,candle01,fork03c,plate01b,violin,computerkeyboard02,candy,calculator01,crab01,stapler04b,sock01a,teabag,banana01,cd,blankImage,blankImage,blankImage,blankImage,crab01,,,,,,,,,,,,0,41,41,37,,,,,,,,,,,,,,,,,,,,,,,,,,,,,,,,,,,443.46537479999824,444.48041479999665,444.4470941000036,445.0225108000013,445.0225108000013,None,446.61914439999964,None,left,0.7932731000037165,446.61914439999964,None,447.4340211999952,None,right,1.1785110000055283,447.4340211999952,None,,,,,,,,,,,,,,,,,,,,,,,PPT18,001,2022-06-30_12h37.33.852,ABstudy,2022.1.4,59.92857712385407,
AB,Lag5_T1P_T2P,5,P,P,8,13,7,4,17,cruise ship,Did you see the cruise ship?,0.12,0.016,JPG\,measuringcup01,dice05a,greenolive,lipstick02a,feather03a,balloon01b,lighter01,cruiseship,carrot01,plate01b,microscope,brick,stapler05,screw02,speaker04,spoon01,blankImage,cruiseship,,,,,,,,,,,,0,42,42,105,,,,,,,,,,,,,,,,,,,,,,,,,,,,,,,,,,,448.6423041999951,449.6525227999955,449.63579500000924,450.2544023000082,450.2544023000082,None,452.15327019999677,None,left,1.5718997000076342,452.15327019999677,None,453.75663370000257,None,right,2.2716623000014806,453.75663370000257,None,,,,,,,,,,,,,,,,,,,,,,,PPT18,001,2022-06-30_12h37.33.852,ABstudy,2022.1.4,59.92857712385407,
AB,Lag1_T1A_T2P,1,A,P,8,9,7,3,12,elbow,Did you see the elbow?,0.12,0.016,JPG\,watermelon01,cigarette,faucet,cymbal,cauliflower01,feather03a,cherry01,broom01,stapler01,key01,baseball01a,iron01b,blankImage,blankImage,blankImage,blankImage,blankImage,cashregister01,,,,,,,,,,,,0,43,43,251,,,,,,,,,,,,,,,,,,,,,,,,,,,,,,,,,,,456.063441899998,457.07702060000156,457.06166700000176,457.73774409999896,457.65081649999775,None,459.1303249000048,None,right,1.6579918000061298,459.1303249000048,None,460.8133317000029,None,right,1.2870306999975583,460.8133317000029,None,,,,,,,,,,,,,,,,,,,,,,,PPT18,001,2022-06-30_12h37.33.852,ABstudy,2022.1.4,59.92857712385407,
AB,Lag1_T1P_T2A,1,P,A,6,7,5,5,12,foot,Did you see the foot?,0.12,0.016,JPG\,watermelon01,cigarette,weight04a,cymbal,cauliflower01,foot,cherry01,broom01,battery02b,key01,baseball01a,iron01b,blankImage,blankImage,blankImage,blankImage,blankImage,foot,,,,,,,,,,,,0,44,44,188,,,,,,,,,,,,,,,,,,,,,,,,,,,,,,,,,,,462.133625500006,463.1490544999979,463.11565740000515,463.7125831000012,463.7125831000012,None,465.15367729999707,None,left,0.7461899000045378,465.15367729999707,None,465.9185506000067,None,right,0.7974851000035414,465.9185506000067,None,,,,,,,,,,,,,,,,,,,,,,,PPT18,001,2022-06-30_12h37.33.852,ABstudy,2022.1.4,59.92857712385407,
AB,Lag5_T1P_T2P,5,P,P,6,11,5,4,15,saxophone,Did you see the saxophone?,0.12,0.016,JPG\,pizza,strawberry,potato02b,speaker04,battery02b,saxophone,dice05a,cellphone,globe,banana01,stapler03b,baseball01a,toaster01,broom01,ring01,blankImage,blankImage,saxophone,,,,,,,,,,,,0,45,45,117,,,,,,,,,,,,,,,,,,,,,,,,,,,,,,,,,,,466.7911315000092,467.8038977999968,467.7871812000085,468.3993635000079,468.3993635000079,None,470.1575256000069,None,left,0.5102146999997785,470.1575256000069,None,470.6899115999986,None,left,0.18673150001268368,470.6899115999986,None,,,,,,,,,,,,,,,,,,,,,,,PPT18,001,2022-06-30_12h37.33.852,ABstudy,2022.1.4,59.92857712385407,
AB,Lag1_T1P_T2A,1,P,A,5,6,4,4,10,paper airplane,Did you see the paper airplane?,0.12,0.016,JPG\,thermometer02b,avocado01,scissors01,tennisball01b,paperairplane,banana01,strawberry,cigarette,potato02b,pineapple01a,blankImage,blankImage,blankImage,blankImage,blankImage,blankImage,blankImage,paperairplane,,,,,,,,,,,,0,46,46,191,,,,,,,,,,,,,,,,,,,,,,,,,,,,,,,,,,,470.91220059999614,471.92468240000017,471.9079441000067,472.5027151999966,472.5027151999966,None,473.7920029000088,None,left,2.323806300002616,473.7920029000088,None,476.1453357999999,None,right,0.8034172000043327,476.1453357999999,None,,,,,,,,,,,,,,,,,,,,,,,PPT18,001,2022-06-30_12h37.33.852,ABstudy,2022.1.4,59.92857712385407,
AB,Lag1_T1A_T2A,1,A,A,8,9,7,3,12,punching bag,Did you see the punching bag?,0.12,0.016,JPG\,key01,apple07,ring01,leaf02a,hammer01,tableknife02,violin,sponge01,baseball01a,thermometer02b,celery,calculator01,blankImage,blankImage,blankImage,blankImage,blankImage,bathtub,,,,,,,,,,,,0,47,47,291,,,,,,,,,,,,,,,,,,,,,,,,,,,,,,,,,,,476.9841740999982,477.99715260000085,477.9805398000026,478.5669348000083,478.5669348000083,None,480.0281229999964,None,right,0.6484829999972135,480.0281229999964,None,480.69982969999546,None,right,0.6486491999967257,480.69982969999546,None,,,,,,,,,,,,,,,,,,,,,,,PPT18,001,2022-06-30_12h37.33.852,ABstudy,2022.1.4,59.92857712385407,
AB,Lag5_T1A_T2A,5,A,A,6,11,5,5,16,shrimp,Did you see the shrimp?,0.12,0.016,JPG\,speaker04,sewingmachine01a,eraser,violin,globe,belt02a,sunglasses04,cymbal,cd,greenolive,alligator,pear01,watch02a,screwdriver04b,banana01,cigarette,blankImage,rollerblade,,,,,,,,,,,,0,48,48,300,,,,,,,,,,,,,,,,,,,,,,,,,,,,,,,,,,,481.36944080000103,482.3850400000083,482.3516755000019,482.98118319999776,482.98118319999776,None,484.8652299999958,None,right,1.6272653000050923,484.8652299999958,None,486.5226102000015,None,right,0.7060620000120252,486.5226102000015,None,,,,,,,,,,,,,,,,,,,,,,,PPT18,001,2022-06-30_12h37.33.852,ABstudy,2022.1.4,59.92857712385407,
AB,Lag1_T1P_T2P,1,P,P,5,6,4,3,9,dolphin,Did you see the dolphin?,0.12,0.016,JPG\,pig,belt02a,rice,screwdriver04b,dolphin01,stapler05,candle08b,pear01,feather03a,blankImage,blankImage,blankImage,blankImage,blankImage,blankImage,blankImage,blankImage,dolphin01,,,,,,,,,,,,0,49,49,10,,,,,,,,,,,,,,,,,,,,,,,,,,,,,,,,,,,487.26304980000714,488.27440380000917,488.257695399996,488.75815580000926,488.75815580000926,None,489.96112770000764,None,left,1.1233639999991283,489.96112770000764,None,491.1102078999975,None,right,0.5662549999979092,491.1102078999975,None,,,,,,,,,,,,,,,,,,,,,,,PPT18,001,2022-06-30_12h37.33.852,ABstudy,2022.1.4,59.92857712385407,
AB,Lag1_T1A_T2P,1,A,P,6,7,5,5,12,Treadmill,Did you see the Treadmill?,0.12,0.016,JPG\,pencil01,broccoli01a,button01,sponge01,watermelon01,lipstick02a,stapler04b,fan,lighter01,sock01a,spoon01,blueberry01,blankImage,blankImage,blankImage,blankImage,blankImage,magneticcompass,,,,,,,,,,,,0,50,50,238,,,,,,,,,,,,,,,,,,,,,,,,,,,,,,,,,,,491.6986265000014,492.71184780000476,492.6784989000007,493.2552003000019,493.2552003000019,None,494.7338562000077,None,right,1.5659467000077711,494.7338562000077,None,496.3320636999997,None,right,1.25604839999869,496.3320636999997,None,,,,,,,,,,,,,,,,,,,,,,,PPT18,001,2022-06-30_12h37.33.852,ABstudy,2022.1.4,59.92857712385407,
AB,Lag5_T1A_T2P,5,A,P,5,10,4,5,15,Eye patch,Did you see the Eye patch?,0.12,0.016,JPG\,scissors01,balloon01b,eraser,feather03a,banana01,candle01,measuringcup01,calculator01,thermometer02b,stapler03b,pear01,carrot01,globe,baseball01a,leaf02a,blankImage,blankImage,cross01,,,,,,,,,,,,0,51,51,258,,,,,,,,,,,,,,,,,,,,,,,,,,,,,,,,,,,497.6197809000005,498.63437690000865,498.6176828000025,499.24973900000623,499.1785862999968,None,500.98865270000533,None,right,0.9271828999917489,500.98865270000533,None,501.9376895000023,None,right,0.7148524000076577,501.9376895000023,None,,,,,,,,,,,,,,,,,,,,,,,PPT18,001,2022-06-30_12h37.33.852,ABstudy,2022.1.4,59.92857712385407,
AB,Lag1_T1P_T2P,1,P,P,8,9,7,4,13,dart board,Did you see the dart board?,0.12,0.016,JPG\,rice,watermelon01,tableknife02,scarf,computerkeyboard02,cauliflower01,battery02b,dartboard,stapler01,sandal,sponge01,microscope,tomato01,blankImage,blankImage,blankImage,blankImage,dartboard,,,,,,,,,,,,0,52,52,80,,,,,,,,,,,,,,,,,,,,,,,,,,,,,,,,,,,502.6766323000047,503.6894544999959,503.6727821999957,504.25502640000195,504.25502640000195,None,505.82525150000583,None,left,0.9949092000169912,505.82525150000583,None,506.8425545000064,None,left,0.10545770000317134,506.8425545000064,None,,,,,,,,,,,,,,,,,,,,,,,PPT18,001,2022-06-30_12h37.33.852,ABstudy,2022.1.4,59.92857712385407,
AB,Lag5_T1P_T2A,5,P,A,8,13,7,4,17,fountain,Did you see the fountain?,0.12,0.016,JPG\,printer02,envelope03a,potato02b,calculator01,tableknife02,cigarette,ashtray01,parkfountain,broom01,greenolive,candle08b,battery02b,strawberry,candle01,foosballtable,tennisball01b,blankImage,parkfountain,,,,,,,,,,,,0,53,53,219,,,,,,,,,,,,,,,,,,,,,,,,,,,,,,,,,,,506.9803391000023,507.9937738000008,507.977086400002,508.5877577000065,508.5877577000065,None,510.5382707999961,None,left,1.8982571000087773,510.5382707999961,None,512.4656282000069,None,right,0.3389080000051763,512.4656282000069,None,,,,,,,,,,,,,,,,,,,,,,,PPT18,001,2022-06-30_12h37.33.852,ABstudy,2022.1.4,59.92857712385407,
AB,Lag1_T1P_T2P,1,P,P,8,9,7,3,12,Sheep,Did you see the Sheep?,0.12,0.016,JPG\,celery,orange,scissors01,balloon01b,avocado01,printer02,mushroom01,sheep,stapler03b,dice05a,ashtray01,fan,blankImage,blankImage,blankImage,blankImage,blankImage,sheep,,,,,,,,,,,,0,54,54,71,,,,,,,,,,,,,,,,,,,,,,,,,,,,,,,,,,,512.8375960999983,513.8496222999966,513.8328814999986,514.4099424000015,514.4099424000015,None,515.9008617000072,None,left,0.9115535000019008,515.9008617000072,None,516.8362286000047,None,left,0.13609600000199862,516.8362286000047,None,,,,,,,,,,,,,,,,,,,,,,,PPT18,001,2022-06-30_12h37.33.852,ABstudy,2022.1.4,59.92857712385407,
AB,Lag1_T1A_T2P,1,A,P,5,6,4,3,9,microphone,Did you see the microphone?,0.12,0.016,JPG\,hammer01,sponge01,toaster01,cherry01,feather03a,stapler06,measuringcup01,pencil01,tennisball01b,blankImage,blankImage,blankImage,blankImage,blankImage,blankImage,blankImage,blankImage,cactus,,,,,,,,,,,,0,55,55,230,,,,,,,,,,,,,,,,,,,,,,,,,,,,,,,,,,,517.0074953000003,518.0206687000027,518.0039512000076,518.5729850000062,518.5729850000062,None,519.6908001999982,None,right,1.2730240999953821,519.6908001999982,None,520.9899697000074,None,left,0.34970020000764634,520.9899697000074,None,,,,,,,,,,,,,,,,,,,,,,,PPT18,001,2022-06-30_12h37.33.852,ABstudy,2022.1.4,59.92857712385407,
AB,Lag5_T1P_T2P,5,P,P,5,10,4,5,15,sword fish,Did you see the sword fish?,0.12,0.016,JPG\,scissors01,balloon01b,eraser,feather03a,swordfish,candle01,measuringcup01,calculator01,thermometer02b,stapler04b,pear01,carrot01,globe,baseball01a,leaf02a,blankImage,blankImage,swordfish,,,,,,,,,,,,0,56,56,160,,,,,,,,,,,,,,,,,,,,,,,,,,,,,,,,,,,521.3609997000021,522.374876300004,522.3581948000065,522.9408999000007,522.9408999000007,None,524.7344646999991,None,left,0.6300538000068627,524.7344646999991,None,525.3951710999972,None,left,0.14458779999404214,525.3951710999972,None,,,,,,,,,,,,,,,,,,,,,,,PPT18,001,2022-06-30_12h37.33.852,ABstudy,2022.1.4,59.92857712385407,
AB,Lag5_T1A_T2P,5,A,P,6,11,5,5,16,bed,Did you see the bed?,0.12,0.016,JPG\,cellphone,tomato01,comb02a,candy,celery,cucumber,toaster01,fan,feather03a,pen04b,stapler03b,blueberry01,plate01b,cherry01,baseball01a,candle08b,blankImage,toolbox02,,,,,,,,,,,,0,57,57,274,,,,,,,,,,,,,,,,,,,,,,,,,,,,,,,,,,,525.5627602000022,526.5623931000009,526.5456477999978,527.1295630000095,527.1295630000095,None,529.071340800001,None,right,0.8773819000052754,529.071340800001,None,529.9655595000077,None,left,0.2620586000120966,529.9655595000077,None,,,,,,,,,,,,,,,,,,,,,,,PPT18,001,2022-06-30_12h37.33.852,ABstudy,2022.1.4,59.92857712385407,
AB,Lag5_T1P_T2P,5,P,P,6,11,5,5,16,motorcycle,Did you see the motorcycle?,0.12,0.016,JPG\,cucumber,ring01,lipstick02a,microscope,violin,motorcycle,celery,lighter01,cherry01,sewingmachine01a,stapler04b,key01,binoculars01b,medal02b,watermelon01,dice05a,blankImage,motorcycle,,,,,,,,,,,,0,58,58,93,,,,,,,,,,,,,,,,,,,,,,,,,,,,,,,,,,,530.2514727999951,531.2668495999969,531.2334936999978,531.8358008000068,531.8358008000068,None,533.7646864999988,None,left,0.6878902000025846,533.7646864999988,None,534.4729234999977,None,right,0.34692830000130925,534.4729234999977,None,,,,,,,,,,,,,,,,,,,,,,,PPT18,001,2022-06-30_12h37.33.852,ABstudy,2022.1.4,59.92857712385407,
AB,Lag1_T1A_T2P,1,A,P,8,9,7,5,14,calendar,Did you see the calendar?,0.12,0.016,JPG\,foosballtable,candy,envelope03a,microscope,pencil01,leaf02a,scissors01,watermelon01,stapler04b,dandelion,pineapple01a,hammer01,celery,thermometer02b,blankImage,blankImage,blankImage,trampoline,,,,,,,,,,,,0,59,59,245,,,,,,,,,,,,,,,,,,,,,,,,,,,,,,,,,,,534.847428100009,535.8554723999987,535.839997300005,536.356695800001,536.3404596000037,None,538.1503198999999,None,right,1.1096275000018068,538.1503198999999,None,539.2921769999957,None,right,0.8798830000014277,539.2921769999957,None,,,,,,,,,,,,,,,,,,,,,,,PPT18,001,2022-06-30_12h37.33.852,ABstudy,2022.1.4,59.92857712385407,
AB,Lag1_T1P_T2P,1,P,P,7,8,6,3,11,trampoline,Did you see the trampoline?,0.12,0.016,JPG\,dice05a,watch02a,pig,lighter01,button01,strawberry,trampoline,stapler03a,plate01b,pen04b,feather03a,blankImage,blankImage,blankImage,blankImage,blankImage,blankImage,trampoline,,,,,,,,,,,,0,60,60,73,,,,,,,,,,,,,,,,,,,,,,,,,,,,,,,,,,,540.2584040000074,541.2607948000077,541.2454605000094,541.9445147000079,541.8621515999985,None,543.1153750000085,None,left,0.7683318000053987,543.1153750000085,None,543.9132039999968,None,right,0.22650410000642296,543.9132039999968,None,,,,,,,,,,,,,,,,,,,,,,,PPT18,001,2022-06-30_12h37.33.852,ABstudy,2022.1.4,59.92857712385407,
AB,Lag1_T1A_T2P,1,A,P,7,8,6,3,11,Fox,Did you see the Fox?,0.12,0.016,JPG\,toaster01,chain01,sponge01,baseball01a,carrot01,belt02a,book01b,stapler03b,grape01,brick,celery,blankImage,blankImage,blankImage,blankImage,blankImage,blankImage,fingerprint,,,,,,,,,,,,0,61,61,234,,,,,,,,,,,,,,,,,,,,,,,,,,,,,,,,,,,544.1688744999992,545.1809486999991,545.1642838999978,545.7421521000069,545.7421521000069,None,547.1282710000087,None,right,0.7647353000065777,547.1282710000087,None,547.9171847999969,None,right,0.15083670000603888,547.9171847999969,None,,,,,,,,,,,,,,,,,,,,,,,PPT18,001,2022-06-30_12h37.33.852,ABstudy,2022.1.4,59.92857712385407,
AB,Lag1_T1P_T2P,1,P,P,7,8,6,4,12,trophy,Did you see the trophy?,0.12,0.016,JPG\,cherry01,cymbal,envelope03a,foosballtable,shirt02,cellphone,trophy01,stapler04b,battery02b,apple07,pencil01,screwdriver04b,blankImage,blankImage,blankImage,blankImage,blankImage,trophy01,,,,,,,,,,,,0,62,62,74,,,,,,,,,,,,,,,,,,,,,,,,,,,,,,,,,,,548.1068266000075,549.1183003000042,549.1017566000082,549.7181339999952,549.7181339999952,None,551.1303359000012,None,left,0.9216277999948943,551.1303359000012,None,552.0709239999996,None,right,0.25312740000663325,552.0709239999996,None,,,,,,,,,,,,,,,,,,,,,,,PPT18,001,2022-06-30_12h37.33.852,ABstudy,2022.1.4,59.92857712385407,
AB,Lag1_T1A_T2A,1,A,A,7,8,6,5,13,Poker chips,Did you see the Poker chips?,0.12,0.016,JPG\,violin,pizza,toothbrush03b,pineapple01a,banana01,ashtray01,candy,dandelion,clock04,sock01a,microscope,speaker04,calculator01,blankImage,blankImage,blankImage,blankImage,cigar,,,,,,,,,,,,0,63,63,289,,,,,,,,,,,,,,,,,,,,,,,,,,,,,,,,,,,552.3590855000075,553.3722330000019,553.3555497000052,553.9310565000051,553.9310565000051,None,555.5478408000054,None,right,0.8877019000065047,555.5478408000054,None,556.4585173000087,None,right,0.13714510000136215,556.4585173000087,None,,,,,,,,,,,,,,,,,,,,,,,PPT18,001,2022-06-30_12h37.33.852,ABstudy,2022.1.4,59.92857712385407,
AB,Lag1_T1A_T2P,1,A,P,7,8,6,5,13,Ant,Did you see the Ant?,0.12,0.016,JPG\,rice,watermelon01,tableknife02,scarf,computerkeyboard02,cauliflower01,battery02b,stapler03b,book01b,sandal,sponge01,microscope,tomato01,blankImage,blankImage,blankImage,blankImage,sandcastle,,,,,,,,,,,,0,64,64,242,,,,,,,,,,,,,,,,,,,,,,,,,,,,,,,,,,,556.6307908000017,557.6432443000085,557.6264271999971,558.2192676999985,558.2192676999985,None,559.8233304000023,None,right,1.1497165000037057,559.8233304000023,None,560.9977165000018,None,right,0.1584277999936603,560.9977165000018,None,,,,,,,,,,,,,,,,,,,,,,,PPT18,001,2022-06-30_12h37.33.852,ABstudy,2022.1.4,59.92857712385407,
AB,Lag5_T1P_T2P,5,P,P,5,10,4,4,14,duck,Did you see the duck?,0.12,0.016,JPG\,celery,pencil01,fan,foosballtable,duck01,shirt02,potato02b,fork03c,button01,stapler03a,baseball01a,printer02,cauliflower01,dandelion,blankImage,blankImage,blankImage,duck01,,,,,,,,,,,,0,65,65,130,,,,,,,,,,,,,,,,,,,,,,,,,,,,,,,,,,,561.1852661000012,562.1979588999966,562.1814011999959,562.7654821000033,562.7654821000033,None,564.374876700007,None,left,0.7095732000016142,564.374876700007,None,565.1172300000035,None,right,0.239300600005663,565.1172300000035,None,,,,,,,,,,,,,,,,,,,,,,,PPT18,001,2022-06-30_12h37.33.852,ABstudy,2022.1.4,59.92857712385407,
AB,Lag1_T1A_T2P,1,A,P,6,7,5,3,10,curtain,Did you see the curtain?,0.12,0.016,JPG\,carrot01,greenolive,fork03c,chain01,ashtray01,watermelon01,stapler06,printer02,comb02a,toaster01,blankImage,blankImage,blankImage,blankImage,blankImage,blankImage,blankImage,birdhouse,,,,,,,,,,,,0,66,66,249,,,,,,,,,,,,,,,,,,,,,,,,,,,,,,,,,,,565.3863951999956,566.401823200009,566.3684748000087,566.9506835000066,566.9506835000066,None,568.2195200999995,None,right,1.6327223999978742,568.2195200999995,None,569.8726235000067,None,left,0.7234608000144362,569.8726235000067,None,,,,,,,,,,,,,,,,,,,,,,,PPT18,001,2022-06-30_12h37.33.852,ABstudy,2022.1.4,59.92857712385407,
AB,Lag1_T1P_T2P,1,P,P,5,6,4,5,11,golf ball,Did you see the golf ball?,0.12,0.016,JPG\,foosballtable,cigarette,pen04b,birthdaycandle,golfball,stapler05,binoculars01b,chain01,potato02b,cauliflower01,paintbrush01,blankImage,blankImage,blankImage,blankImage,blankImage,blankImage,golfball,,,,,,,,,,,,0,67,67,13,,,,,,,,,,,,,,,,,,,,,,,,,,,,,,,,,,,570.6299799999979,571.6406820999982,571.6239519000083,572.1245483000093,572.1245483000093,None,573.5256614999962,None,left,2.3659313000098336,573.5256614999962,None,575.9113283000042,None,left,1.6613318000017898,575.9113283000042,None,,,,,,,,,,,,,,,,,,,,,,,PPT18,001,2022-06-30_12h37.33.852,ABstudy,2022.1.4,59.92857712385407,
AB,Lag1_T1P_T2A,1,P,A,5,6,4,4,10,flower,Did you see the flower?,0.12,0.016,JPG\,broom01,globe,cellphone,tableknife02,daffodil,scissors01,ring01,alligator,rice,toaster01,blankImage,blankImage,blankImage,blankImage,blankImage,blankImage,blankImage,daffodil,,,,,,,,,,,,0,68,68,184,,,,,,,,,,,,,,,,,,,,,,,,,,,,,,,,,,,577.5990230000025,578.6140391000081,578.5807091000024,579.1525715000025,579.1525715000025,None,580.4492339999997,None,left,0.8184199000097578,580.4492339999997,None,581.3003253000061,None,right,0.271335999990697,581.3003253000061,None,,,,,,,,,,,,,,,,,,,,,,,PPT18,001,2022-06-30_12h37.33.852,ABstudy,2022.1.4,59.92857712385407,
AB,Lag1_T1P_T2A,1,P,A,7,8,6,4,12,gate,Did you see the gate?,0.12,0.016,JPG\,pen04b,speaker04,lighter01,cherry01,pintofbeer,onion,entrancegate,toothbrush03b,broom01,sewingmachine01a,book01b,iron01b,blankImage,blankImage,blankImage,blankImage,blankImage,entrancegate,,,,,,,,,,,,0,69,69,187,,,,,,,,,,,,,,,,,,,,,,,,,,,,,,,,,,,581.6044325999974,582.6181939999951,582.6014215000032,583.2297782000096,583.1605436999962,None,584.6350478999957,None,left,1.84114230000705,584.6350478999957,None,586.5052206999972,None,right,0.46684259999892674,586.5052206999972,None,,,,,,,,,,,,,,,,,,,,,,,PPT18,001,2022-06-30_12h37.33.852,ABstudy,2022.1.4,59.92857712385407,
AB,Lag5_T1P_T2A,5,P,A,7,12,6,5,17,flower,Did you see the flower?,0.12,0.016,JPG\,cellphone,tomato01,comb02a,candy,celery,cucumber,craneflower,fan,feather03a,pen04b,lemon02,blueberry01,plate01b,cherry01,baseball01a,candle08b,blankImage,craneflower,,,,,,,,,,,,0,70,70,211,,,,,,,,,,,,,,,,,,,,,,,,,,,,,,,,,,,586.9918775999977,588.0067375000071,587.9733511000086,588.5501679000008,588.5501679000008,None,590.5105970000004,None,left,1.628894900000887,590.5105970000004,None,592.175158900005,None,right,0.2605362000031164,592.175158900005,None,,,,,,,,,,,,,,,,,,,,,,,PPT18,001,2022-06-30_12h37.33.852,ABstudy,2022.1.4,59.92857712385407,
AB,Lag1_T1A_T2P,1,A,P,8,9,7,4,13,Rabbit,Did you see the Rabbit?,0.12,0.016,JPG\,lamp04a,broccoli01a,alligator,garlic01a,dandelion,brownsugar,avocado01,ring01,stapler06,cellphone,medal02b,cd,calculator01,blankImage,blankImage,blankImage,blankImage,escalator,,,,,,,,,,,,0,71,71,254,,,,,,,,,,,,,,,,,,,,,,,,,,,,,,,,,,,592.4783762000006,593.4786164999969,593.462004800007,594.034496799999,594.034496799999,None,595.6641449000017,None,left,1.3393256999988807,595.6641449000017,None,597.0350598000077,None,right,0.2974852000043029,597.0350598000077,None,,,,,,,,,,,,,,,,,,,,,,,PPT18,001,2022-06-30_12h37.33.852,ABstudy,2022.1.4,59.92857712385407,
AB,Lag1_T1P_T2P,1,P,P,7,8,6,5,13,disco ball,Did you see the disco ball?,0.12,0.016,JPG\,candle01,paintbrush01,scissors01,fan,microscope,toothbrush03b,discoball,stapler03b,teabag,pencil01,lemon02,ashtray01,shirt02,blankImage,blankImage,blankImage,blankImage,discoball,,,,,,,,,,,,0,72,72,60,,,,,,,,,,,,,,,,,,,,,,,,,,,,,,,,,,,597.3636778000073,598.3673485000036,598.3506716999982,598.9193973000074,598.9193973000074,None,600.6288229000056,None,left,1.1996185000025434,600.6288229000056,None,601.8537473000033,None,right,0.31775119999656454,601.8537473000033,None,,,,,,,,,,,,,,,,,,,,,,,PPT18,001,2022-06-30_12h37.33.852,ABstudy,2022.1.4,59.92857712385407,
AB,Lag5_T1A_T2P,5,A,P,7,12,6,3,15,Car,Did you see the Car?,0.12,0.016,JPG\,lighter01,hammer01,spoon01,chain01,cymbal,sponge01,lipstick02a,alligator,pig,watermelon01,cauliflower01,stapler03b,broccoli01a,tableknife02,tennisball01b,blankImage,blankImage,wallclock,,,,,,,,,,,,0,73,73,277,,,,,,,,,,,,,,,,,,,,,,,,,,,,,,,,,,,602.2068039000005,603.2218711000023,603.1885595000058,603.768510599999,603.768510599999,None,605.5925688999996,None,left,1.3793563000072027,605.5925688999996,None,606.9926144000056,None,right,0.1871781999943778,606.9926144000056,None,,,,,,,,,,,,,,,,,,,,,,,PPT18,001,2022-06-30_12h37.33.852,ABstudy,2022.1.4,59.92857712385407,
AB,Lag1_T1P_T2A,1,P,A,5,6,4,4,10,bird,Did you see the bird?,0.12,0.016,JPG\,toaster01,scarf,toiletpaper01a,calculator01,swallow,sewingmachine01a,fan,teabag,strawberry,balloon01b,blankImage,blankImage,blankImage,blankImage,blankImage,blankImage,blankImage,swallow,,,,,,,,,,,,0,74,74,195,,,,,,,,,,,,,,,,,,,,,,,,,,,,,,,,,,,607.2152025999967,608.2270410000056,608.2103764000058,608.7961945999996,608.7961945999996,None,610.0010409999959,None,left,1.4353317000059178,610.0010409999959,None,611.4637139999977,None,right,0.468332400007057,611.4637139999977,None,,,,,,,,,,,,,,,,,,,,,,,PPT18,001,2022-06-30_12h37.33.852,ABstudy,2022.1.4,59.92857712385407,
AB,Lag5_T1A_T2P,5,A,P,7,12,6,5,17,Rollerblade,Did you see the Rollerblade?,0.12,0.016,JPG\,binoculars01b,cymbal,pizza,candy,paintbrush01,sponge01,grape01,thermometer02b,speaker04,lemon02,lipstick02a,stapler03b,candle01,8ball,plate01b,pen04b,blankImage,lion,,,,,,,,,,,,0,75,75,266,,,,,,,,,,,,,,,,,,,,,,,,,,,,,,,,,,,611.9697287000017,612.9818738000031,612.9650572999963,613.5450302999961,613.5450302999961,None,615.4846848000016,None,right,6.903313100003288,615.4846848000016,None,622.4081776000094,None,left,0.4932226999953855,622.4081776000094,None,,,,,,,,,,,,,,,,,,,,,,,PPT18,001,2022-06-30_12h37.33.852,ABstudy,2022.1.4,59.92857712385407,
AB,Lag5_T1P_T2P,5,P,P,7,12,6,5,17,flamingo,Did you see the flamingo?,0.12,0.016,JPG\,pig,belt02a,rice,screwdriver04b,candle01,apple07,flamingo,pear01,feather03a,match,thermometer02b,stapler06,lemon02,violin,medal02b,pineapple01a,blankImage,flamingo,,,,,,,,,,,,0,76,76,153,,,,,,,,,,,,,,,,,,,,,,,,,,,,,,,,,,,622.9305994000024,623.9426225000061,623.9260061999958,624.4296159000078,624.4296159000078,None,626.4500942000013,None,left,1.5936160000128439,626.4500942000013,None,628.0637975999998,None,left,0.16392439999617636,628.0637975999998,None,,,,,,,,,,,,,,,,,,,,,,,PPT18,001,2022-06-30_12h37.33.852,ABstudy,2022.1.4,59.92857712385407,
AB,Lag1_T1P_T2P,1,P,P,8,9,7,4,13,Bird House,Did you see the Bird House?,0.12,0.016,JPG\,toiletpaper01a,mushroom01,medal02b,sandal,rice,cd,feather03a,birdhouse,stapler01,garlic01a,toaster01,belt02a,cigarette,blankImage,blankImage,blankImage,blankImage,birdhouse,,,,,,,,,,,,0,77,77,77,,,,,,,,,,,,,,,,,,,,,,,,,,,,,,,,,,,628.2584408999974,629.2645474000019,629.2479699999967,629.8436453000031,629.8436453000031,None,631.4768763000029,None,left,2.3823759999941103,631.4768763000029,None,633.8856987000036,None,right,0.3735376999975415,633.8856987000036,None,,,,,,,,,,,,,,,,,,,,,,,PPT18,001,2022-06-30_12h37.33.852,ABstudy,2022.1.4,59.92857712385407,
AB,Lag5_T1A_T2P,5,A,P,7,12,6,5,17,funnel,Did you see the funnel?,0.12,0.016,JPG\,iron01b,orange,birthdaycandle,potato02b,cauliflower01,pencil01,key01,candle08b,celery,tableknife02,pen04b,stapler04b,ring01,rice,lemon02,tomato01,blankImage,englishcucumber,,,,,,,,,,,,0,78,78,259,,,,,,,,,,,,,,,,,,,,,,,,,,,,,,,,,,,634.2889954999991,635.3040048999974,635.2707440000086,635.8564078000054,635.8564078000054,None,637.784110499997,None,right,1.6599118000012822,637.784110499997,None,639.4745330000005,None,left,0.16061099999933504,639.4745330000005,None,,,,,,,,,,,,,,,,,,,,,,,PPT18,001,2022-06-30_12h37.33.852,ABstudy,2022.1.4,59.92857712385407,
AB,Lag5_T1A_T2A,5,A,A,5,10,4,5,15,flower,Did you see the flower?,0.12,0.016,JPG\,clock01a,cellphone,toaster01,toothbrush03b,cauliflower01,microscope,comb02a,paintbrush01,scarf,clock04,sponge01,iron01b,watch02a,celery,ring01,blankImage,blankImage,stepladder,,,,,,,,,,,,0,79,79,303,,,,,,,,,,,,,,,,,,,,,,,,,,,,,,,,,,,639.6608865000017,640.6763930000016,640.642686200008,641.2334609999962,641.2334609999962,None,643.049242699999,None,right,2.2500687000137987,643.049242699999,None,645.3303765000019,None,right,0.16110180001123808,645.3303765000019,None,,,,,,,,,,,,,,,,,,,,,,,PPT18,001,2022-06-30_12h37.33.852,ABstudy,2022.1.4,59.92857712385407,
AB,Lag5_T1A_T2P,5,A,P,5,10,4,5,15,Sushi,Did you see the Sushi?,0.12,0.016,JPG\,pineapple01a,leaf02a,grape01,toiletpaper01a,match,tennisball01b,spoon01,chain01,pig,stapler04b,ring01,lemon02,dice05a,pizza,potato02b,blankImage,blankImage,crown,,,,,,,,,,,,0,80,80,285,,,,,,,,,,,,,,,,,,,,,,,,,,,,,,,,,,,645.5165512999956,646.5315867000027,646.4982518000033,647.0854933000082,647.0854933000082,None,648.8929899000068,None,right,1.7028933000110555,648.8929899000068,None,650.6198128999968,None,left,0.5033101000008173,650.6198128999968,None,,,,,,,,,,,,,,,,,,,,,,,PPT18,001,2022-06-30_12h37.33.852,ABstudy,2022.1.4,59.92857712385407,
AB,Lag5_T1P_T2A,5,P,A,5,10,4,3,13,martini glass,Did you see the martini glass?,0.12,0.016,JPG\,brick,eraser,cucumber,ashtray01,martiniglass01b,binoculars01b,lipstick02a,screwdriver04b,grape01,brownsugar,battery02b,iron01b,dice05a,blankImage,blankImage,blankImage,blankImage,martiniglass01b,,,,,,,,,,,,0,81,81,217,,,,,,,,,,,,,,,,,,,,,,,,,,,,,,,,,,,651.1576543999981,652.1708961999975,652.1540544000018,652.7243559000053,652.7243559000053,None,654.337749600003,None,left,1.4735321000043768,654.337749600003,None,655.8408693999954,None,right,0.26632229999813717,655.8408693999954,None,,,,,,,,,,,,,,,,,,,,,,,PPT18,001,2022-06-30_12h37.33.852,ABstudy,2022.1.4,59.92857712385407,
AB,Lag5_T1P_T2P,5,P,P,5,10,4,4,14,License Plate,Did you see the License Plate?,0.12,0.016,JPG\,toaster01,chain01,sponge01,baseball01a,licenseplate,belt02a,book01b,iron01b,grape01,stapler06,celery,onion,mushroom01,toothbrush03b,blankImage,blankImage,blankImage,licenseplate,,,,,,,,,,,,0,82,82,120,,,,,,,,,,,,,,,,,,,,,,,,,,,,,,,,,,,656.129729200009,657.1428860000015,657.1276167000033,657.8184862000053,657.7484632999985,None,659.3941315999982,None,right,1.368873800005531,659.3941315999982,None,660.7962772000028,None,left,0.28748060000361875,660.7962772000028,None,,,,,,,,,,,,,,,,,,,,,,,PPT18,001,2022-06-30_12h37.33.852,ABstudy,2022.1.4,59.92857712385407,
AB,Lag5_T1P_T2A,5,P,A,6,11,5,5,16,World map,Did you see the World map?,0.12,0.016,JPG\,cigarette,pig,banana01,strawberry,clock01a,worldmap,spoon01,blueberry01,battery02b,pineapple01a,chain01,paintbrush01,candy,pen04b,teabag,birthdaycandle,blankImage,worldmap,,,,,,,,,,,,0,83,83,205,,,,,,,,,,,,,,,,,,,,,,,,,,,,,,,,,,,661.1196114000049,662.1304486000008,662.1137222999969,662.697623,662.697623,None,664.5546286000026,None,left,1.1609809000074165,664.5546286000026,None,665.7344752000063,None,right,0.5261736999964342,665.7344752000063,None,,,,,,,,,,,,,,,,,,,,,,,PPT18,001,2022-06-30_12h37.33.852,ABstudy,2022.1.4,59.92857712385407,
AB,Lag5_T1P_T2P,5,P,P,6,11,5,4,15,sword,Did you see the sword?,0.12,0.016,JPG\,8ball,banana01,scissors01,pig,shirt02,broadsword,pear01,sponge01,fork03c,tableknife02,stapler06,match,toothbrush03b,birthdaycandle,candle01,blankImage,blankImage,broadsword,,,,,,,,,,,,0,84,84,167,,,,,,,,,,,,,,,,,,,,,,,,,,,,,,,,,,,666.2892009000061,667.3024927000079,667.2857864999969,667.8849453000003,667.8849453000003,None,669.6937134000036,None,left,0.7814465999981621,669.6937134000036,None,670.5058377999958,None,left,0.12184720000368543,670.5058377999958,None,,,,,,,,,,,,,,,,,,,,,,,PPT18,001,2022-06-30_12h37.33.852,ABstudy,2022.1.4,59.92857712385407,
AB,Lag5_T1P_T2P,5,P,P,5,10,4,4,14,Christmas lights,Did you see the Christmas lights?,0.12,0.016,JPG\,binoculars01b,cymbal,pizza,candy,christmaslights,sponge01,grape01,thermometer02b,speaker04,stapler03a,lipstick02a,strawberry,candle01,tambourine02,blankImage,blankImage,blankImage,christmaslights,,,,,,,,,,,,0,85,85,168,,,,,,,,,,,,,,,,,,,,,,,,,,,,,,,,,,,670.7009533999953,671.7063178999961,671.6896897999977,672.2807839000016,672.2807839000016,None,673.9290480000054,None,left,1.34676010000112,673.9290480000054,None,675.2935577000026,None,right,0.47023259999696165,675.2935577000026,None,,,,,,,,,,,,,,,,,,,,,,,PPT18,001,2022-06-30_12h37.33.852,ABstudy,2022.1.4,59.92857712385407,
AB,Lag1_T1A_T2A,1,A,A,8,9,7,4,13,Recycling bin,Did you see the Recycling bin?,0.12,0.016,JPG\,brick,plate01b,pen04b,toaster01,screwdriver04b,candle01,envelope03a,feather03a,pig,ring01,orange,clock01a,lighter01,blankImage,blankImage,blankImage,blankImage,bumpercar,,,,,,,,,,,,0,86,86,292,,,,,,,,,,,,,,,,,,,,,,,,,,,,,,,,,,,675.7976922000089,676.8117360000033,676.7950675000029,677.4349441000086,677.3568354000017,None,679.0160891999985,None,right,1.9324780000024475,679.0160891999985,None,680.9658621999988,None,right,0.45361480000428855,680.9658621999988,None,,,,,,,,,,,,,,,,,,,,,,,PPT18,001,2022-06-30_12h37.33.852,ABstudy,2022.1.4,59.92857712385407,
AB,Lag1_T1P_T2P,1,P,P,6,7,5,3,10,Pool table,Did you see the Pool table?,0.12,0.016,JPG\,tomato01,pen04b,shirt02,carrot01,lamp04a,pooltable,stapler06,avocado01,sewingmachine01a,apple07,blankImage,blankImage,blankImage,blankImage,blankImage,blankImage,blankImage,pooltable,,,,,,,,,,,,0,87,87,29,,,,,,,,,,,,,,,,,,,,,,,,,,,,,,,,,,,681.4539165000024,682.4673232000059,682.4507110999984,683.0365353000088,683.0365353000088,None,684.3041099999973,None,left,0.8432851000106893,684.3041099999973,None,685.170518400002,None,left,0.11297269999340642,685.170518400002,None,,,,,,,,,,,,,,,,,,,,,,,PPT18,001,2022-06-30_12h37.33.852,ABstudy,2022.1.4,59.92857712385407,
AB,Lag5_T1P_T2A,5,P,A,5,10,4,3,13,pin,Did you see the pin?,0.12,0.016,JPG\,candle01,fork03c,plate01b,violin,pin,candy,calculator01,paintbrush01,cherry01,sock01a,teabag,banana01,cd,blankImage,blankImage,blankImage,blankImage,pin,,,,,,,,,,,,0,88,88,215,,,,,,,,,,,,,,,,,,,,,,,,,,,,,,,,,,,685.3095690000046,686.3213959999994,686.3047785999952,686.8900448000059,686.8900448000059,None,688.4944209999958,None,right,1.6049277000129223,688.4944209999958,None,690.125020300009,None,right,0.4941401000105543,690.125020300009,None,,,,,,,,,,,,,,,,,,,,,,,PPT18,001,2022-06-30_12h37.33.852,ABstudy,2022.1.4,59.92857712385407,
AB,Lag1_T1P_T2A,1,P,A,5,6,4,5,11,Toaster oven,Did you see the Toaster oven?,0.12,0.016,JPG\,fork03c,toothbrush03b,cellphone,fan,toasteroven,clock01a,ring01,eraser,sunglasses04,thermometer02b,violin,blankImage,blankImage,blankImage,blankImage,blankImage,blankImage,toasteroven,,,,,,,,,,,,0,89,89,200,,,,,,,,,,,,,,,,,,,,,,,,,,,,,,,,,,,690.6459236000082,691.6598331999994,691.6431791000068,692.2665632999997,692.1954836000077,None,693.5985079000093,None,right,1.9008653000055347,693.5985079000093,None,695.5307218000089,None,right,0.2810330999927828,695.5307218000089,None,,,,,,,,,,,,,,,,,,,,,,,PPT18,001,2022-06-30_12h37.33.852,ABstudy,2022.1.4,59.92857712385407,
AB,Lag1_T1P_T2P,1,P,P,5,6,4,3,9,elephant,Did you see the elephant?,0.12,0.016,JPG\,celery,brownsugar,key01,sunglasses04,arugula,stapler04b,dice05a,tennisball01b,scarf,blankImage,blankImage,blankImage,blankImage,blankImage,blankImage,blankImage,blankImage,arugula,,,,,,,,,,,,0,90,90,54,,,,,,,,,,,,,,,,,,,,,,,,,,,,,,,,,,,695.8365858000034,696.848639600008,696.832118899998,697.4126746999973,697.4126746999973,None,698.5603506000043,None,right,0.9150846000120509,698.5603506000043,None,699.5014068000019,None,left,0.7184939000144368,699.5014068000019,None,,,,,,,,,,,,,,,,,,,,,,,PPT18,001,2022-06-30_12h37.33.852,ABstudy,2022.1.4,59.92857712385407,
AB,Lag1_T1P_T2A,1,P,A,7,8,6,4,12,gorilla,Did you see the gorilla?,0.12,0.016,JPG\,scissors01,ashtray01,garlic01a,medal02b,cigarette,candle08b,gorilla,envelope03a,cucumber,rice,toiletpaper01a,greenolive,blankImage,blankImage,blankImage,blankImage,blankImage,gorilla,,,,,,,,,,,,0,91,91,189,,,,,,,,,,,,,,,,,,,,,,,,,,,,,,,,,,,700.2563824999961,701.2696609999985,701.2528716000088,701.8324166000093,701.8324166000093,None,703.3094036999973,None,left,0.9180015000019921,703.3094036999973,None,704.2557530000049,None,right,1.0032121000112966,704.2557530000049,None,,,,,,,,,,,,,,,,,,,,,,,PPT18,001,2022-06-30_12h37.33.852,ABstudy,2022.1.4,59.92857712385407,
AB,Lag1_T1P_T2P,1,P,P,5,6,4,5,11,shark,Did you see the shark?,0.12,0.016,JPG\,cucumber,sponge01,alligator,pear01,greatwhiteshark,stapler06,clock04,battery02b,fork03c,binoculars01b,mushroom01,blankImage,blankImage,blankImage,blankImage,blankImage,blankImage,greatwhiteshark,,,,,,,,,,,,0,92,92,84,,,,,,,,,,,,,,,,,,,,,,,,,,,,,,,,,,,705.2923570999992,706.307830100006,706.2744118999981,706.8574760000047,706.8574760000047,None,708.2557938999962,None,left,0.6752284999965923,708.2557938999962,None,708.9602707000013,None,left,0.11466410000866745,708.9602707000013,None,,,,,,,,,,,,,,,,,,,,,,,PPT18,001,2022-06-30_12h37.33.852,ABstudy,2022.1.4,59.92857712385407,
AB,Lag5_T1P_T2A,5,P,A,6,11,5,5,16,fish,Did you see the fish?,0.12,0.016,JPG\,cucumber,ring01,lipstick02a,microscope,violin,redlionfish,celery,lighter01,cherry01,sewingmachine01a,belt02a,key01,binoculars01b,medal02b,watermelon01,dice05a,blankImage,redlionfish,,,,,,,,,,,,0,93,93,221,,,,,,,,,,,,,,,,,,,,,,,,,,,,,,,,,,,709.0960943999962,710.1115793000063,710.0781709000003,710.6531983000023,710.6531983000023,None,712.6364350000076,None,right,1.264684000008856,712.6364350000076,None,713.9347796000075,None,right,0.19689210000797175,713.9347796000075,None,,,,,,,,,,,,,,,,,,,,,,,PPT18,001,2022-06-30_12h37.33.852,ABstudy,2022.1.4,59.92857712385407,
AB,Lag5_T1P_T2P,5,P,P,6,11,5,5,16,keys,Did you see the keys?,0.12,0.016,JPG\,toiletpaper01a,mushroom01,medal02b,sandal,rice,foldingchair,feather03a,pizza,candle08b,garlic01a,stapler01,belt02a,cigarette,violin,lemon02,fork03c,blankImage,foldingchair,,,,,,,,,,,,0,94,94,125,,,,,,,,,,,,,,,,,,,,,,,,,,,,,,,,,,,714.1511332000082,715.1665986000007,715.1332201000041,715.7220612000092,715.7220612000092,None,717.7233057999983,None,right,1.2570127000071807,717.7233057999983,None,719.0037888000079,None,left,0.5835278000013204,719.0037888000079,None,,,,,,,,,,,,,,,,,,,,,,,PPT18,001,2022-06-30_12h37.33.852,ABstudy,2022.1.4,59.92857712385407,
AB,Lag1_T1A_T2P,1,A,P,8,9,7,3,12,porcupine,Did you see the porcupine?,0.12,0.016,JPG\,celery,orange,scissors01,balloon01b,avocado01,printer02,mushroom01,sewingmachine01a,stapler01,dice05a,ashtray01,fan,blankImage,blankImage,blankImage,blankImage,blankImage,drumstick,,,,,,,,,,,,0,95,95,233,,,,,,,,,,,,,,,,,,,,,,,,,,,,,,,,,,,719.6081148000085,720.6221129000041,720.6054520000034,721.1862250999984,721.1862250999984,None,722.6402369999996,None,right,0.8993697999976575,722.6402369999996,None,723.5588936999993,None,left,0.9337556000100449,723.5588936999993,None,,,,,,,,,,,,,,,,,,,,,,,PPT18,001,2022-06-30_12h37.33.852,ABstudy,2022.1.4,59.92857712385407,
AB,Lag1_T1P_T2P,1,P,P,6,7,5,5,12,Snowboard,Did you see the Snowboard?,0.12,0.016,JPG\,belt02a,measuringcup01,spoon01,chain01,greenolive,snowboard,stapler01,onion,fan,strawberry,candle01,broom01,blankImage,blankImage,blankImage,blankImage,blankImage,snowboard,,,,,,,,,,,,0,96,96,49,,,,,,,,,,,,,,,,,,,,,,,,,,,,,,,,,,,724.516575600006,725.5271216999972,725.5104255000042,726.1043212000077,726.1043212000077,None,727.6326782999968,None,left,1.1702572000067448,727.6326782999968,None,728.8301864999958,None,left,0.10992430000624154,728.8301864999958,None,,,,,,,,,,,,,,,,,,,,,,,PPT18,001,2022-06-30_12h37.33.852,ABstudy,2022.1.4,59.92857712385407,
AB,Lag1_T1P_T2P,1,P,P,8,9,7,4,13,bowling ball,Did you see the bowling ball?,0.12,0.016,JPG\,dandelion,pineapple01a,broom01,pen04b,sock01a,sandal,foosballtable,bowlingball,stapler01,toothbrush03b,celery,candle08b,tennisball01b,blankImage,blankImage,blankImage,blankImage,bowlingball,,,,,,,,,,,,0,97,97,7,,,,,,,,,,,,,,,,,,,,,,,,,,,,,,,,,,,728.9674015000055,729.9813623000082,729.9646588000032,730.4651420000009,730.4651420000009,None,732.157257800005,None,right,7.245794200003729,732.157257800005,None,739.4241257999965,None,left,0.15491180001117755,739.4241257999965,None,,,,,,,,,,,,,,,,,,,,,,,PPT18,001,2022-06-30_12h37.33.852,ABstudy,2022.1.4,59.92857712385407,
AB,Lag5_T1P_T2A,5,P,A,5,10,4,3,13,fan,Did you see the fan?,0.12,0.016,JPG\,scissors01,grape01,mushroom01,toiletpaper01a,fanheater,pizza,cigarette,ashtray01,carrot01,pineapple01a,foosballtable,lipstick02a,teabag,blankImage,blankImage,blankImage,blankImage,fanheater,,,,,,,,,,,,0,98,98,220,,,,,,,,,,,,,,,,,,,,,,,,,,,,,,,,,,,739.6098406000092,740.6087811000034,740.5922082000034,741.2049341999955,741.2049341999955,None,742.7665279000066,None,left,1.5165028000046732,742.7665279000066,None,744.3123176000081,None,right,0.5786006000125781,744.3123176000081,None,,,,,,,,,,,,,,,,,,,,,,,PPT18,001,2022-06-30_12h37.33.852,ABstudy,2022.1.4,59.92857712385407,
AB,Lag1_T1P_T2P,1,P,P,6,7,5,3,10,elephant,Did you see the elephant?,0.12,0.016,JPG\,clock01a,grape01,plate01b,key01,screwdriver04b,africanelephant,stapler03b,iron01b,toothbrush03b,comb02a,blankImage,blankImage,blankImage,blankImage,blankImage,blankImage,blankImage,africanelephant,,,,,,,,,,,,0,99,99,31,,,,,,,,,,,,,,,,,,,,,,,,,,,,,,,,,,,744.917030800003,745.9306114000065,745.9139380999986,746.559278700006,746.4777450999973,None,747.7714545000053,None,left,2.440337499996531,747.7714545000053,None,750.2348719000001,None,right,0.832489299995359,750.2348719000001,None,,,,,,,,,,,,,,,,,,,,,,,PPT18,001,2022-06-30_12h37.33.852,ABstudy,2022.1.4,59.92857712385407,
AB,Lag1_T1A_T2P,1,A,P,6,7,5,3,10,Jellyfish,Did you see the Jellyfish?,0.12,0.016,JPG\,thermometer02b,avocado01,scissors01,tennisball01b,medal02b,banana01,stapler01,cigarette,potato02b,pineapple01a,blankImage,blankImage,blankImage,blankImage,blankImage,blankImage,blankImage,firehydrant,,,,,,,,,,,,0,100,100,255,,,,,,,,,,,,,,,,,,,,,,,,,,,,,,,,,,,751.1340851999994,752.1374275999988,752.1221470000019,752.7127054000011,752.7127054000011,None,753.9281814999995,None,right,1.283199900004547,753.9281814999995,None,755.2425704000052,None,left,0.353137300000526,755.2425704000052,None,,,,,,,,,,,,,,,,,,,,,,,PPT18,001,2022-06-30_12h37.33.852,ABstudy,2022.1.4,59.92857712385407,
AB,Lag1_T1A_T2P,1,A,P,7,8,6,3,11,lion,Did you see the lion?,0.12,0.016,JPG\,sock01a,spoon01,alligator,comb02a,printer02,medal02b,lamp04a,stapler01,greenolive,computerkeyboard02,cauliflower01,blankImage,blankImage,blankImage,blankImage,blankImage,blankImage,bullet,,,,,,,,,,,,0,101,101,229,,,,,,,,,,,,,,,,,,,,,,,,,,,,,,,,,,,755.6298781000078,756.641378100001,756.6245873000007,757.226451399998,757.226451399998,None,758.5748820000008,None,right,1.6689458999899216,758.5748820000008,None,760.2621129000036,None,left,0.3186268999997992,760.2621129000036,None,,,,,,,,,,,,,,,,,,,,,,,PPT18,001,2022-06-30_12h37.33.852,ABstudy,2022.1.4,59.92857712385407,
AB,Lag5_T1A_T2P,5,A,P,7,12,6,4,16,flower,Did you see the flower?,0.12,0.016,JPG\,printer02,envelope03a,potato02b,calculator01,tableknife02,cigarette,ashtray01,pig,broom01,greenolive,candle08b,stapler03a,strawberry,candle01,foosballtable,tennisball01b,blankImage,calendar,,,,,,,,,,,,0,102,102,282,,,,,,,,,,,,,,,,,,,,,,,,,,,,,,,,,,,760.6178959999961,761.6297402000055,761.6130416000087,762.2505340000062,762.2505340000062,None,764.1727955999959,None,right,0.5670301000063773,764.1727955999959,None,764.766618900001,None,left,0.2692342000082135,764.766618900001,None,,,,,,,,,,,,,,,,,,,,,,,PPT18,001,2022-06-30_12h37.33.852,ABstudy,2022.1.4,59.92857712385407,
AB,Lag5_T1P_T2P,5,P,P,8,13,7,4,17,butterfly,Did you see the butterfly?,0.12,0.016,JPG\,speaker04,sewingmachine01a,eraser,violin,globe,belt02a,sunglasses04,butterfly,cd,greenolive,alligator,pear01,stapler01,screwdriver04b,banana01,cigarette,blankImage,butterfly,,,,,,,,,,,,0,103,103,126,,,,,,,,,,,,,,,,,,,,,,,,,,,,,,,,,,,765.0730728000053,766.0842984000046,766.0675920000067,766.6534730999992,766.6534730999992,None,768.6558106000011,None,right,2.811492199994973,768.6558106000011,None,771.4893168999988,None,left,0.306034000008367,771.4893168999988,None,,,,,,,,,,,,,,,,,,,,,,,PPT18,001,2022-06-30_12h37.33.852,ABstudy,2022.1.4,59.92857712385407,
AB,Lag1_T1A_T2P,1,A,P,8,9,7,5,14,Wolf,Did you see the Wolf?,0.12,0.016,JPG\,carrot01,watch02a,clock04,microscope,toiletpaper01a,potato02b,alligator,ring01,stapler03b,watermelon01,cd,pencil01,measuringcup01,balloon01b,blankImage,blankImage,blankImage,dreamcatcher,,,,,,,,,,,,0,104,104,253,,,,,,,,,,,,,,,,,,,,,,,,,,,,,,,,,,,771.8252455000038,772.8406945000024,772.807332700002,773.3847975999961,773.3847975999961,None,775.1317035999964,None,right,1.0799878999969224,775.1317035999964,None,776.2444264000078,None,right,0.6629825999989407,776.2444264000078,None,,,,,,,,,,,,,,,,,,,,,,,PPT18,001,2022-06-30_12h37.33.852,ABstudy,2022.1.4,59.92857712385407,
AB,Lag1_T1P_T2A,1,P,A,7,8,6,3,11,Seagull,Did you see the Seagull?,0.12,0.016,JPG\,toiletpaper01a,mushroom01,medal02b,sandal,rice,cd,seagull,pizza,candle08b,garlic01a,toaster01,blankImage,blankImage,blankImage,blankImage,blankImage,blankImage,seagull,,,,,,,,,,,,0,105,105,176,,,,,,,,,,,,,,,,,,,,,,,,,,,,,,,,,,,776.934617699997,777.9459427999973,777.9293107999983,778.5360954000062,778.5360954000062,None,779.9257371999993,None,left,1.2779039000015473,779.9257371999993,None,781.2327974000073,None,right,2.2908429999952205,781.2327974000073,None,,,,,,,,,,,,,,,,,,,,,,,PPT18,001,2022-06-30_12h37.33.852,ABstudy,2022.1.4,59.92857712385407,
AB,Lag5_T1P_T2P,5,P,P,7,12,6,5,17,Badminton Racket,Did you see the Badminton Racket?,0.12,0.016,JPG\,paintbrush01,dice05a,watermelon01,broccoli01a,hammer01,leaf02a,badmintonracket,tennisball01b,lemon02,fan,lipstick02a,stapler04b,envelope03a,sponge01,foosballtable,orange,blankImage,badmintonracket,,,,,,,,,,,,0,106,106,163,,,,,,,,,,,,,,,,,,,,,,,,,,,,,,,,,,,783.5539792000054,784.5693014999997,784.536030999996,785.1264966000017,785.1264966000017,None,787.1193286000052,None,left,0.7554005999991205,787.1193286000052,None,787.9063779999997,None,left,0.11238350000348873,787.9063779999997,None,,,,,,,,,,,,,,,,,,,,,,,PPT18,001,2022-06-30_12h37.33.852,ABstudy,2022.1.4,59.92857712385407,
AB,Lag1_T1P_T2P,1,P,P,7,8,6,5,13,arrow,Did you see the arrow?,0.12,0.016,JPG\,pencil01,broccoli01a,button01,sponge01,watermelon01,lipstick02a,arrow02,stapler04b,lighter01,sock01a,spoon01,blueberry01,belt02a,blankImage,blankImage,blankImage,blankImage,arrow02,,,,,,,,,,,,0,107,107,76,,,,,,,,,,,,,,,,,,,,,,,,,,,,,,,,,,,788.0448466000089,789.0571460000065,789.0405200000096,789.6214739999996,789.6214739999996,None,791.2204726000055,None,left,0.8791185000009136,791.2204726000055,None,792.1269371999952,None,right,0.2445949999964796,792.1269371999952,None,,,,,,,,,,,,,,,,,,,,,,,PPT18,001,2022-06-30_12h37.33.852,ABstudy,2022.1.4,59.92857712385407,
AB,Lag5_T1P_T2P,5,P,P,7,12,6,5,17,flower,Did you see the flower?,0.12,0.016,JPG\,leaf02a,pear01,measuringcup01,cigarette,fan,lemon02,lily,tableknife02,ring01,pencil01,cellphone,stapler01,carrot01,binoculars01b,sock01a,book01b,blankImage,lily,,,,,,,,,,,,0,108,108,134,,,,,,,,,,,,,,,,,,,,,,,,,,,,,,,,,,,792.3999463000073,793.4114783999976,793.3948151000077,793.9595859999972,793.9595859999972,None,795.8833450999955,None,right,2.176512100006221,795.8833450999955,None,798.0828795999987,None,left,0.5041045999969356,798.0828795999987,None,,,,,,,,,,,,,,,,,,,,,,,PPT18,001,2022-06-30_12h37.33.852,ABstudy,2022.1.4,59.92857712385407,
AB,Lag1_T1P_T2P,1,P,P,8,9,7,3,12,apron,Did you see the apron?,0.12,0.016,JPG\,avocado01,tambourine02,match,cauliflower01,paintbrush01,clock01a,pig,apron,stapler03a,cellphone,watch02a,pear01,blankImage,blankImage,blankImage,blankImage,blankImage,apron,,,,,,,,,,,,0,109,109,32,,,,,,,,,,,,,,,,,,,,,,,,,,,,,,,,,,,798.6217682999995,799.6342599000054,799.6176733000029,800.2027762000071,800.2027762000071,None,801.7231087999971,None,left,0.8957695999997668,801.7231087999971,None,802.6370193000039,None,right,1.6463009000144666,802.6370193000039,None,,,,,,,,,,,,,,,,,,,,,,,PPT18,001,2022-06-30_12h37.33.852,ABstudy,2022.1.4,59.92857712385407,
AB,Lag5_T1P_T2P,5,P,P,8,13,7,3,16,shrimp,Did you see the shrimp?,0.12,0.016,JPG\,globe,belt02a,sponge01,violin,fork03c,tomato01,clock01a,cocktailshrimp02,balloon01b,scarf,teabag,pen04b,stapler03a,brownsugar,speaker04,screwdriver04b,blankImage,cocktailshrimp02,,,,,,,,,,,,0,110,110,169,,,,,,,,,,,,,,,,,,,,,,,,,,,,,,,,,,,804.3082609999983,805.3230485000095,805.2898315000057,805.8787436999992,805.8787436999992,None,807.8175190000038,None,right,0.8819538999960059,807.8175190000038,None,808.7263710999978,None,right,0.3501297000038903,808.7263710999978,None,,,,,,,,,,,,,,,,,,,,,,,PPT18,001,2022-06-30_12h37.33.852,ABstudy,2022.1.4,59.92857712385407,
AB,Lag1_T1A_T2A,1,A,A,8,9,7,5,14,Ping pong Table,Did you see the Ping pong Table?,0.12,0.016,JPG\,pineapple01a,tennisball01b,computerkeyboard02,feather03a,belt02a,acorn,violin,blueberry01,medal02b,alligator,greenolive,screwdriver04b,potato02b,fork03c,blankImage,blankImage,blankImage,statue,,,,,,,,,,,,0,111,111,287,,,,,,,,,,,,,,,,,,,,,,,,,,,,,,,,,,,809.1442580000003,810.1447545999981,810.1280016999954,810.7154375999962,810.7154375999962,None,812.3703914000071,None,right,0.8811119000019971,812.3703914000071,None,813.2815948000061,None,right,0.17703359998995438,813.2815948000061,None,,,,,,,,,,,,,,,,,,,,,,,PPT18,001,2022-06-30_12h37.33.852,ABstudy,2022.1.4,59.92857712385407,
AB,Lag5_T1P_T2P,5,P,P,7,12,6,5,17,American football helmet,Did you see the American football helmet?,0.12,0.016,JPG\,alligator,banana01,apple07,tomato01,button01,spoon01,footballhelmet,fork03c,slipper03b,potato02b,grape01,stapler03b,teabag,screwdriver04b,hammer01,tennisball01b,blankImage,footballhelmet,,,,,,,,,,,,0,112,112,148,,,,,,,,,,,,,,,,,,,,,,,,,,,,,,,,,,,813.4924437000009,814.4994967000093,814.4841846000054,815.0126429000084,814.9862981000042,None,817.0269554999977,None,left,0.9690178000018932,817.0269554999977,None,818.0189561000007,None,left,0.14385670000046957,818.0189561000007,None,,,,,,,,,,,,,,,,,,,,,,,PPT18,001,2022-06-30_12h37.33.852,ABstudy,2022.1.4,59.92857712385407,
AB,Lag1_T1P_T2A,1,P,A,7,8,6,3,11,fish,Did you see the fish?,0.12,0.016,JPG\,rice,watermelon01,tableknife02,scarf,computerkeyboard02,cauliflower01,salmon,binoculars01b,book01b,sandal,sponge01,blankImage,blankImage,blankImage,blankImage,blankImage,blankImage,salmon,,,,,,,,,,,,0,113,113,179,,,,,,,,,,,,,,,,,,,,,,,,,,,,,,,,,,,818.1888936000032,819.203768899999,819.1704544000095,819.7336691000091,819.7336691000091,None,821.1179660000053,None,left,0.8530085000093095,821.1179660000053,None,821.9899847000052,None,right,0.2609019000083208,821.9899847000052,None,,,,,,,,,,,,,,,,,,,,,,,PPT18,001,2022-06-30_12h37.33.852,ABstudy,2022.1.4,59.92857712385407,
AB,Lag1_T1A_T2P,1,A,P,5,6,4,3,9,Stool,Did you see the Stool?,0.12,0.016,JPG\,cherry01,cymbal,envelope03a,foosballtable,shirt02,stapler01,sewingmachine01a,candle08b,battery02b,blankImage,blankImage,blankImage,blankImage,blankImage,blankImage,blankImage,blankImage,hulahoop,,,,,,,,,,,,0,114,114,236,,,,,,,,,,,,,,,,,,,,,,,,,,,,,,,,,,,822.2782226999989,823.2913936999976,823.2746138000075,823.8411557000072,823.8411557000072,None,825.0311502999975,None,right,1.7876442999986466,825.0311502999975,None,826.8448585000006,None,right,0.8378467000002274,826.8448585000006,None,,,,,,,,,,,,,,,,,,,,,,,PPT18,001,2022-06-30_12h37.33.852,ABstudy,2022.1.4,59.92857712385407,
AB,Lag5_T1A_T2A,5,A,A,7,12,6,3,15,Christmas lights,Did you see the Christmas lights?,0.12,0.016,JPG\,toiletpaper01a,mushroom01,medal02b,sandal,rice,cd,feather03a,pizza,candle08b,garlic01a,toaster01,belt02a,cigarette,violin,lemon02,blankImage,blankImage,rockbass,,,,,,,,,,,,0,115,115,299,,,,,,,,,,,,,,,,,,,,,,,,,,,,,,,,,,,827.7182491999993,828.7299129000021,828.7130417000008,829.302365800002,829.302365800002,None,831.1363352000044,None,right,1.7387862000032328,831.1363352000044,None,832.9004494999972,None,right,0.25440370000433177,832.9004494999972,None,,,,,,,,,,,,,,,,,,,,,,,PPT18,001,2022-06-30_12h37.33.852,ABstudy,2022.1.4,59.92857712385407,
AB,Lag5_T1P_T2A,5,P,A,8,13,7,5,18,Nunchuks,Did you see the Nunchuks?,0.12,0.016,JPG\,celery,tennisball01b,calculator01,pear01,screw02,orange,button01,nunchuk,onion,apple07,iron01b,brownsugar,banana01,paintbrush01,dandelion,toothbrush03b,blankImage,nunchuk,,,,,,,,,,,,0,116,116,218,,,,,,,,,,,,,,,,,,,,,,,,,,,,,,,,,,,833.1890826000017,834.2019982000056,834.1852966000006,834.7716883999965,834.7716883999965,None,836.7345591000048,None,left,1.189142000002903,836.7345591000048,None,837.9557876000035,None,right,0.6307930999901146,837.9557876000035,None,,,,,,,,,,,,,,,,,,,,,,,PPT18,001,2022-06-30_12h37.33.852,ABstudy,2022.1.4,59.92857712385407,
AB,Lag5_T1P_T2A,5,P,A,8,13,7,3,16,leaf blower,Did you see the leaf blower?,0.12,0.016,JPG\,printer02,leaf02a,cauliflower01,sock01a,brownsugar,paintbrush01,pig,leafblower01,belt02a,shirt02,key01,match,cigarette,scissors01,envelope03a,blueberry01,blankImage,leafblower01,,,,,,,,,,,,0,117,117,216,,,,,,,,,,,,,,,,,,,,,,,,,,,,,,,,,,,838.6139015000081,839.6240188000083,839.6073495000019,840.2019989999972,840.2019989999972,None,842.1453517000045,None,left,1.0893741000036243,842.1453517000045,None,843.260729200003,None,right,0.7578172000066843,843.260729200003,None,,,,,,,,,,,,,,,,,,,,,,,PPT18,001,2022-06-30_12h37.33.852,ABstudy,2022.1.4,59.92857712385407,
AB,Lag1_T1P_T2P,1,P,P,7,8,6,4,12,rooster,Did you see the rooster?,0.12,0.016,JPG\,pizza,strawberry,potato02b,speaker04,battery02b,iron01b,rooster,stapler03b,globe,banana01,medal02b,baseball01a,blankImage,blankImage,blankImage,blankImage,blankImage,rooster,,,,,,,,,,,,0,118,118,69,,,,,,,,,,,,,,,,,,,,,,,,,,,,,,,,,,,844.0476046999975,845.0628719000088,845.0292549000005,845.6233384000079,845.6233384000079,None,847.1445477000088,None,left,3.443620499994722,847.1445477000088,None,850.618432800009,None,right,1.6001959999994142,850.618432800009,None,,,,,,,,,,,,,,,,,,,,,,,PPT18,001,2022-06-30_12h37.33.852,ABstudy,2022.1.4,59.92857712385407,
AB,Lag5_T1P_T2P,5,P,P,7,12,6,3,15,mail box,Did you see the mail box?,0.12,0.016,JPG\,key01,apple07,ring01,leaf02a,hammer01,tableknife02,postalmailbox01,sponge01,baseball01a,thermometer02b,celery,stapler06,grape01,cucumber,tennisball01b,blankImage,blankImage,postalmailbox01,,,,,,,,,,,,0,119,119,113,,,,,,,,,,,,,,,,,,,,,,,,,,,,,,,,,,,852.2383052000077,853.2380512000091,853.2227190999984,853.8757809999952,853.8036799999973,None,855.6839419000025,None,left,1.5520320999930846,855.6839419000025,None,857.2609290999972,None,left,0.10194820001197513,857.2609290999972,None,,,,,,,,,,,,,,,,,,,,,,,PPT18,001,2022-06-30_12h37.33.852,ABstudy,2022.1.4,59.92857712385407,
AB,Lag5_T1P_T2P,5,P,P,8,13,7,4,17,Accordion,Did you see the Accordion?,0.12,0.016,JPG\,toiletpaper01a,lipstick02a,potato02b,speaker04,globe,strawberry,carrot01,accordion01,sock01a,candle08b,pen04b,calculator01,stapler01,brick,pear01,fork03c,blankImage,accordion01,,,,,,,,,,,,0,120,120,162,,,,,,,,,,,,,,,,,,,,,,,,,,,,,,,,,,,857.4030144999997,858.409960200006,858.3945889000024,859.064252199998,858.9819183000072,None,860.9386049000022,None,left,2.2879355999903055,860.9386049000022,None,863.2502936000092,None,left,0.09623029999784194,863.2502936000092,None,,,,,,,,,,,,,,,,,,,,,,,PPT18,001,2022-06-30_12h37.33.852,ABstudy,2022.1.4,59.92857712385407,
AB,Lag5_T1P_T2P,5,P,P,6,11,5,3,14,fish,Did you see the fish?,0.12,0.016,JPG\,broom01,globe,cellphone,tableknife02,cauliflower01,holdfast,ring01,alligator,rice,toaster01,stapler03b,grape01,microscope,cucumber,blankImage,blankImage,blankImage,holdfast,,,,,,,,,,,,0,121,121,133,,,,,,,,,,,,,,,,,,,,,,,,,,,,,,,,,,,863.3662169000017,864.3816391,864.3483018999978,864.9157702000084,864.9157702000084,None,866.6530538000079,None,left,1.6293875999981537,866.6530538000079,None,868.3023967000045,None,left,0.10898450000968296,868.3023967000045,None,,,,,,,,,,,,,,,,,,,,,,,PPT18,001,2022-06-30_12h37.33.852,ABstudy,2022.1.4,59.92857712385407,
AB,Lag5_T1P_T2P,5,P,P,6,11,5,3,14,ladder,Did you see the ladder?,0.12,0.016,JPG\,celery,orange,scissors01,balloon01b,avocado01,stepladder,mushroom01,sewingmachine01a,lighter01,dice05a,stapler01,fan,cd,sock01a,blankImage,blankImage,blankImage,stepladder,,,,,,,,,,,,0,122,122,119,,,,,,,,,,,,,,,,,,,,,,,,,,,,,,,,,,,868.4381454999966,869.4375156000024,869.4221359000076,870.0047931000008,870.0047931000008,None,871.776500699998,None,left,2.5219756000005873,871.776500699998,None,874.3250145000056,None,right,0.9976353999954881,874.3250145000056,None,,,,,,,,,,,,,,,,,,,,,,,PPT18,001,2022-06-30_12h37.33.852,ABstudy,2022.1.4,59.92857712385407,
AB,Lag1_T1P_T2P,1,P,P,7,8,6,3,11,swing,Did you see the swing?,0.12,0.016,JPG\,sewingmachine01a,thermometer02b,sponge01,eraser,broccoli01a,fork03c,swing,stapler03b,belt02a,medal02b,pineapple01a,blankImage,blankImage,blankImage,blankImage,blankImage,blankImage,swing,,,,,,,,,,,,0,123,123,30,,,,,,,,,,,,,,,,,,,,,,,,,,,,,,,,,,,875.3449887000024,876.3607039000053,876.3273005000083,876.9085109000007,876.9085109000007,None,878.3067928000091,None,left,0.959881700007827,878.3067928000091,None,879.2969918000017,None,left,0.12158700000145473,879.2969918000017,None,,,,,,,,,,,,,,,,,,,,,,,PPT18,001,2022-06-30_12h37.33.852,ABstudy,2022.1.4,59.92857712385407,
AB,Lag1_T1P_T2P,1,P,P,8,9,7,5,14,Waterfall,Did you see the Waterfall?,0.12,0.016,JPG\,pizza,watch02a,greenolive,cucumber,match,violin,scissors01,waterfall,stapler03a,cherry01,ring01,cigarette,microscope,cellphone,blankImage,blankImage,blankImage,waterfall,,,,,,,,,,,,0,124,124,52,,,,,,,,,,,,,,,,,,,,,,,,,,,,,,,,,,,879.4533821000077,880.465326000005,880.4500160000025,881.1379512999993,881.0520052000065,None,882.717571000001,None,left,2.1249492000060854,882.717571000001,None,884.8832770000008,None,left,0.1040865999966627,884.8832770000008,None,,,,,,,,,,,,,,,,,,,,,,,PPT18,001,2022-06-30_12h37.33.852,ABstudy,2022.1.4,59.92857712385407,
AB,Lag5_T1P_T2A,5,P,A,7,12,6,3,15,helmet,Did you see the helmet?,0.12,0.016,JPG\,fork03c,belt02a,grape01,computerkeyboard02,lemon02,printer02,skihelmet01,toiletpaper01a,toaster01,lipstick02a,book01b,blueberry01,spoon01,apple07,avocado01,blankImage,blankImage,skihelmet01,,,,,,,,,,,,0,125,125,225,,,,,,,,,,,,,,,,,,,,,,,,,,,,,,,,,,,885.0289574000053,886.0374275000067,886.0218086000095,886.6449182000069,886.6449182000069,None,888.4909546999988,None,left,1.1680465000099503,888.4909546999988,None,889.6907628000044,None,right,0.35201010000309907,889.6907628000044,None,,,,,,,,,,,,,,,,,,,,,,,PPT18,001,2022-06-30_12h37.33.852,ABstudy,2022.1.4,59.92857712385407,
AB,Lag5_T1P_T2P,5,P,P,5,10,4,5,15,ear,Did you see the ear?,0.12,0.016,JPG\,fork03c,plate01b,toiletpaper01a,greenolive,ear,blueberry01,onion,calculator01,envelope03a,stapler06,book01b,pencil01,sewingmachine01a,brick,watermelon01,blankImage,blankImage,ear,,,,,,,,,,,,0,126,126,107,,,,,,,,,,,,,,,,,,,,,,,,,,,,,,,,,,,890.078328500007,891.0918901999976,891.075439399996,891.6414308000094,891.6414308000094,None,893.4613178,None,left,1.3977784000016982,893.4613178,None,894.8793325000006,None,left,0.10775129999092314,894.8793325000006,None,,,,,,,,,,,,,,,,,,,,,,,PPT18,001,2022-06-30_12h37.33.852,ABstudy,2022.1.4,59.92857712385407,
AB,Lag1_T1A_T2A,1,A,A,6,7,5,5,12,flamingo,Did you see the flamingo?,0.12,0.016,JPG\,chain01,pen04b,birthdaycandle,watermelon01,broom01,scissors01,measuringcup01,candle01,hammer01,calculator01,ashtray01,feather03a,blankImage,blankImage,blankImage,blankImage,blankImage,witchhat,,,,,,,,,,,,0,127,127,288,,,,,,,,,,,,,,,,,,,,,,,,,,,,,,,,,,,895.0186582000024,896.0297876999975,896.0136353999987,896.5812283999985,896.5812283999985,None,898.0769112999988,None,right,1.2625644000072498,898.0769112999988,None,899.3670507000061,None,right,0.46850270000868477,899.3670507000061,None,,,,,,,,,,,,,,,,,,,,,,,PPT18,001,2022-06-30_12h37.33.852,ABstudy,2022.1.4,59.92857712385407,
AB,Lag5_T1A_T2P,5,A,P,5,10,4,3,13,flower,Did you see the flower?,0.12,0.016,JPG\,cucumber,ring01,lipstick02a,microscope,violin,garlic01a,celery,lighter01,cherry01,stapler03a,belt02a,key01,binoculars01b,blankImage,blankImage,blankImage,blankImage,christmastree,,,,,,,,,,,,0,128,128,284,,,,,,,,,,,,,,,,,,,,,,,,,,,,,,,,,,,899.871961900004,900.8850603000028,900.8683358999988,901.4618557000067,901.4618557000067,None,903.0340406000032,None,right,1.9367173000064213,903.0340406000032,None,904.9893898000009,None,left,0.5729004000022542,904.9893898000009,None,,,,,,,,,,,,,,,,,,,,,,,PPT18,001,2022-06-30_12h37.33.852,ABstudy,2022.1.4,59.92857712385407,
AB,Lag5_T1A_T2P,5,A,P,6,11,5,3,14,keys,Did you see the keys?,0.12,0.016,JPG\,pencil01,microscope,banana01,computerkeyboard02,celery,cellphone,scissors01,sock01a,book01b,onion,stapler03a,binoculars01b,baseball01a,iron01b,blankImage,blankImage,blankImage,treadmill,,,,,,,,,,,,0,129,129,275,,,,,,,,,,,,,,,,,,,,,,,,,,,,,,,,,,,905.5901786000031,906.5907380999997,906.5738973999978,907.151629,907.151629,None,908.8939481999987,None,right,2.9884368000057293,908.8939481999987,None,911.9127776000096,None,right,0.20953340000414755,911.9127776000096,None,,,,,,,,,,,,,,,,,,,,,,,PPT18,001,2022-06-30_12h37.33.852,ABstudy,2022.1.4,59.92857712385407,
AB,Lag5_T1P_T2P,5,P,P,5,10,4,5,15,Ipad,Did you see the Ipad?,0.12,0.016,JPG\,fork03c,toothbrush03b,cellphone,fan,ipad02,clock01a,ring01,eraser,sunglasses04,stapler06,violin,brownsugar,blueberry01,pear01,pencil01,blankImage,blankImage,ipad02,,,,,,,,,,,,0,130,130,150,,,,,,,,,,,,,,,,,,,,,,,,,,,,,,,,,,,912.154978999999,913.163884900001,913.147208800001,913.7329500000051,913.7329500000051,None,915.525132499999,None,left,1.0371085000078892,915.525132499999,None,916.5843051999982,None,left,0.12200010000378825,916.5843051999982,None,,,,,,,,,,,,,,,,,,,,,,,PPT18,001,2022-06-30_12h37.33.852,ABstudy,2022.1.4,59.92857712385407,
AB,Lag5_T1P_T2P,5,P,P,7,12,6,3,15,Eye patch,Did you see the Eye patch?,0.12,0.016,JPG\,candle01,paintbrush01,scissors01,fan,microscope,toothbrush03b,eyepatch,watermelon01,teabag,pencil01,lemon02,stapler05,shirt02,cauliflower01,cd,blankImage,blankImage,eyepatch,,,,,,,,,,,,0,131,131,108,,,,,,,,,,,,,,,,,,,,,,,,,,,,,,,,,,,916.7412156000064,917.7517421000084,917.7350842000014,918.3111714999977,918.3111714999977,None,920.1935828999995,None,left,1.336876500005019,920.1935828999995,None,921.5559470000007,None,left,0.12636080000083894,921.5559470000007,None,,,,,,,,,,,,,,,,,,,,,,,PPT18,001,2022-06-30_12h37.33.852,ABstudy,2022.1.4,59.92857712385407,
AB,Lag1_T1P_T2P,1,P,P,6,7,5,4,11,no parking sign,Did you see the no parking sign?,0.12,0.016,JPG\,fork03c,belt02a,grape01,computerkeyboard02,lemon02,parkingsign,stapler05,toiletpaper01a,toaster01,lipstick02a,book01b,blankImage,blankImage,blankImage,blankImage,blankImage,blankImage,parkingsign,,,,,,,,,,,,0,132,132,47,,,,,,,,,,,,,,,,,,,,,,,,,,,,,,,,,,,921.7135014000087,922.7234598000068,922.7067289999977,923.2767775999964,923.2767775999964,None,924.6501888000057,None,left,1.5367193999991287,924.6501888000057,None,926.2107906000019,None,right,0.7040331000025617,926.2107906000019,None,,,,,,,,,,,,,,,,,,,,,,,PPT18,001,2022-06-30_12h37.33.852,ABstudy,2022.1.4,59.92857712385407,
AB,Lag5_T1P_T2P,5,P,P,6,11,5,4,15,shower,Did you see the shower?,0.12,0.016,JPG\,dice05a,watch02a,pig,lighter01,button01,shower,paintbrush01,microscope,plate01b,pen04b,stapler05,weight04a,carrot01,shirt02,globe,blankImage,blankImage,shower,,,,,,,,,,,,0,133,133,121,,,,,,,,,,,,,,,,,,,,,,,,,,,,,,,,,,,926.9477946999978,927.9622159999999,927.9455925000075,928.5284350000002,928.5284350000002,None,930.3401518000028,None,right,1.7906564000149956,930.3401518000028,None,932.149856700009,None,left,0.6932907000009436,932.149856700009,None,,,,,,,,,,,,,,,,,,,,,,,PPT18,001,2022-06-30_12h37.33.852,ABstudy,2022.1.4,59.92857712385407,
AB,Lag1_T1P_T2P,1,P,P,7,8,6,3,11,Daddy Long Legs,Did you see the Daddy Long Legs?,0.12,0.016,JPG\,lighter01,hammer01,spoon01,chain01,cymbal,sponge01,daddylonglegs,stapler03b,pig,watermelon01,cauliflower01,blankImage,blankImage,blankImage,blankImage,blankImage,blankImage,daddylonglegs,,,,,,,,,,,,0,134,134,86,,,,,,,,,,,,,,,,,,,,,,,,,,,,,,,,,,,932.8745535000053,933.8845656000049,933.8678852000012,934.4561972000083,934.4561972000083,None,935.8740428000019,None,left,1.1211572000029264,935.8740428000019,None,937.0213097000087,None,right,4.277828700011014,937.0213097000087,None,,,,,,,,,,,,,,,,,,,,,,,PPT18,001,2022-06-30_12h37.33.852,ABstudy,2022.1.4,59.92857712385407,
AB,Lag5_T1P_T2P,5,P,P,8,13,7,5,18,Ping pong Table,Did you see the Ping pong Table?,0.12,0.016,JPG\,shirt02,match,screw02,foosballtable,blueberry01,pineapple01a,sewingmachine01a,pingpongtable,button01,comb02a,dice05a,measuringcup01,stapler04b,printer02,carrot01,watermelon01,blankImage,pingpongtable,,,,,,,,,,,,0,135,135,152,,,,,,,,,,,,,,,,,,,,,,,,,,,,,,,,,,,941.3322236999957,942.3429382000031,942.3262886000011,942.9276700000046,942.9276700000046,None,944.8635964999994,None,left,0.7712577000056626,944.8635964999994,None,945.6627824000025,None,left,0.10794250000617467,945.6627824000025,None,,,,,,,,,,,,,,,,,,,,,,,PPT18,001,2022-06-30_12h37.33.852,ABstudy,2022.1.4,59.92857712385407,
AB,Lag5_T1A_T2P,5,A,P,7,12,6,4,16,ear,Did you see the ear?,0.12,0.016,JPG\,candle01,shirt02,brick,orange,greenolive,toothbrush03b,pizza,thermometer02b,book01b,toiletpaper01a,sewingmachine01a,stapler01,candy,cymbal,potato02b,plate01b,blankImage,chair,,,,,,,,,,,,0,136,136,257,,,,,,,,,,,,,,,,,,,,,,,,,,,,,,,,,,,945.7987204999954,946.8140071999951,946.7805081999977,947.3535964000039,947.3535964000039,None,949.3280395000038,None,right,1.4744263000029605,949.3280395000038,None,950.8347973000054,None,right,1.0079642000055173,950.8347973000054,None,,,,,,,,,,,,,,,,,,,,,,,PPT18,001,2022-06-30_12h37.33.852,ABstudy,2022.1.4,59.92857712385407,
AB,Lag5_T1P_T2A,5,P,A,7,12,6,4,16,Bear,Did you see the Bear?,0.12,0.016,JPG\,comb02a,key01,medal02b,battery02b,lighter01,microscope,grizzly,sandal,pig,cellphone,computerkeyboard02,calculator01,cymbal,clock04,cucumber,avocado01,blankImage,grizzly,,,,,,,,,,,,0,137,137,213,,,,,,,,,,,,,,,,,,,,,,,,,,,,,,,,,,,951.8745914000028,952.8872453000076,952.8719765999995,953.5333411000029,953.4600632000074,None,955.4143609000021,None,left,1.236334600005648,955.4143609000021,None,956.6742559999984,None,right,0.7293192999932216,956.6742559999984,None,,,,,,,,,,,,,,,,,,,,,,,PPT18,001,2022-06-30_12h37.33.852,ABstudy,2022.1.4,59.92857712385407,
