TrialType,CondType,Lag,T1_PA,T2_PA,T1Loc,T2Loc,PreDistractor,PostDistractor,TotalImg,cueWord,T1cue,StimLength,isi,PicFolder,Img1,Img2,Img3,Img4,Img5,Img6,Img7,Img8,Img9,Img10,Img11,Img12,Img13,Img14,Img15,Img16,Img17,T1_Identity,ImageType,T1PA,T2PA,Picture,Image,FullPathName,FilePath,Practice_Trials.thisRepN,Practice_Trials.thisTrialN,Practice_Trials.thisN,Practice_Trials.thisIndex,trials.thisRepN,trials.thisTrialN,trials.thisN,trials.thisIndex,trials_2.thisRepN,trials_2.thisTrialN,trials_2.thisN,trials_2.thisIndex,Practice_Ins.started,Practice_Ins.stopped,End_Prac_Ins.keys,End_Prac_Ins.rt,End_Prac_Ins.started,End_Prac_Ins.stopped,text_2.started,text_2.stopped,Fixation_Cross_2.started,Fixation_Cross_2.stopped,Rapid_Image_Present_2.started,Rapid_Image_Present_2.stopped,key_resp.keys,key_resp.rt,key_resp.started,key_resp.stopped,T1Response_2.started,T1Response_2.stopped,T2Response_2.started,T2Response_2.stopped,key_resp_4.keys,key_resp_4.rt,key_resp_4.started,key_resp_4.stopped,text.started,text.stopped,End_Instructions.keys,End_Instructions.rt,End_Instructions.started,End_Instructions.stopped,text_5.started,text_5.stopped,FC.started,FC.stopped,Rapid_Image_Present.started,Rapid_Image_Present.stopped,T1Response.started,T1Response.stopped,key_resp_2.keys,key_resp_2.rt,key_resp_2.started,key_resp_2.stopped,T2Response.started,T2Response.stopped,key_resp_3.keys,key_resp_3.rt,key_resp_3.started,key_resp_3.stopped,text_6.started,text_6.stopped,Fin_ins.keys,Fin_ins.rt,Fin_ins.started,Fin_ins.stopped,MemTest.started,MemTest.stopped,MemResponse.keys,MemResponse.rt,MemResponse.started,MemResponse.stopped,Display.started,Display.stopped,text_7.started,text_7.stopped,endOfExperiment.started,endOfExperiment.stopped,key_resp_5.keys,key_resp_5.rt,key_resp_5.started,key_resp_5.stopped,participant,session,date,expName,psychopyVersion,frameRate,
,,,,,,,,,,,,,,,,,,,,,,,,,,,,,,,,,,,,,,,,,,,,,,,,,,,,17.4012614999956,None,space,29.96177210001042,17.4012614999956,None,,,,,,,,,,,,,,,,,,,,,,,,,,,,,,,,,,,,,,,,,,,,,,,,,,,,,,,,,,,,,,,,,PPT19,001,2022-06-30_15h07.06.222,ABstudy,2022.1.4,59.92925950412129,
AB_Prac,Lag5_T1A_T2A,5,A,A,6,11,5,5,16,castle,Did you see the castle?,0.5,0.016,JPG\,tape02a,englishmuffin,flask,ladle02a,monitor,peach01,keychain,squeegee01b,telephone01b,whisk,walkman,syringe02,baguette01,coaster,box01a,coffeepot03a,blankImage,None,,,,,,,,0,0,0,11,,,,,,,,,,,,,,,47.464959699995234,48.468854799997644,48.45220590000099,49.106999099996756,49.106999099996756,None,right,1.3232641000067815,57.20774929999607,None,57.20774929999607,None,58.563460999997915,None,right,2.855489600013243,58.563460999997915,None,,,,,,,,,,,,,,,,,,,,,,,,,,,,,,,,,,,,,,,,,,,,,,,PPT19,001,2022-06-30_15h07.06.222,ABstudy,2022.1.4,59.92925950412129,
AB_Prac,Lag1_T1P_T2A,1,P,A,5,6,4,5,11,Webcam,Did you see the Webcam?,0.5,0.016,JPG\,pictureframe04,binder03b,straw,adjustablewrench01b,webcam,cane,hairdryer02a,icepack,kitchenscale01a,lifejacket,piggybank,blankImage,blankImage,blankImage,blankImage,blankImage,blankImage,webcam,,,,,,,,0,1,1,6,,,,,,,,,,,,,,,61.459957200000645,62.46636279999802,62.432905599998776,63.03128019999713,63.03128019999713,None,left,1.1657154000131413,68.53437559999293,None,68.53437559999293,None,69.72330420000071,None,right,0.9677815000177361,69.72330420000071,None,,,,,,,,,,,,,,,,,,,,,,,,,,,,,,,,,,,,,,,,,,,,,,,PPT19,001,2022-06-30_15h07.06.222,ABstudy,2022.1.4,59.92925950412129,
AB_Prac,Lag5_T1P_T2P,5,P,P,5,10,4,5,15,washing machine,Did you see the washing machine?,0.5,0.016,JPG\,waterbottle03,wheel01,flashlight02b,zucchini01,washingmachine,headphones02b,nutcracker01,paintroller01,paperclip03,stapler06,ribbon04,electricrazor,bottleofredwine01,pitabread,pot02a,blankImage,blankImage,washingmachine,,,,,,,,0,2,2,4,,,,,,,,,,,,,,,70.71531899999536,71.72590159998799,71.70909530000063,72.29402929999924,72.29402929999924,None,left,1.6739346000103978,79.82575579998957,None,79.82575579998957,None,81.51913709999644,None,right,0.643506400010665,81.51913709999644,None,,,,,,,,,,,,,,,,,,,,,,,,,,,,,,,,,,,,,,,,,,,,,,,PPT19,001,2022-06-30_15h07.06.222,ABstudy,2022.1.4,59.92925950412129,
AB_Prac,Lag1_T1P_T2A,1,P,A,8,9,7,5,14,flower,Did you see the flower?,0.5,0.016,JPG\,razor01,axe01,binder03b,bowl01,kettle01,lettuce,lime,plasticflower01b,mitten04,pencilcase01,plunger02,strawbasket01,toothpick02,wallet02a,blankImage,blankImage,blankImage,plasticflower01b,,,,,,,,0,3,3,5,,,,,,,,,,,,,,,82.19200060000003,83.20377619999635,83.1870704999892,83.75877979998768,83.75877979998768,None,left,1.212728300015442,90.8301696999988,None,90.8301696999988,None,92.06234309999854,None,right,0.6774434000108158,92.06234309999854,None,,,,,,,,,,,,,,,,,,,,,,,,,,,,,,,,,,,,,,,,,,,,,,,PPT19,001,2022-06-30_15h07.06.222,ABstudy,2022.1.4,59.92925950412129,
AB_Prac,Lag1_T1A_T2A,1,A,A,8,9,7,3,12,Moose,Did you see the Moose?,0.5,0.016,JPG\,clothespin03b,corkscrew03a,drillbit03a,fusilli03a,needlenosepliers01,perfume01a,pistachio,scrubbingbrush05b,spatula03,toothpastetube,hinge,toydinosaur,blankImage,blankImage,blankImage,blankImage,blankImage,None,,,,,,,,0,4,4,10,,,,,,,,,,,,,,,92.775347399991,93.7808526000008,93.7474169999914,94.33128449998912,94.33128449998912,None,right,1.4560240000137128,100.37132549998933,None,100.37132549998933,None,101.85587359999772,None,right,0.6516870000050403,101.85587359999772,None,,,,,,,,,,,,,,,,,,,,,,,,,,,,,,,,,,,,,,,,,,,,,,,PPT19,001,2022-06-30_15h07.06.222,ABstudy,2022.1.4,59.92925950412129,
AB_Prac,Lag5_T1P_T2P,5,P,P,5,10,4,5,15,Vulture,Did you see the Vulture?,0.5,0.016,JPG\,shorts01,toast,ramekin01,bib,vulture,cracker02,date,glasses01a,hat03b,stapler01,measuringtape01,nail,pill,drum01,starfish01,blankImage,blankImage,vulture,,,,,,,,0,5,5,3,,,,,,,,,,,,,,,102.5510862999945,103.55778909999935,103.54221859999234,104.22404039998946,104.14528549999523,None,left,0.8806066000106512,111.77878999999666,None,111.77878999999666,None,112.68278659999487,None,left,0.7765180999995209,112.68278659999487,None,,,,,,,,,,,,,,,,,,,,,,,,,,,,,,,,,,,,,,,,,,,,,,,PPT19,001,2022-06-30_15h07.06.222,ABstudy,2022.1.4,59.92925950412129,
AB_Prac,Lag5_T1A_T2P,5,A,P,6,11,5,3,14,dog,Did you see the dog?,0.5,0.016,JPG\,bucket01a,doorlock,cookiecutter,fireextinguisher01,gluestick,highlighter02b,sportbag,spraybottle01,suitcase,thread02,stapler05,walnut01c,icecubetray01a,vikingmask01b,blankImage,blankImage,blankImage,None,,,,,,,,0,6,6,9,,,,,,,,,,,,,,,113.48572219999915,114.50126649999584,114.46785989998898,115.06223519999185,115.06223519999185,None,right,1.5885934000107227,122.22349559998838,None,122.22349559998838,None,123.8445178999973,None,right,0.6796109000133583,123.8445178999973,None,,,,,,,,,,,,,,,,,,,,,,,,,,,,,,,,,,,,,,,,,,,,,,,PPT19,001,2022-06-30_15h07.06.222,ABstudy,2022.1.4,59.92925950412129,
AB_Prac,Lag1_T1P_T2P,1,P,P,8,9,7,5,14,Tennis racket,Did you see the Tennis racket?,0.5,0.016,JPG\,coconut,computermouse06,croissant01,deodorant02a,pillow01a,peanut01,boot02b,tennisracket,stapler03b,crayon,eggplant,marker01a,plant01,radish01,blankImage,blankImage,blankImage,tennisracket,,,,,,,,0,7,7,0,,,,,,,,,,,,,,,124.55702379999275,125.56366179999895,125.53086619998794,126.16018479999912,126.16018479999912,None,left,1.415120300007402,133.17298759998812,None,133.17298759998812,None,134.60550729998795,None,right,0.48566060001030564,134.60550729998795,None,,,,,,,,,,,,,,,,,,,,,,,,,,,,,,,,,,,,,,,,,,,,,,,PPT19,001,2022-06-30_15h07.06.222,ABstudy,2022.1.4,59.92925950412129,
AB_Prac,Lag5_T1P_T2A,5,P,A,6,11,5,5,16,bread,Did you see the bread?,0.5,0.016,JPG\,cleaver01,clipboard,dustpan,hikingshoe01,notebook03a,baguette01,playingcard,pliers02b,styrofoamcup,rollingpin01a,swimgoggles,wineglass01,fryingpan02a,safetypin,syringe01,thimble,blankImage,baguette01,,,,,,,,0,8,8,8,,,,,,,,,,,,,,,135.12560629998916,136.1395816999866,136.12288369999442,136.72160219999205,136.72160219999205,None,left,1.5929783000174211,144.76203189999796,None,144.76203189999796,None,146.38368719999562,None,right,0.5232888000173261,146.38368719999562,None,,,,,,,,,,,,,,,,,,,,,,,,,,,,,,,,,,,,,,,,,,,,,,,PPT19,001,2022-06-30_15h07.06.222,ABstudy,2022.1.4,59.92925950412129,
AB_Prac,Lag1_T1P_T2P,1,P,P,6,7,5,5,12,triangle,Did you see the triangle?,0.5,0.016,JPG\,ginger,mousetrap,plum01,slipper01b,dropper01,triangle,stapler04b,pants,raspberry01,rope03,scale01a,vase01,blankImage,blankImage,blankImage,blankImage,blankImage,triangle,,,,,,,,0,9,9,1,,,,,,,,,,,,,,,146.93820739998773,147.95177619998867,147.9347407999885,148.5252244999865,148.5252244999865,None,right,3.386687200021697,154.60766179999337,None,154.60766179999337,None,158.01109259999066,None,right,0.735301700013224,158.01109259999066,None,,,,,,,,,,,,,,,,,,,,,,,,,,,,,,,,,,,,,,,,,,,,,,,PPT19,001,2022-06-30_15h07.06.222,ABstudy,2022.1.4,59.92925950412129,
AB_Prac,Lag5_T1P_T2P,5,P,P,7,12,6,3,15,vacuum,Did you see the vacuum?,0.5,0.016,JPG\,fork07b,lightbulb01,manshoe,saw02b,shoelace,soap03a,vacuumcleaner01,floortile01,necklace,doll,cabbage,stapler03a,hanger02a,laptop01a,nailpolish03b,blankImage,blankImage,vacuumcleaner01,,,,,,,,0,10,10,2,,,,,,,,,,,,,,,158.78071969999291,159.77967569998873,159.7630317999865,160.3502892999968,160.3502892999968,None,left,1.3245097000180976,167.85385299999325,None,167.85385299999325,None,169.20577789998788,None,left,0.4936143000086304,169.20577789998788,None,,,,,,,,,,,,,,,,,,,,,,,,,,,,,,,,,,,,,,,,,,,,,,,PPT19,001,2022-06-30_15h07.06.222,ABstudy,2022.1.4,59.92925950412129,
AB_Prac,Lag5_T1P_T2A,5,P,A,6,11,5,5,16,Wheat,Did you see the Wheat?,0.5,0.016,JPG\,bottleopener01,dentalfloss03b,cooler01,icecreamcone01a,paperclip01b,wheat,pencilsharpener02a,plasticbasket01a,toycar04,apricot,hairclip02,rock01a,honeydewmelon,antenna,blackberry,cardboardbox,blankImage,wheat,,,,,,,,0,11,11,7,,,,,,,,,,,,,,,169.7251816999924,170.7406168999878,170.70726469998772,171.29732159999548,171.29732159999548,None,left,1.3114344000205165,179.3324305999995,None,179.3324305999995,None,180.66767260000051,None,right,0.502514500010875,180.66767260000051,None,,,,,,,,,,,,,,,,,,,,,,,,,,,,,,,,,,,,,,,,,,,,,,,PPT19,001,2022-06-30_15h07.06.222,ABstudy,2022.1.4,59.92925950412129,
,,,,,,,,,,,,,,,,,,,,,,,,,,,,,,,,,,,,,,,,,,,,,,,,,,,,,,,,,,,,,,,,,,,,,,,,,,,,181.20221979999042,None,space,14.687872900016373,181.20221979999042,None,,,,,,,,,,,,,,,,,,,,,,,,,,,,,,,,,,,,,,,,,PPT19,001,2022-06-30_15h07.06.222,ABstudy,2022.1.4,59.92925950412129,
AB,Lag1_T1P_T2A,1,P,A,7,8,6,4,12,Steering wheel,Did you see the Steering wheel?,0.12,0.016,JPG\,alligator,banana01,apple07,tomato01,button01,spoon01,steeringwheel,fork03c,canoftennisballs,potato02b,grape01,leaf02a,blankImage,blankImage,blankImage,blankImage,blankImage,steeringwheel,,,,,,,,,,,,0,0,0,198,,,,,,,,,,,,,,,,,,,,,,,,,,,,,,,,,,,196.67228669999167,197.68429879999894,197.66775049999706,198.17097969999304,198.17097969999304,None,199.72537099999317,None,left,2.3414565000130096,199.72537099999317,None,202.09110459999647,None,right,0.8872375000064494,202.09110459999647,None,,,,,,,,,,,,,,,,,,,,,,,PPT19,001,2022-06-30_15h07.06.222,ABstudy,2022.1.4,59.92925950412129,
AB,Lag5_T1P_T2A,5,P,A,6,11,5,5,16,World map,Did you see the World map?,0.12,0.016,JPG\,cigarette,pig,banana01,strawberry,clock01a,worldmap,spoon01,blueberry01,battery02b,pineapple01a,chain01,paintbrush01,candy,pen04b,teabag,birthdaycandle,blankImage,worldmap,,,,,,,,,,,,0,1,1,205,,,,,,,,,,,,,,,,,,,,,,,,,,,,,,,,,,,203.04329219998908,204.05703619999986,204.04043889998866,204.6312038999895,204.6312038999895,None,206.4442263999954,None,left,1.3514436000114074,206.4442263999954,None,207.8278156999877,None,right,0.5351897000218742,207.8278156999877,None,,,,,,,,,,,,,,,,,,,,,,,PPT19,001,2022-06-30_15h07.06.222,ABstudy,2022.1.4,59.92925950412129,
AB,Lag1_T1P_T2A,1,P,A,6,7,5,4,11,bird,Did you see the bird?,0.12,0.016,JPG\,foosballtable,candy,envelope03a,microscope,pencil01,cedarwaxwing,scissors01,watermelon01,grape01,dandelion,pineapple01a,blankImage,blankImage,blankImage,blankImage,blankImage,blankImage,cedarwaxwing,,,,,,,,,,,,0,2,2,182,,,,,,,,,,,,,,,,,,,,,,,,,,,,,,,,,,,208.39817039998889,209.41270789998816,209.39583839999977,209.90980979999586,209.88336799999524,None,211.3792764999962,None,left,2.431608500017319,211.3792764999962,None,213.83349649999582,None,left,0.9125148000166519,213.83349649999582,None,,,,,,,,,,,,,,,,,,,,,,,PPT19,001,2022-06-30_15h07.06.222,ABstudy,2022.1.4,59.92925950412129,
AB,Lag1_T1P_T2P,1,P,P,8,9,7,4,13,crab,Did you see the crab?,0.12,0.016,JPG\,candle01,fork03c,plate01b,violin,computerkeyboard02,candy,calculator01,crab01,stapler04b,sock01a,teabag,banana01,cd,blankImage,blankImage,blankImage,blankImage,crab01,,,,,,,,,,,,0,3,3,37,,,,,,,,,,,,,,,,,,,,,,,,,,,,,,,,,,,214.77002399999765,215.7854578999977,215.75211049999052,216.32926109999244,216.32926109999244,None,217.96822079998674,None,left,1.2183173000230454,217.96822079998674,None,219.2056913999986,None,right,0.580953300013789,219.2056913999986,None,,,,,,,,,,,,,,,,,,,,,,,PPT19,001,2022-06-30_15h07.06.222,ABstudy,2022.1.4,59.92925950412129,
AB,Lag1_T1P_T2P,1,P,P,8,9,7,5,14,Waterfall,Did you see the Waterfall?,0.12,0.016,JPG\,pizza,watch02a,greenolive,cucumber,match,violin,scissors01,waterfall,stapler03a,cherry01,ring01,cigarette,microscope,cellphone,blankImage,blankImage,blankImage,waterfall,,,,,,,,,,,,0,4,4,52,,,,,,,,,,,,,,,,,,,,,,,,,,,,,,,,,,,219.8087330999988,220.82381869999517,220.79045319999568,221.38532439999108,221.38532439999108,None,223.18488499999512,None,left,1.3938516000052914,223.18488499999512,None,224.61172959998657,None,right,0.5184631000156514,224.61172959998657,None,,,,,,,,,,,,,,,,,,,,,,,PPT19,001,2022-06-30_15h07.06.222,ABstudy,2022.1.4,59.92925950412129,
AB,Lag5_T1P_T2P,5,P,P,6,11,5,3,14,fish,Did you see the fish?,0.12,0.016,JPG\,broom01,globe,cellphone,tableknife02,cauliflower01,holdfast,ring01,alligator,rice,toaster01,stapler03b,grape01,microscope,cucumber,blankImage,blankImage,blankImage,holdfast,,,,,,,,,,,,0,5,5,133,,,,,,,,,,,,,,,,,,,,,,,,,,,,,,,,,,,225.16480119999324,226.17933059998904,226.16248999998788,226.81658329999482,226.7397321999888,None,228.4796776000003,None,left,1.6111664000054589,228.4796776000003,None,230.116783999998,None,left,0.3181835000141291,230.116783999998,None,,,,,,,,,,,,,,,,,,,,,,,PPT19,001,2022-06-30_15h07.06.222,ABstudy,2022.1.4,59.92925950412129,
AB,Lag1_T1P_T2P,1,P,P,8,9,7,4,13,dart board,Did you see the dart board?,0.12,0.016,JPG\,rice,watermelon01,tableknife02,scarf,computerkeyboard02,cauliflower01,battery02b,dartboard,stapler01,sandal,sponge01,microscope,tomato01,blankImage,blankImage,blankImage,blankImage,dartboard,,,,,,,,,,,,0,6,6,80,,,,,,,,,,,,,,,,,,,,,,,,,,,,,,,,,,,230.47132929999498,231.4847049999953,231.46807449999324,232.04308559998753,232.04308559998753,None,233.6585275999969,None,right,2.3198059999995166,233.6585275999969,None,236.00586149998708,None,right,1.1404354000114836,236.00586149998708,None,,,,,,,,,,,,,,,,,,,,,,,PPT19,001,2022-06-30_15h07.06.222,ABstudy,2022.1.4,59.92925950412129,
AB,Lag1_T1P_T2A,1,P,A,7,8,6,5,13,Well,Did you see the Well?,0.12,0.016,JPG\,leaf02a,apple07,cd,pineapple01a,envelope03a,paintbrush01,well,acorn,rice,feather03a,lemon02,balloon01b,avocado01,blankImage,blankImage,blankImage,blankImage,well,,,,,,,,,,,,0,7,7,178,,,,,,,,,,,,,,,,,,,,,,,,,,,,,,,,,,,237.17582720000064,238.19131109998852,238.1580466999876,238.7313897999993,238.7313897999993,None,240.3871652999951,None,left,1.063196600007359,240.3871652999951,None,241.47747069998877,None,right,0.38093620001745876,241.47747069998877,None,,,,,,,,,,,,,,,,,,,,,,,PPT19,001,2022-06-30_15h07.06.222,ABstudy,2022.1.4,59.92925950412129,
AB,Lag1_T1A_T2P,1,A,P,7,8,6,3,11,Fox,Did you see the Fox?,0.12,0.016,JPG\,toaster01,chain01,sponge01,baseball01a,carrot01,belt02a,book01b,stapler03b,grape01,brick,celery,blankImage,blankImage,blankImage,blankImage,blankImage,blankImage,fingerprint,,,,,,,,,,,,0,8,8,234,,,,,,,,,,,,,,,,,,,,,,,,,,,,,,,,,,,241.89620569998806,242.89576619998843,242.87908679999236,243.46176389999164,243.46176389999164,None,244.80562879999343,None,right,1.1808644000120694,244.80562879999343,None,246.01546919999237,None,left,1.538665400017635,246.01546919999237,None,,,,,,,,,,,,,,,,,,,,,,,PPT19,001,2022-06-30_15h07.06.222,ABstudy,2022.1.4,59.92925950412129,
AB,Lag1_T1A_T2P,1,A,P,5,6,4,3,9,barrel,Did you see the barrel?,0.12,0.016,JPG\,clock01a,cellphone,toaster01,toothbrush03b,cauliflower01,stapler01,comb02a,paintbrush01,scarf,blankImage,blankImage,blankImage,blankImage,blankImage,blankImage,blankImage,blankImage,sheep,,,,,,,,,,,,0,9,9,243,,,,,,,,,,,,,,,,,,,,,,,,,,,,,,,,,,,247.5859696999978,248.60174739999638,248.56814309999754,249.15963139999076,249.15963139999076,None,250.2653879999998,None,right,1.4814809000090463,250.2653879999998,None,251.77152319999004,None,left,1.1110030000127153,251.77152319999004,None,,,,,,,,,,,,,,,,,,,,,,,PPT19,001,2022-06-30_15h07.06.222,ABstudy,2022.1.4,59.92925950412129,
AB,Lag5_T1A_T2P,5,A,P,6,11,5,5,16,bed,Did you see the bed?,0.12,0.016,JPG\,cellphone,tomato01,comb02a,candy,celery,cucumber,toaster01,fan,feather03a,pen04b,stapler03b,blueberry01,plate01b,cherry01,baseball01a,candle08b,blankImage,toolbox02,,,,,,,,,,,,0,10,10,274,,,,,,,,,,,,,,,,,,,,,,,,,,,,,,,,,,,252.90846500000043,253.92383379999956,253.890379199991,254.4615000999911,254.4615000999911,None,256.5131659999897,None,right,3.3049146000121254,256.5131659999897,None,259.84672839999257,None,left,0.5554948000062723,259.84672839999257,None,,,,,,,,,,,,,,,,,,,,,,,PPT19,001,2022-06-30_15h07.06.222,ABstudy,2022.1.4,59.92925950412129,
AB,Lag5_T1P_T2P,5,P,P,6,11,5,4,15,Bumper car,Did you see the Bumper car?,0.12,0.016,JPG\,eraser,measuringcup01,chain01,birthdaycandle,ring01,bumpercar,weight04a,pig,cauliflower01,celery,stapler01,sunglasses04,greenolive,candy,strawberry,blankImage,blankImage,bumpercar,,,,,,,,,,,,0,11,11,104,,,,,,,,,,,,,,,,,,,,,,,,,,,,,,,,,,,260.4321592999913,261.4311020999885,261.4146578999935,262.0036945999891,262.0036945999891,None,263.85693809999793,None,left,1.20094130000507,263.85693809999793,None,265.0851444,None,left,0.3096939000097336,265.0851444,None,,,,,,,,,,,,,,,,,,,,,,,PPT19,001,2022-06-30_15h07.06.222,ABstudy,2022.1.4,59.92925950412129,
AB,Lag1_T1P_T2P,1,P,P,5,6,4,4,10,skateboard,Did you see the skateboard?,0.12,0.016,JPG\,binoculars01b,cymbal,pizza,candy,skateboard,stapler05,grape01,thermometer02b,speaker04,lemon02,blankImage,blankImage,blankImage,blankImage,blankImage,blankImage,blankImage,skateboard,,,,,,,,,,,,0,12,12,25,,,,,,,,,,,,,,,,,,,,,,,,,,,,,,,,,,,265.4255315999908,266.4360627999995,266.41933939998853,267.01606439999887,267.01606439999887,None,268.2413142000005,None,left,1.449891000011121,268.2413142000005,None,269.72243699998944,None,left,0.3037719000130892,269.72243699998944,None,,,,,,,,,,,,,,,,,,,,,,,PPT19,001,2022-06-30_15h07.06.222,ABstudy,2022.1.4,59.92925950412129,
AB,Lag1_T1P_T2P,1,P,P,5,6,4,3,9,mail box,Did you see the mail box?,0.12,0.016,JPG\,watermelon01,banana01,ring01,pencil01,mailbox02,stapler04b,cucumber,thermometer02b,key01,blankImage,blankImage,blankImage,blankImage,blankImage,blankImage,blankImage,blankImage,mailbox02,,,,,,,,,,,,0,13,13,21,,,,,,,,,,,,,,,,,,,,,,,,,,,,,,,,,,,270.0594715999905,271.0737889999873,271.0405032999988,271.63063970000076,271.63063970000076,None,272.71064919998753,None,left,1.6037356000160798,272.71064919998753,None,274.3441529999982,None,left,1.082667800001218,274.3441529999982,None,,,,,,,,,,,,,,,,,,,,,,,PPT19,001,2022-06-30_15h07.06.222,ABstudy,2022.1.4,59.92925950412129,
AB,Lag5_T1A_T2P,5,A,P,5,10,4,3,13,flower,Did you see the flower?,0.12,0.016,JPG\,cucumber,ring01,lipstick02a,microscope,violin,garlic01a,celery,lighter01,cherry01,stapler03a,belt02a,key01,binoculars01b,blankImage,blankImage,blankImage,blankImage,christmastree,,,,,,,,,,,,0,14,14,284,,,,,,,,,,,,,,,,,,,,,,,,,,,,,,,,,,,275.44742129999213,276.4628386999975,276.4293281999999,277.0106322999927,277.0106322999927,None,278.5704832999909,None,right,1.624578000017209,278.5704832999909,None,280.21688529998937,None,left,0.841146300022956,280.21688529998937,None,,,,,,,,,,,,,,,,,,,,,,,PPT19,001,2022-06-30_15h07.06.222,ABstudy,2022.1.4,59.92925950412129,
AB,Lag1_T1P_T2P,1,P,P,6,7,5,3,10,Pool table,Did you see the Pool table?,0.12,0.016,JPG\,tomato01,pen04b,shirt02,carrot01,lamp04a,pooltable,stapler06,avocado01,sewingmachine01a,apple07,blankImage,blankImage,blankImage,blankImage,blankImage,blankImage,blankImage,pooltable,,,,,,,,,,,,0,15,15,29,,,,,,,,,,,,,,,,,,,,,,,,,,,,,,,,,,,281.0935572999879,282.10166259999096,282.0850531999895,282.6699004999973,282.6699004999973,None,283.88059319999593,None,left,0.9936231000028783,283.88059319999593,None,284.90437929998734,None,left,0.8978471000154968,284.90437929998734,None,,,,,,,,,,,,,,,,,,,,,,,PPT19,001,2022-06-30_15h07.06.222,ABstudy,2022.1.4,59.92925950412129,
AB,Lag5_T1A_T2P,5,A,P,8,13,7,3,16,ladder,Did you see the ladder?,0.12,0.016,JPG\,apple07,toiletpaper01a,pizza,dandelion,greenolive,eraser,microscope,violin,orange,lipstick02a,balloon01b,sandal,stapler01,fan,book01b,sewingmachine01a,blankImage,ostrich,,,,,,,,,,,,0,16,16,269,,,,,,,,,,,,,,,,,,,,,,,,,,,,,,,,,,,285.834950199991,286.83974489998946,286.80651899999066,287.3823932999949,287.3823932999949,None,289.34077919999254,None,right,2.1738202000124147,289.34077919999254,None,291.54419689999486,None,left,0.9870440000086091,291.54419689999486,None,,,,,,,,,,,,,,,,,,,,,,,PPT19,001,2022-06-30_15h07.06.222,ABstudy,2022.1.4,59.92925950412129,
AB,Lag5_T1P_T2P,5,P,P,8,13,7,4,17,butterfly,Did you see the butterfly?,0.12,0.016,JPG\,speaker04,sewingmachine01a,eraser,violin,globe,belt02a,sunglasses04,butterfly,cd,greenolive,alligator,pear01,stapler01,screwdriver04b,banana01,cigarette,blankImage,butterfly,,,,,,,,,,,,0,17,17,126,,,,,,,,,,,,,,,,,,,,,,,,,,,,,,,,,,,292.56414249999216,293.57953999999154,293.546188399996,294.1333430999948,294.1333430999948,None,296.0798470000009,None,left,4.913876600010553,296.0798470000009,None,301.0207110999909,None,left,0.31020810002519283,301.0207110999909,None,,,,,,,,,,,,,,,,,,,,,,,PPT19,001,2022-06-30_15h07.06.222,ABstudy,2022.1.4,59.92925950412129,
AB,Lag1_T1A_T2P,1,A,P,7,8,6,3,11,lion,Did you see the lion?,0.12,0.016,JPG\,sock01a,spoon01,alligator,comb02a,printer02,medal02b,lamp04a,stapler01,greenolive,computerkeyboard02,cauliflower01,blankImage,blankImage,blankImage,blankImage,blankImage,blankImage,bullet,,,,,,,,,,,,0,18,18,229,,,,,,,,,,,,,,,,,,,,,,,,,,,,,,,,,,,301.3579067999963,302.3718422999955,302.35534939999343,302.99696729998686,302.9155415999994,None,304.261376999988,None,right,1.0446688000083668,304.261376999988,None,305.32585349999135,None,left,0.8758232000109274,305.32585349999135,None,,,,,,,,,,,,,,,,,,,,,,,PPT19,001,2022-06-30_15h07.06.222,ABstudy,2022.1.4,59.92925950412129,
AB,Lag1_T1P_T2P,1,P,P,6,7,5,4,11,bowling pin,Did you see the bowling pin?,0.12,0.016,JPG\,strawberry,leaf02a,clock04,candle01,avocado01,bowlingpin,stapler03a,brownsugar,ring01,lemon02,fork03c,blankImage,blankImage,blankImage,blankImage,blankImage,blankImage,bowlingpin,,,,,,,,,,,,0,19,19,8,,,,,,,,,,,,,,,,,,,,,,,,,,,,,,,,,,,306.2275451999885,307.2430197999929,307.2096079999901,307.7831479999877,307.7831479999877,None,309.1176048999914,None,left,1.50037640001392,309.1176048999914,None,310.6469847999979,None,right,0.42692160001024604,310.6469847999979,None,,,,,,,,,,,,,,,,,,,,,,,PPT19,001,2022-06-30_15h07.06.222,ABstudy,2022.1.4,59.92925950412129,
AB,Lag5_T1P_T2P,5,P,P,6,11,5,4,15,saxophone,Did you see the saxophone?,0.12,0.016,JPG\,pizza,strawberry,potato02b,speaker04,battery02b,saxophone,dice05a,cellphone,globe,banana01,stapler03b,baseball01a,toaster01,broom01,ring01,blankImage,blankImage,saxophone,,,,,,,,,,,,0,20,20,117,,,,,,,,,,,,,,,,,,,,,,,,,,,,,,,,,,,311.10407029998896,312.1153188999888,312.09988179999345,312.73181009999826,312.73181009999826,None,314.47273529999075,None,left,1.0809473000117578,314.47273529999075,None,315.5850547999871,None,left,0.4101148000045214,315.5850547999871,None,,,,,,,,,,,,,,,,,,,,,,,PPT19,001,2022-06-30_15h07.06.222,ABstudy,2022.1.4,59.92925950412129,
AB,Lag5_T1A_T2P,5,A,P,5,10,4,5,15,Sushi,Did you see the Sushi?,0.12,0.016,JPG\,pineapple01a,leaf02a,grape01,toiletpaper01a,match,tennisball01b,spoon01,chain01,pig,stapler04b,ring01,lemon02,dice05a,pizza,potato02b,blankImage,blankImage,crown,,,,,,,,,,,,0,21,21,285,,,,,,,,,,,,,,,,,,,,,,,,,,,,,,,,,,,316.0246511999867,317.0368863999902,317.0214372999908,317.64318189999904,317.64318189999904,None,319.4304906999896,None,right,1.0594450000062352,319.4304906999896,None,320.50812099999166,None,right,0.7511600000143517,320.50812099999166,None,,,,,,,,,,,,,,,,,,,,,,,PPT19,001,2022-06-30_15h07.06.222,ABstudy,2022.1.4,59.92925950412129,
AB,Lag1_T1A_T2P,1,A,P,7,8,6,5,13,Ant,Did you see the Ant?,0.12,0.016,JPG\,rice,watermelon01,tableknife02,scarf,computerkeyboard02,cauliflower01,battery02b,stapler03b,book01b,sandal,sponge01,microscope,tomato01,blankImage,blankImage,blankImage,blankImage,sandcastle,,,,,,,,,,,,0,22,22,242,,,,,,,,,,,,,,,,,,,,,,,,,,,,,,,,,,,321.3608233999985,322.3750607999973,322.35836429998744,322.9403597999917,322.9403597999917,None,324.45833459999994,None,right,0.9433562000049278,324.45833459999994,None,325.4282880999963,None,left,0.6696260000171605,325.4282880999963,None,,,,,,,,,,,,,,,,,,,,,,,PPT19,001,2022-06-30_15h07.06.222,ABstudy,2022.1.4,59.92925950412129,
AB,Lag5_T1P_T2A,5,P,A,8,13,7,3,16,Shelves,Did you see the Shelves?,0.12,0.016,JPG\,pineapple01a,leaf02a,grape01,toiletpaper01a,match,tennisball01b,spoon01,shelves,pig,measuringcup01,ring01,lemon02,dice05a,pizza,potato02b,eraser,blankImage,shelves,,,,,,,,,,,,0,23,23,222,,,,,,,,,,,,,,,,,,,,,,,,,,,,,,,,,,,326.13112869999895,327.13027369999327,327.11491429999296,327.71610689999943,327.71610689999943,None,329.7407552999939,None,left,1.6610695000126725,329.7407552999939,None,331.4342326999904,None,right,0.40023790001578163,331.4342326999904,None,,,,,,,,,,,,,,,,,,,,,,,PPT19,001,2022-06-30_15h07.06.222,ABstudy,2022.1.4,59.92925950412129,
AB,Lag5_T1A_T2A,5,A,A,5,10,4,5,15,flower,Did you see the flower?,0.12,0.016,JPG\,clock01a,cellphone,toaster01,toothbrush03b,cauliflower01,microscope,comb02a,paintbrush01,scarf,clock04,sponge01,iron01b,watch02a,celery,ring01,blankImage,blankImage,stepladder,,,,,,,,,,,,0,24,24,303,,,,,,,,,,,,,,,,,,,,,,,,,,,,,,,,,,,331.85350139999355,332.86903649999294,332.83563629999117,333.42020489998686,333.42020489998686,None,335.23437959999137,None,right,1.2564635000162525,335.23437959999137,None,336.52229879998777,None,right,0.6073130000149831,336.52229879998777,None,,,,,,,,,,,,,,,,,,,,,,,PPT19,001,2022-06-30_15h07.06.222,ABstudy,2022.1.4,59.92925950412129,
AB,Lag5_T1A_T2P,5,A,P,5,10,4,3,13,License Plate,Did you see the License Plate?,0.12,0.016,JPG\,tomato01,pen04b,shirt02,carrot01,lamp04a,key01,pizza,avocado01,sewingmachine01a,stapler06,iron01b,book01b,chain01,blankImage,blankImage,blankImage,blankImage,porcupine,,,,,,,,,,,,0,25,25,270,,,,,,,,,,,,,,,,,,,,,,,,,,,,,,,,,,,337.15935360000003,338.1742235999991,338.14093239999784,338.71224199999415,338.71224199999415,None,340.3841670999973,None,right,0.929365100004361,340.3841670999973,None,341.3437488999916,None,left,0.6108069000038086,341.3437488999916,None,,,,,,,,,,,,,,,,,,,,,,,PPT19,001,2022-06-30_15h07.06.222,ABstudy,2022.1.4,59.92925950412129,
AB,Lag1_T1P_T2A,1,P,A,7,8,6,3,11,fish,Did you see the fish?,0.12,0.016,JPG\,rice,watermelon01,tableknife02,scarf,computerkeyboard02,cauliflower01,salmon,binoculars01b,book01b,sandal,sponge01,blankImage,blankImage,blankImage,blankImage,blankImage,blankImage,salmon,,,,,,,,,,,,0,26,26,179,,,,,,,,,,,,,,,,,,,,,,,,,,,,,,,,,,,341.9798840000003,342.995382299996,342.96203389999573,343.5884812000004,343.5884812000004,None,344.90546319998975,None,left,3.2489576000225497,344.90546319998975,None,348.1841928999929,None,right,0.6352087999985088,348.1841928999929,None,,,,,,,,,,,,,,,,,,,,,,,PPT19,001,2022-06-30_15h07.06.222,ABstudy,2022.1.4,59.92925950412129,
AB,Lag1_T1A_T2A,1,A,A,8,9,7,3,12,popcorn,Did you see the popcorn?,0.12,0.016,JPG\,brownsugar,candle01,match,printer02,broom01,balloon01b,belt02a,potato02b,computerkeyboard02,feather03a,rice,mushroom01,blankImage,blankImage,blankImage,blankImage,blankImage,banjo,,,,,,,,,,,,0,27,27,290,,,,,,,,,,,,,,,,,,,,,,,,,,,,,,,,,,,348.8569581999909,349.869151699997,349.85242019999714,350.3558275999967,350.3558275999967,None,351.97184249998827,None,left,1.7337934000097448,351.97184249998827,None,353.7235689999943,None,right,0.6143448000075296,353.7235689999943,None,,,,,,,,,,,,,,,,,,,,,,,PPT19,001,2022-06-30_15h07.06.222,ABstudy,2022.1.4,59.92925950412129,
AB,Lag5_T1P_T2P,5,P,P,7,12,6,5,17,truck,Did you see the truck?,0.12,0.016,JPG\,binoculars01b,speaker04,sandal,envelope03a,plate01b,comb02a,boxtruck,chain01,measuringcup01,key01,medal02b,stapler05,tennisball01b,pizza,cigarette,sunglasses04,blankImage,boxtruck,,,,,,,,,,,,0,28,28,166,,,,,,,,,,,,,,,,,,,,,,,,,,,,,,,,,,,354.3629084999993,355.37503450000077,355.3596738999913,355.96739289999823,355.96739289999823,None,357.8917350999982,None,left,1.0938704000145663,357.8917350999982,None,359.02567519999866,None,right,0.3679285000107484,359.02567519999866,None,,,,,,,,,,,,,,,,,,,,,,,PPT19,001,2022-06-30_15h07.06.222,ABstudy,2022.1.4,59.92925950412129,
AB,Lag1_T1A_T2P,1,A,P,8,9,7,4,13,Christmas tree,Did you see the Christmas tree?,0.12,0.016,JPG\,broom01,globe,cellphone,tableknife02,cauliflower01,scissors01,ring01,alligator,stapler03a,toaster01,cigarette,grape01,microscope,blankImage,blankImage,blankImage,blankImage,windmill,,,,,,,,,,,,0,29,29,247,,,,,,,,,,,,,,,,,,,,,,,,,,,,,,,,,,,359.4301978999865,360.4294697000005,360.4127077999874,360.9890633999894,360.9890633999894,None,362.6487434999872,None,right,3.577631200008909,362.6487434999872,None,366.25231489998987,None,left,0.5571437000180595,366.25231489998987,None,,,,,,,,,,,,,,,,,,,,,,,PPT19,001,2022-06-30_15h07.06.222,ABstudy,2022.1.4,59.92925950412129,
AB,Lag5_T1A_T2A,5,A,A,5,10,4,5,15,truck,Did you see the truck?,0.12,0.016,JPG\,pizza,printer02,medal02b,spoon01,grape01,lighter01,belt02a,watermelon01,celery,battery02b,screw02,comb02a,cauliflower01,lipstick02a,potato02b,blankImage,blankImage,postalmailbox01,,,,,,,,,,,,0,30,30,297,,,,,,,,,,,,,,,,,,,,,,,,,,,,,,,,,,,366.8412275999872,367.85370539998985,367.8369504000002,368.43115379998926,368.43115379998926,None,370.25094649998937,None,right,1.0869284000218613,370.25094649998937,None,371.3713485999906,None,right,0.3988036000082502,371.3713485999906,None,,,,,,,,,,,,,,,,,,,,,,,PPT19,001,2022-06-30_15h07.06.222,ABstudy,2022.1.4,59.92925950412129,
AB,Lag5_T1A_T2P,5,A,P,6,11,5,3,14,saxophone,Did you see the saxophone?,0.12,0.016,JPG\,globe,belt02a,sponge01,violin,fork03c,tomato01,clock01a,microscope,balloon01b,scarf,stapler03b,pen04b,brick,brownsugar,blankImage,blankImage,blankImage,microphone01,,,,,,,,,,,,0,31,31,267,,,,,,,,,,,,,,,,,,,,,,,,,,,,,,,,,,,371.80242709998856,372.80845109999063,372.7917419000005,373.37863199999265,373.37863199999265,None,375.0456125999917,None,right,0.9094047000107821,375.0456125999917,None,375.9795288999885,None,right,0.5355625000083819,375.9795288999885,None,,,,,,,,,,,,,,,,,,,,,,,PPT19,001,2022-06-30_15h07.06.222,ABstudy,2022.1.4,59.92925950412129,
AB,Lag5_T1P_T2P,5,P,P,8,13,7,5,18,popcorn,Did you see the popcorn?,0.12,0.016,JPG\,toaster01,garlic01a,hairclip03,fan,comb02a,apple07,orange,popcorn,onion,blueberry01,toiletpaper01a,fork03c,stapler06,pineapple01a,scarf,eraser,blankImage,popcorn,,,,,,,,,,,,0,32,32,155,,,,,,,,,,,,,,,,,,,,,,,,,,,,,,,,,,,376.55355789999885,377.5631917999999,377.5464590999909,378.1309337999992,378.1309337999992,None,380.0573258999939,None,right,1.5369270000082906,380.0573258999939,None,381.6172344999941,None,left,0.4483675000228686,381.6172344999941,None,,,,,,,,,,,,,,,,,,,,,,,PPT19,001,2022-06-30_15h07.06.222,ABstudy,2022.1.4,59.92925950412129,
AB,Lag1_T1A_T2P,1,A,P,5,6,4,3,9,microphone,Did you see the microphone?,0.12,0.016,JPG\,hammer01,sponge01,toaster01,cherry01,feather03a,stapler06,measuringcup01,pencil01,tennisball01b,blankImage,blankImage,blankImage,blankImage,blankImage,blankImage,blankImage,blankImage,cactus,,,,,,,,,,,,0,33,33,230,,,,,,,,,,,,,,,,,,,,,,,,,,,,,,,,,,,382.0895285000006,383.1026920000004,383.0873523999908,383.68268699999317,383.68268699999317,None,384.8487153999886,None,right,0.9533713999990141,384.8487153999886,None,385.8218046999973,None,right,0.5166085000091698,385.8218046999973,None,,,,,,,,,,,,,,,,,,,,,,,PPT19,001,2022-06-30_15h07.06.222,ABstudy,2022.1.4,59.92925950412129,
AB,Lag1_T1P_T2P,1,P,P,6,7,5,3,10,cupcake,Did you see the cupcake?,0.12,0.016,JPG\,printer02,leaf02a,cauliflower01,sock01a,brownsugar,cupcake,stapler01,orange,belt02a,shirt02,blankImage,blankImage,blankImage,blankImage,blankImage,blankImage,blankImage,cupcake,,,,,,,,,,,,0,34,34,38,,,,,,,,,,,,,,,,,,,,,,,,,,,,,,,,,,,386.36138879999635,387.3731332999887,387.3563972999982,387.9487239000009,387.9487239000009,None,389.1470946999907,None,left,1.7192880000075093,389.1470946999907,None,390.89350389999163,None,left,0.30798070001765154,390.89350389999163,None,,,,,,,,,,,,,,,,,,,,,,,PPT19,001,2022-06-30_15h07.06.222,ABstudy,2022.1.4,59.92925950412129,
AB,Lag1_T1P_T2P,1,P,P,8,9,7,4,13,Doughnut,Did you see the Doughnut?,0.12,0.016,JPG\,brick,eraser,cucumber,ashtray01,thermometer02b,binoculars01b,lipstick02a,donut,stapler01,brownsugar,battery02b,iron01b,dice05a,blankImage,blankImage,blankImage,blankImage,donut,,,,,,,,,,,,0,35,35,39,,,,,,,,,,,,,,,,,,,,,,,,,,,,,,,,,,,391.23138990000007,392.2446600999974,392.22802549999324,392.80478789999324,392.80478789999324,None,394.4457906999887,None,left,1.2838424000074156,394.4457906999887,None,395.74856739999086,None,right,0.4371864000131609,395.74856739999086,None,,,,,,,,,,,,,,,,,,,,,,,PPT19,001,2022-06-30_15h07.06.222,ABstudy,2022.1.4,59.92925950412129,
AB,Lag5_T1P_T2P,5,P,P,6,11,5,5,16,motorcycle,Did you see the motorcycle?,0.12,0.016,JPG\,cucumber,ring01,lipstick02a,microscope,violin,motorcycle,celery,lighter01,cherry01,sewingmachine01a,stapler04b,key01,binoculars01b,medal02b,watermelon01,dice05a,blankImage,motorcycle,,,,,,,,,,,,0,36,36,93,,,,,,,,,,,,,,,,,,,,,,,,,,,,,,,,,,,396.21779479998804,397.21667819999857,397.20099719999416,397.78876859998854,397.78876859998854,None,399.7325426999887,None,left,1.0534485000243876,399.7325426999887,None,400.8040312999947,None,right,1.0144463000033284,400.8040312999947,None,,,,,,,,,,,,,,,,,,,,,,,PPT19,001,2022-06-30_15h07.06.222,ABstudy,2022.1.4,59.92925950412129,
AB,Lag5_T1P_T2P,5,P,P,5,10,4,4,14,duck,Did you see the duck?,0.12,0.016,JPG\,celery,pencil01,fan,foosballtable,duck01,shirt02,potato02b,fork03c,button01,stapler03a,baseball01a,printer02,cauliflower01,dandelion,blankImage,blankImage,blankImage,duck01,,,,,,,,,,,,0,37,37,130,,,,,,,,,,,,,,,,,,,,,,,,,,,,,,,,,,,401.842338699993,402.8553814999905,402.83858820000023,403.41255829999864,403.41255829999864,None,405.0289671999926,None,left,0.7725544000131777,405.0289671999926,None,405.8251795999968,None,left,0.31241950001276564,405.8251795999968,None,,,,,,,,,,,,,,,,,,,,,,,PPT19,001,2022-06-30_15h07.06.222,ABstudy,2022.1.4,59.92925950412129,
AB,Lag5_T1P_T2P,5,P,P,6,11,5,5,16,Car,Did you see the Car?,0.12,0.016,JPG\,leaf02a,apple07,cd,pineapple01a,envelope03a,car,pig,canoftennisballs,rice,feather03a,stapler03a,balloon01b,avocado01,calculator01,watermelon01,teabag,blankImage,car,,,,,,,,,,,,0,38,38,127,,,,,,,,,,,,,,,,,,,,,,,,,,,,,,,,,,,406.16354059999867,407.1761617999873,407.1595279999892,407.74161829998775,407.74161829998775,None,409.73873639998783,None,right,0.9114869000186445,409.73873639998783,None,410.67968439999095,None,left,2.1300434000149835,410.67968439999095,None,,,,,,,,,,,,,,,,,,,,,,,PPT19,001,2022-06-30_15h07.06.222,ABstudy,2022.1.4,59.92925950412129,
AB,Lag5_T1P_T2A,5,P,A,8,13,7,4,17,knife,Did you see the knife?,0.12,0.016,JPG\,lighter01,hammer01,spoon01,chain01,cymbal,sponge01,lipstick02a,knife03,pig,watermelon01,cauliflower01,lemon02,broccoli01a,tableknife02,tennisball01b,toothbrush03b,blankImage,knife03,,,,,,,,,,,,0,39,39,214,,,,,,,,,,,,,,,,,,,,,,,,,,,,,,,,,,,412.83920649999345,413.8495695999882,413.8323890999891,414.41039569998975,414.41039569998975,None,416.3579280999984,None,left,1.9320025000051828,416.3579280999984,None,418.32079410000006,None,right,0.46495900000445545,418.32079410000006,None,,,,,,,,,,,,,,,,,,,,,,,PPT19,001,2022-06-30_15h07.06.222,ABstudy,2022.1.4,59.92925950412129,
AB,Lag5_T1P_T2P,5,P,P,6,11,5,4,15,sword,Did you see the sword?,0.12,0.016,JPG\,8ball,banana01,scissors01,pig,shirt02,broadsword,pear01,sponge01,fork03c,tableknife02,stapler06,match,toothbrush03b,birthdaycandle,candle01,blankImage,blankImage,broadsword,,,,,,,,,,,,0,40,40,167,,,,,,,,,,,,,,,,,,,,,,,,,,,,,,,,,,,418.80805589999363,419.8220558999892,419.805331999989,420.4043188999931,420.4043188999931,None,422.2187156,None,right,1.5025115000171354,422.2187156,None,423.7437873999879,None,left,1.5618659000028856,423.7437873999879,None,,,,,,,,,,,,,,,,,,,,,,,PPT19,001,2022-06-30_15h07.06.222,ABstudy,2022.1.4,59.92925950412129,
AB,Lag5_T1P_T2P,5,P,P,5,10,4,5,15,mouse,Did you see the mouse?,0.12,0.016,JPG\,pineapple01a,leaf02a,grape01,toiletpaper01a,mouse,tennisball01b,spoon01,chain01,pig,stapler03a,ring01,lemon02,dice05a,pizza,potato02b,blankImage,blankImage,mouse,,,,,,,,,,,,0,41,41,94,,,,,,,,,,,,,,,,,,,,,,,,,,,,,,,,,,,425.329382099997,426.3448664999887,426.31153149998863,426.88897789998737,426.88897789998737,None,428.74991809998755,None,left,0.5720242000097642,428.74991809998755,None,429.348751499987,None,left,0.4213261000113562,429.348751499987,None,,,,,,,,,,,,,,,,,,,,,,,PPT19,001,2022-06-30_15h07.06.222,ABstudy,2022.1.4,59.92925950412129,
AB,Lag1_T1P_T2P,1,P,P,8,9,7,4,13,peacock,Did you see the peacock?,0.12,0.016,JPG\,hammer01,sponge01,toaster01,cherry01,feather03a,mushroom01,measuringcup01,peacock,stapler03a,brick,clock04,medal02b,teabag,blankImage,blankImage,blankImage,blankImage,peacock,,,,,,,,,,,,0,42,42,68,,,,,,,,,,,,,,,,,,,,,,,,,,,,,,,,,,,429.804241299993,430.81654010000057,430.79960149999533,431.36491819999355,431.36491819999355,None,432.9905308999878,None,left,0.8834314000123413,432.9905308999878,None,433.90294139999605,None,right,0.28335780001361854,433.90294139999605,None,,,,,,,,,,,,,,,,,,,,,,,PPT19,001,2022-06-30_15h07.06.222,ABstudy,2022.1.4,59.92925950412129,
AB,Lag5_T1P_T2P,5,P,P,8,13,7,4,17,surf board,Did you see the surf board?,0.12,0.016,JPG\,candy,brownsugar,dice05a,cd,sock01a,blueberry01,button01,surfboard,feather03a,grape01,dandelion,scissors01,stapler03b,candle08b,book01b,globe,blankImage,surfboard,,,,,,,,,,,,0,43,43,142,,,,,,,,,,,,,,,,,,,,,,,,,,,,,,,,,,,434.20547659999283,435.2207758000004,435.1874930999911,435.7507786999922,435.7507786999922,None,437.7577472999983,None,right,1.6125369000073988,437.7577472999983,None,439.39422009998816,None,left,0.3993654000078095,439.39422009998816,None,,,,,,,,,,,,,,,,,,,,,,,PPT19,001,2022-06-30_15h07.06.222,ABstudy,2022.1.4,59.92925950412129,
AB,Lag5_T1P_T2A,5,P,A,5,10,4,4,14,Ship in a bottle,Did you see the Ship in a bottle?,0.12,0.016,JPG\,sewingmachine01a,thermometer02b,sponge01,eraser,shipinabottle,fork03c,pizza,violin,belt02a,medal02b,pineapple01a,tennisball01b,dandelion,cauliflower01,blankImage,blankImage,blankImage,shipinabottle,,,,,,,,,,,,0,44,44,208,,,,,,,,,,,,,,,,,,,,,,,,,,,,,,,,,,,439.8902526999882,440.89308059999894,440.8763067999971,441.4727000999992,441.4727000999992,None,443.0836119999876,None,right,3.278263000000152,443.0836119999876,None,446.38232159998734,None,right,1.0606276000180515,446.38232159998734,None,,,,,,,,,,,,,,,,,,,,,,,PPT19,001,2022-06-30_15h07.06.222,ABstudy,2022.1.4,59.92925950412129,
AB,Lag1_T1P_T2A,1,P,A,7,8,6,4,12,gorilla,Did you see the gorilla?,0.12,0.016,JPG\,scissors01,ashtray01,garlic01a,medal02b,cigarette,candle08b,gorilla,envelope03a,cucumber,rice,toiletpaper01a,greenolive,blankImage,blankImage,blankImage,blankImage,blankImage,gorilla,,,,,,,,,,,,0,45,45,189,,,,,,,,,,,,,,,,,,,,,,,,,,,,,,,,,,,447.4707231999928,448.4839831999998,448.4674260999891,449.03820119999,449.03820119999,None,450.48438850000093,None,left,1.5889777000120375,450.48438850000093,None,452.10430449999694,None,left,0.27308670000638813,452.10430449999694,None,,,,,,,,,,,,,,,,,,,,,,,PPT19,001,2022-06-30_15h07.06.222,ABstudy,2022.1.4,59.92925950412129,
AB,Lag5_T1A_T2A,5,A,A,7,12,6,4,16,Eye,Did you see the Eye?,0.12,0.016,JPG\,rice,watermelon01,tableknife02,scarf,computerkeyboard02,cauliflower01,battery02b,binoculars01b,book01b,sandal,sponge01,microscope,tomato01,fork03c,thermometer02b,apple07,blankImage,scooter,,,,,,,,,,,,0,46,46,302,,,,,,,,,,,,,,,,,,,,,,,,,,,,,,,,,,,452.4669614999875,453.4718012999947,453.4569538999931,454.03415889998723,454.03415889998723,None,455.9572329999937,None,right,0.9243580000038492,455.9572329999937,None,456.9101047999866,None,right,0.9470793000073172,456.9101047999866,None,,,,,,,,,,,,,,,,,,,,,,,PPT19,001,2022-06-30_15h07.06.222,ABstudy,2022.1.4,59.92925950412129,
AB,Lag5_T1P_T2A,5,P,A,7,12,6,5,17,corn,Did you see the corn?,0.12,0.016,JPG\,avocado01,pingpongpaddle01c,match,cauliflower01,paintbrush01,clock01a,corn02,cd,balloon01b,cellphone,watch02a,pear01,toaster01,sponge01,orange,blueberry01,blankImage,corn02,,,,,,,,,,,,0,47,47,210,,,,,,,,,,,,,,,,,,,,,,,,,,,,,,,,,,,457.88221019999764,458.89442620000045,458.87781779999204,459.47327519999817,459.47327519999817,None,461.4848672999942,None,left,2.324811200014665,461.4848672999942,None,463.8323295000009,None,right,0.2572268000076292,463.8323295000009,None,,,,,,,,,,,,,,,,,,,,,,,PPT19,001,2022-06-30_15h07.06.222,ABstudy,2022.1.4,59.92925950412129,
AB,Lag1_T1P_T2P,1,P,P,7,8,6,4,12,rooster,Did you see the rooster?,0.12,0.016,JPG\,pizza,strawberry,potato02b,speaker04,battery02b,iron01b,rooster,stapler03b,globe,banana01,medal02b,baseball01a,blankImage,blankImage,blankImage,blankImage,blankImage,rooster,,,,,,,,,,,,0,48,48,69,,,,,,,,,,,,,,,,,,,,,,,,,,,,,,,,,,,464.1163188999926,465.1174277999962,465.10061519999,465.6774849999929,465.6774849999929,None,467.1847259999922,None,left,3.416591100001824,467.1847259999922,None,470.62248589999217,None,right,0.6755159000167623,470.62248589999217,None,,,,,,,,,,,,,,,,,,,,,,,PPT19,001,2022-06-30_15h07.06.222,ABstudy,2022.1.4,59.92925950412129,
AB,Lag1_T1P_T2P,1,P,P,7,8,6,4,12,skunk,Did you see the skunk?,0.12,0.016,JPG\,fan,tomato01,candy,screwdriver04b,alligator,cd,skunk,stapler03b,button01,plate01b,brownsugar,lighter01,blankImage,blankImage,blankImage,blankImage,blankImage,skunk,,,,,,,,,,,,0,49,49,48,,,,,,,,,,,,,,,,,,,,,,,,,,,,,,,,,,,471.3253236999881,472.32418199999665,472.30766709998716,472.88595279998844,472.88595279998844,None,474.33293140000023,None,right,0.9481726000085473,474.33293140000023,None,475.3104786999902,None,left,0.7226196000119671,475.3104786999902,None,,,,,,,,,,,,,,,,,,,,,,,PPT19,001,2022-06-30_15h07.06.222,ABstudy,2022.1.4,59.92925950412129,
AB,Lag5_T1P_T2P,5,P,P,8,13,7,4,17,cruise ship,Did you see the cruise ship?,0.12,0.016,JPG\,measuringcup01,dice05a,greenolive,lipstick02a,feather03a,balloon01b,lighter01,cruiseship,carrot01,plate01b,microscope,brick,stapler05,screw02,speaker04,spoon01,blankImage,cruiseship,,,,,,,,,,,,0,50,50,105,,,,,,,,,,,,,,,,,,,,,,,,,,,,,,,,,,,476.0659502999915,477.0791970999999,477.0626455999882,477.66010519998963,477.66010519998963,None,479.58297129999846,None,left,1.0101295000204118,479.58297129999846,None,480.6170080999873,None,right,0.5042167000210611,480.6170080999873,None,,,,,,,,,,,,,,,,,,,,,,,PPT19,001,2022-06-30_15h07.06.222,ABstudy,2022.1.4,59.92925950412129,
AB,Lag5_T1P_T2A,5,P,A,8,13,7,5,18,Nunchuks,Did you see the Nunchuks?,0.12,0.016,JPG\,celery,tennisball01b,calculator01,pear01,screw02,orange,button01,nunchuk,onion,apple07,iron01b,brownsugar,banana01,paintbrush01,dandelion,toothbrush03b,blankImage,nunchuk,,,,,,,,,,,,0,51,51,218,,,,,,,,,,,,,,,,,,,,,,,,,,,,,,,,,,,481.1605925999902,482.167111799994,482.1504421999998,482.72690709999006,482.72690709999006,None,484.654171999995,None,left,1.586811300003319,484.654171999995,None,486.27166719999514,None,right,0.3453101000195602,486.27166719999514,None,,,,,,,,,,,,,,,,,,,,,,,PPT19,001,2022-06-30_15h07.06.222,ABstudy,2022.1.4,59.92925950412129,
AB,Lag5_T1A_T2P,5,A,P,5,10,4,4,14,duck,Did you see the duck?,0.12,0.016,JPG\,brick,eraser,cucumber,ashtray01,thermometer02b,binoculars01b,lipstick02a,screwdriver04b,grape01,stapler04b,battery02b,iron01b,dice05a,avocado01,blankImage,blankImage,blankImage,barrel01,,,,,,,,,,,,0,52,52,280,,,,,,,,,,,,,,,,,,,,,,,,,,,,,,,,,,,486.6438092999888,487.65625159999763,487.63959759999125,488.23236069999984,488.23236069999984,None,489.9686832999869,None,right,2.0173291000246536,489.9686832999869,None,492.010408999995,None,left,0.9356334000185598,492.010408999995,None,,,,,,,,,,,,,,,,,,,,,,,PPT19,001,2022-06-30_15h07.06.222,ABstudy,2022.1.4,59.92925950412129,
AB,Lag1_T1P_T2P,1,P,P,8,9,7,3,12,apron,Did you see the apron?,0.12,0.016,JPG\,avocado01,tambourine02,match,cauliflower01,paintbrush01,clock01a,pig,apron,stapler03a,cellphone,watch02a,pear01,blankImage,blankImage,blankImage,blankImage,blankImage,apron,,,,,,,,,,,,0,53,53,32,,,,,,,,,,,,,,,,,,,,,,,,,,,,,,,,,,,493.03223259998776,494.04597269999795,494.02927989998716,494.6268022999866,494.6268022999866,None,496.0399783999892,None,left,1.0023541000118712,496.0399783999892,None,497.06541769999603,None,right,0.2637402000109432,497.06541769999603,None,,,,,,,,,,,,,,,,,,,,,,,PPT19,001,2022-06-30_15h07.06.222,ABstudy,2022.1.4,59.92925950412129,
AB,Lag1_T1P_T2P,1,P,P,6,7,5,5,12,snowman,Did you see the snowman?,0.12,0.016,JPG\,comb02a,watch02a,scissors01,dice05a,tableknife02,snowman,stapler03a,printer02,dandelion,spoon01,ashtray01,battery02b,blankImage,blankImage,blankImage,blankImage,blankImage,snowman,,,,,,,,,,,,0,54,54,4,,,,,,,,,,,,,,,,,,,,,,,,,,,,,,,,,,,497.35144389999914,498.3667320999957,498.3333630999987,498.9116253999964,498.9116253999964,None,500.4635646999959,None,left,0.8256983000173932,500.4635646999959,None,501.3199910999974,None,right,0.24253640000824817,501.3199910999974,None,,,,,,,,,,,,,,,,,,,,,,,PPT19,001,2022-06-30_15h07.06.222,ABstudy,2022.1.4,59.92925950412129,
AB,Lag5_T1A_T2P,5,A,P,7,12,6,4,16,church,Did you see the church?,0.12,0.016,JPG\,printer02,leaf02a,cauliflower01,sock01a,brownsugar,paintbrush01,pig,orange,belt02a,shirt02,key01,stapler06,cigarette,scissors01,envelope03a,blueberry01,blankImage,ant,,,,,,,,,,,,0,55,55,279,,,,,,,,,,,,,,,,,,,,,,,,,,,,,,,,,,,501.59127859999717,502.6046853999869,502.5877971000009,503.16677559999516,503.16677559999516,None,505.1059576999978,None,right,1.0555960000201594,505.1059576999978,None,506.19150299999455,None,right,1.2509171000128845,506.19150299999455,None,,,,,,,,,,,,,,,,,,,,,,,PPT19,001,2022-06-30_15h07.06.222,ABstudy,2022.1.4,59.92925950412129,
AB,Lag1_T1P_T2P,1,P,P,6,7,5,4,11,American football,Did you see the American football?,0.12,0.016,JPG\,toaster01,garlic01a,faucet,fan,comb02a,football,stapler06,watch02a,onion,blueberry01,toiletpaper01a,blankImage,blankImage,blankImage,blankImage,blankImage,blankImage,football,,,,,,,,,,,,0,56,56,12,,,,,,,,,,,,,,,,,,,,,,,,,,,,,,,,,,,507.46710449999955,508.4770159999898,508.4603395999875,509.0968001000001,509.0968001000001,None,510.38003919999755,None,left,1.0288390000059735,510.38003919999755,None,511.43013449999853,None,right,0.24359570001251996,511.43013449999853,None,,,,,,,,,,,,,,,,,,,,,,,PPT19,001,2022-06-30_15h07.06.222,ABstudy,2022.1.4,59.92925950412129,
AB,Lag1_T1A_T2A,1,A,A,8,9,7,4,13,sword fish,Did you see the sword fish?,0.12,0.016,JPG\,pizza,strawberry,potato02b,speaker04,battery02b,iron01b,dice05a,cellphone,globe,banana01,medal02b,baseball01a,toaster01,blankImage,blankImage,blankImage,blankImage,ear,,,,,,,,,,,,0,57,57,295,,,,,,,,,,,,,,,,,,,,,,,,,,,,,,,,,,,511.7023713999952,512.7146148999891,512.6978850999876,513.3041042999976,513.3041042999976,None,514.8648102999869,None,right,1.2408106000220869,514.8648102999869,None,516.1344590999943,None,right,0.7072165999998106,516.1344590999943,None,,,,,,,,,,,,,,,,,,,,,,,PPT19,001,2022-06-30_15h07.06.222,ABstudy,2022.1.4,59.92925950412129,
AB,Lag1_T1P_T2P,1,P,P,7,8,6,3,11,harmonica,Did you see the harmonica?,0.12,0.016,JPG\,cucumber,ring01,lipstick02a,microscope,violin,garlic01a,harmonica,stapler03b,cherry01,sewingmachine01a,belt02a,blankImage,blankImage,blankImage,blankImage,blankImage,blankImage,harmonica,,,,,,,,,,,,0,58,58,43,,,,,,,,,,,,,,,,,,,,,,,,,,,,,,,,,,,516.8706687999947,517.8861781999876,517.8527888999961,518.437668899991,518.437668899991,None,519.8103934999963,None,right,2.191268600014155,519.8103934999963,None,522.0240663000004,None,left,1.1861565000144765,522.0240663000004,None,,,,,,,,,,,,,,,,,,,,,,,PPT19,001,2022-06-30_15h07.06.222,ABstudy,2022.1.4,59.92925950412129,
AB,Lag5_T1P_T2P,5,P,P,7,12,6,5,17,American football helmet,Did you see the American football helmet?,0.12,0.016,JPG\,alligator,banana01,apple07,tomato01,button01,spoon01,footballhelmet,fork03c,slipper03b,potato02b,grape01,stapler03b,teabag,screwdriver04b,hammer01,tennisball01b,blankImage,footballhelmet,,,,,,,,,,,,0,59,59,148,,,,,,,,,,,,,,,,,,,,,,,,,,,,,,,,,,,523.2491292999912,524.2593881999928,524.2427052999992,524.7427829999942,524.7427829999942,None,526.7614532000007,None,left,0.8957674000121187,526.7614532000007,None,527.6805427999934,None,right,0.6247637000051327,527.6805427999934,None,,,,,,,,,,,,,,,,,,,,,,,PPT19,001,2022-06-30_15h07.06.222,ABstudy,2022.1.4,59.92925950412129,
AB,Lag5_T1P_T2P,5,P,P,6,11,5,4,15,boxing glove,Did you see the boxing glove?,0.12,0.016,JPG\,button01,celery,birthdaycandle,apple07,avocado01,boxingglove01,dice05a,teabag,clock01a,feather03a,stapler06,scarf,orange,battery02b,thermometer02b,blankImage,blankImage,boxingglove01,,,,,,,,,,,,0,60,60,165,,,,,,,,,,,,,,,,,,,,,,,,,,,,,,,,,,,528.3981297999999,529.3978784999927,529.3811480999866,529.9781071999896,529.9781071999896,None,531.6947071999894,None,left,1.8667507000063779,531.6947071999894,None,533.5851913999941,None,left,0.5599496000213549,533.5851913999941,None,,,,,,,,,,,,,,,,,,,,,,,PPT19,001,2022-06-30_15h07.06.222,ABstudy,2022.1.4,59.92925950412129,
AB,Lag5_T1P_T2P,5,P,P,8,13,7,3,16,church,Did you see the church?,0.12,0.016,JPG\,clock01a,cellphone,toaster01,toothbrush03b,cauliflower01,microscope,comb02a,church,scarf,clock04,sponge01,iron01b,stapler06,celery,ring01,ashtray01,blankImage,church,,,,,,,,,,,,0,61,61,129,,,,,,,,,,,,,,,,,,,,,,,,,,,,,,,,,,,534.171434799995,535.1867778999876,535.1533567999868,535.7342374,535.7342374,None,537.737288999997,None,left,0.569037200009916,537.737288999997,None,538.3232226999971,None,left,0.31119890000263695,538.3232226999971,None,,,,,,,,,,,,,,,,,,,,,,,PPT19,001,2022-06-30_15h07.06.222,ABstudy,2022.1.4,59.92925950412129,
AB,Lag1_T1P_T2A,1,P,A,8,9,7,5,14,Ceiling fan,Did you see the Ceiling fan?,0.12,0.016,JPG\,cucumber,sponge01,alligator,pear01,ashtray01,hammer01,clock04,ceilingfan01,fork03c,binoculars01b,mushroom01,broccoli01a,leaf02a,acorn,blankImage,blankImage,blankImage,ceilingfan01,,,,,,,,,,,,0,62,62,183,,,,,,,,,,,,,,,,,,,,,,,,,,,,,,,,,,,538.6637797000003,539.6748043999978,539.6580670999974,540.2380959000002,540.2380959000002,None,541.8536563999951,None,left,1.0278733000013744,541.8536563999951,None,542.9141380999936,None,right,0.2634146000054898,542.9141380999936,None,,,,,,,,,,,,,,,,,,,,,,,PPT19,001,2022-06-30_15h07.06.222,ABstudy,2022.1.4,59.92925950412129,
AB,Lag5_T1P_T2A,5,P,A,5,10,4,3,13,pin,Did you see the pin?,0.12,0.016,JPG\,candle01,fork03c,plate01b,violin,pin,candy,calculator01,paintbrush01,cherry01,sock01a,teabag,banana01,cd,blankImage,blankImage,blankImage,blankImage,pin,,,,,,,,,,,,0,63,63,215,,,,,,,,,,,,,,,,,,,,,,,,,,,,,,,,,,,543.2064344999962,544.2130376999994,544.1976292999898,544.7977985999896,544.7977985999896,None,546.4128889999993,None,right,1.0763844000175595,546.4128889999993,None,547.5162515999982,None,right,0.5969177000079071,547.5162515999982,None,,,,,,,,,,,,,,,,,,,,,,,PPT19,001,2022-06-30_15h07.06.222,ABstudy,2022.1.4,59.92925950412129,
AB,Lag5_T1P_T2A,5,P,A,5,10,4,4,14,rocket,Did you see the rocket?,0.12,0.016,JPG\,fan,tomato01,candy,screwdriver04b,spacerocket,cd,thermometer02b,apple07,button01,plate01b,brownsugar,lighter01,clock01a,envelope03a,blankImage,blankImage,blankImage,spacerocket,,,,,,,,,,,,0,64,64,226,,,,,,,,,,,,,,,,,,,,,,,,,,,,,,,,,,,548.1400869999925,549.1512996999954,549.1359236999997,549.7431204999884,549.7431204999884,None,551.485329099989,None,left,1.0285411000077147,551.485329099989,None,552.5371400999866,None,right,0.31169680001039524,552.5371400999866,None,,,,,,,,,,,,,,,,,,,,,,,PPT19,001,2022-06-30_15h07.06.222,ABstudy,2022.1.4,59.92925950412129,
AB,Lag5_T1P_T2P,5,P,P,8,13,7,5,18,Ping pong Table,Did you see the Ping pong Table?,0.12,0.016,JPG\,shirt02,match,screw02,foosballtable,blueberry01,pineapple01a,sewingmachine01a,pingpongtable,button01,comb02a,dice05a,measuringcup01,stapler04b,printer02,carrot01,watermelon01,blankImage,pingpongtable,,,,,,,,,,,,0,65,65,152,,,,,,,,,,,,,,,,,,,,,,,,,,,,,,,,,,,552.9203337999934,553.9220926999988,553.9054255999945,554.4941652999987,554.4941652999987,None,556.4100801999884,None,left,0.7591970000066794,556.4100801999884,None,557.1919247999904,None,left,0.43368900001223665,557.1919247999904,None,,,,,,,,,,,,,,,,,,,,,,,PPT19,001,2022-06-30_15h07.06.222,ABstudy,2022.1.4,59.92925950412129,
AB,Lag5_T1P_T2P,5,P,P,6,11,5,3,14,ladder,Did you see the ladder?,0.12,0.016,JPG\,celery,orange,scissors01,balloon01b,avocado01,stepladder,mushroom01,sewingmachine01a,lighter01,dice05a,stapler01,fan,cd,sock01a,blankImage,blankImage,blankImage,stepladder,,,,,,,,,,,,0,66,66,119,,,,,,,,,,,,,,,,,,,,,,,,,,,,,,,,,,,557.644589699994,558.6601057999942,558.6267584999878,559.2024025999999,559.2024025999999,None,560.9799105999991,None,left,0.47741120000137016,560.9799105999991,None,561.481529599987,None,left,0.31951100000878796,561.481529599987,None,,,,,,,,,,,,,,,,,,,,,,,PPT19,001,2022-06-30_15h07.06.222,ABstudy,2022.1.4,59.92925950412129,
AB,Lag1_T1A_T2P,1,A,P,8,9,7,4,13,Toolbox,Did you see the Toolbox?,0.12,0.016,JPG\,pizza,printer02,medal02b,spoon01,grape01,lighter01,belt02a,watermelon01,stapler03b,battery02b,screw02,comb02a,cauliflower01,blankImage,blankImage,blankImage,blankImage,ladybug03,,,,,,,,,,,,0,67,67,237,,,,,,,,,,,,,,,,,,,,,,,,,,,,,,,,,,,561.8376624999946,562.8479456999921,562.8310558999947,563.41792729999,563.41792729999,None,565.0013735999964,None,right,0.8482333000138169,565.0013735999964,None,565.881687999994,None,right,0.5433337000140455,565.881687999994,None,,,,,,,,,,,,,,,,,,,,,,,PPT19,001,2022-06-30_15h07.06.222,ABstudy,2022.1.4,59.92925950412129,
AB,Lag5_T1P_T2P,5,P,P,5,10,4,5,15,Safe,Did you see the Safe?,0.12,0.016,JPG\,candle01,shirt02,brick,orange,safe,toothbrush03b,pizza,thermometer02b,book01b,stapler01,sewingmachine01a,toaster01,candy,cymbal,potato02b,blankImage,blankImage,safe,,,,,,,,,,,,0,68,68,159,,,,,,,,,,,,,,,,,,,,,,,,,,,,,,,,,,,566.4643603000004,567.4694866999926,567.4541843999905,568.0383166999964,568.0383166999964,None,569.8902146999899,None,left,0.8393154000223149,569.8902146999899,None,570.7556889999978,None,left,0.3349931000120705,570.7556889999978,None,,,,,,,,,,,,,,,,,,,,,,,PPT19,001,2022-06-30_15h07.06.222,ABstudy,2022.1.4,59.92925950412129,
AB,Lag5_T1P_T2P,5,P,P,8,13,7,5,18,skis,Did you see the skis?,0.12,0.016,JPG\,tennisball01b,paintbrush01,medal02b,apple07,speaker04,iron01b,avocado01,downhillski,belt02a,toiletpaper01a,watermelon01,candle01,stapler01,cymbal,ashtray01,screwdriver04b,blankImage,downhillski,,,,,,,,,,,,0,69,69,106,,,,,,,,,,,,,,,,,,,,,,,,,,,,,,,,,,,571.1272464999929,572.1403891999944,572.1237948999915,572.7321502999985,572.7321502999985,None,574.6329810999887,None,left,1.5602529000025243,574.6329810999887,None,576.2253618999966,None,left,0.8960314000141807,576.2253618999966,None,,,,,,,,,,,,,,,,,,,,,,,PPT19,001,2022-06-30_15h07.06.222,ABstudy,2022.1.4,59.92925950412129,
AB,Lag1_T1P_T2P,1,P,P,5,6,4,5,11,Guitar case,Did you see the Guitar case?,0.12,0.016,JPG\,broccoli01a,scissors01,toothbrush03b,foosballtable,guitarcase,stapler05,hammer01,toiletpaper01a,cd,garlic01a,carrot01,blankImage,blankImage,blankImage,blankImage,blankImage,blankImage,guitarcase,,,,,,,,,,,,0,70,70,14,,,,,,,,,,,,,,,,,,,,,,,,,,,,,,,,,,,577.153550899995,578.1632138999994,578.1462152999884,578.7339348999958,578.7339348999958,None,580.0558344999881,None,left,1.3209002000221517,580.0558344999881,None,581.3994284999935,None,right,1.0103565000172239,581.3994284999935,None,,,,,,,,,,,,,,,,,,,,,,,PPT19,001,2022-06-30_15h07.06.222,ABstudy,2022.1.4,59.92925950412129,
AB,Lag1_T1P_T2P,1,P,P,8,9,7,5,14,bullet,Did you see the bullet?,0.12,0.016,JPG\,measuringcup01,dice05a,greenolive,lipstick02a,feather03a,balloon01b,lighter01,bullet,stapler04b,plate01b,microscope,brick,thermometer02b,screw02,blankImage,blankImage,blankImage,bullet,,,,,,,,,,,,0,71,71,57,,,,,,,,,,,,,,,,,,,,,,,,,,,,,,,,,,,582.4359895999951,583.4514744999906,583.418127500001,584.0002935999946,584.0002935999946,None,585.6847290000005,None,left,0.6046066000126302,585.6847290000005,None,586.3212967,None,left,0.376678600005107,586.3212967,None,,,,,,,,,,,,,,,,,,,,,,,PPT19,001,2022-06-30_15h07.06.222,ABstudy,2022.1.4,59.92925950412129,
AB,Lag5_T1P_T2P,5,P,P,8,13,7,5,18,spice rack,Did you see the spice rack?,0.12,0.016,JPG\,lamp04a,broccoli01a,alligator,garlic01a,dandelion,brownsugar,avocado01,spicerack,leaf02a,cellphone,medal02b,cd,stapler05,sunglasses04,strawberry,eraser,blankImage,spicerack,,,,,,,,,,,,0,72,72,140,,,,,,,,,,,,,,,,,,,,,,,,,,,,,,,,,,,586.775945699992,587.7893616999936,587.7725493999897,588.3515715999965,588.3515715999965,None,590.2154086999944,None,right,1.2820463000098243,590.2154086999944,None,591.526071299988,None,left,0.370512300010887,591.526071299988,None,,,,,,,,,,,,,,,,,,,,,,,PPT19,001,2022-06-30_15h07.06.222,ABstudy,2022.1.4,59.92925950412129,
AB,Lag5_T1P_T2P,5,P,P,8,13,7,3,16,parachute,Did you see the parachute?,0.12,0.016,JPG\,brick,plate01b,pen04b,toaster01,screwdriver04b,candle01,envelope03a,parachute,pig,ring01,orange,clock01a,stapler03b,calculator01,mushroom01,chain01,blankImage,parachute,,,,,,,,,,,,0,73,73,114,,,,,,,,,,,,,,,,,,,,,,,,,,,,,,,,,,,591.9291545999877,592.9441626999906,592.9108491999941,593.5047000999912,593.5047000999912,None,595.4554325999925,None,left,1.681625700002769,595.4554325999925,None,597.1649878999888,None,right,0.44391000001633074,597.1649878999888,None,,,,,,,,,,,,,,,,,,,,,,,PPT19,001,2022-06-30_15h07.06.222,ABstudy,2022.1.4,59.92925950412129,
AB,Lag1_T1P_T2P,1,P,P,8,9,7,3,12,Sheep,Did you see the Sheep?,0.12,0.016,JPG\,celery,orange,scissors01,balloon01b,avocado01,printer02,mushroom01,sheep,stapler03b,dice05a,ashtray01,fan,blankImage,blankImage,blankImage,blankImage,blankImage,sheep,,,,,,,,,,,,0,74,74,71,,,,,,,,,,,,,,,,,,,,,,,,,,,,,,,,,,,597.6342470999953,598.6497441999963,598.6163983999868,599.191207099997,599.191207099997,None,600.6640227999887,None,left,1.8976304000098025,600.6640227999887,None,602.5870069999946,None,left,0.26246730001003016,602.5870069999946,None,,,,,,,,,,,,,,,,,,,,,,,PPT19,001,2022-06-30_15h07.06.222,ABstudy,2022.1.4,59.92925950412129,
AB,Lag1_T1P_T2P,1,P,P,7,8,6,3,11,Moose,Did you see the Moose?,0.12,0.016,JPG\,sock01a,spoon01,alligator,comb02a,printer02,medal02b,moose,stapler03a,greenolive,computerkeyboard02,cauliflower01,blankImage,blankImage,blankImage,blankImage,blankImage,blankImage,moose,,,,,,,,,,,,0,75,75,67,,,,,,,,,,,,,,,,,,,,,,,,,,,,,,,,,,,602.8727777999884,603.8883143999992,603.8549305999913,604.4328370999865,604.4328370999865,None,605.7869522999972,None,left,1.406448800000362,605.7869522999972,None,607.2254305999959,None,left,0.17621270001109224,607.2254305999959,None,,,,,,,,,,,,,,,,,,,,,,,PPT19,001,2022-06-30_15h07.06.222,ABstudy,2022.1.4,59.92925950412129,
AB,Lag1_T1P_T2P,1,P,P,7,8,6,4,12,cow,Did you see the cow?,0.12,0.016,JPG\,fork03c,plate01b,toiletpaper01a,greenolive,rice,blueberry01,cow,stapler01,envelope03a,orange,book01b,pencil01,blankImage,blankImage,blankImage,blankImage,blankImage,cow,,,,,,,,,,,,0,76,76,59,,,,,,,,,,,,,,,,,,,,,,,,,,,,,,,,,,,607.429595900001,608.4434157999931,608.4100770999939,608.9690910999925,608.9690910999925,None,610.473438999994,None,left,0.5997310000093421,610.473438999994,None,611.0961087999895,None,left,0.21793430000252556,611.0961087999895,None,,,,,,,,,,,,,,,,,,,,,,,PPT19,001,2022-06-30_15h07.06.222,ABstudy,2022.1.4,59.92925950412129,
AB,Lag1_T1P_T2A,1,P,A,6,7,5,5,12,Tombstone,Did you see the Tombstone?,0.12,0.016,JPG\,cigarette,ashtray01,envelope03a,sandal,chain01,tombstone,broccoli01a,tomato01,dandelion,candle01,lemon02,button01,blankImage,blankImage,blankImage,blankImage,blankImage,tombstone,,,,,,,,,,,,0,77,77,196,,,,,,,,,,,,,,,,,,,,,,,,,,,,,,,,,,,611.3512330999947,612.3638779999892,612.3472159999947,612.9214557999949,612.9214557999949,None,614.4296777999989,None,left,0.9948641000082716,614.4296777999989,None,615.4511261999869,None,right,0.19039129999873694,615.4511261999869,None,,,,,,,,,,,,,,,,,,,,,,,PPT19,001,2022-06-30_15h07.06.222,ABstudy,2022.1.4,59.92925950412129,
AB,Lag5_T1P_T2P,5,P,P,8,13,7,4,17,trumpet,Did you see the trumpet?,0.12,0.016,JPG\,toaster01,scarf,toiletpaper01a,calculator01,violin,sewingmachine01a,fan,trumpet,strawberry,balloon01b,brownsugar,eraser,stapler01,rice,ring01,shirt02,blankImage,trumpet,,,,,,,,,,,,0,78,78,145,,,,,,,,,,,,,,,,,,,,,,,,,,,,,,,,,,,615.6752373999916,616.6848038999888,616.668296399992,617.2700669999904,617.2700669999904,None,619.1951546999917,None,right,1.6704003000049852,619.1951546999917,None,620.889305299992,None,right,0.752168300023186,620.889305299992,None,,,,,,,,,,,,,,,,,,,,,,,PPT19,001,2022-06-30_15h07.06.222,ABstudy,2022.1.4,59.92925950412129,
AB,Lag5_T1P_T2P,5,P,P,8,13,7,5,18,bed,Did you see the bed?,0.12,0.016,JPG\,pencil01,broccoli01a,button01,sponge01,watermelon01,lipstick02a,comb02a,bed,lighter01,sock01a,spoon01,blueberry01,stapler04b,onion,grape01,avocado01,blankImage,bed,,,,,,,,,,,,0,79,79,124,,,,,,,,,,,,,,,,,,,,,,,,,,,,,,,,,,,621.6764562999888,622.6907820999913,622.674087899999,623.2660642999981,623.2660642999981,None,625.170838799997,None,left,0.7023691000213148,625.170838799997,None,625.8936863999988,None,left,0.24343240000598598,625.8936863999988,None,,,,,,,,,,,,,,,,,,,,,,,PPT19,001,2022-06-30_15h07.06.222,ABstudy,2022.1.4,59.92925950412129,
AB,Lag1_T1P_T2P,1,P,P,6,7,5,3,10,jelly beans,Did you see the jelly beans?,0.12,0.016,JPG\,lipstick02a,cucumber,candle08b,printer02,grape01,jellybean,stapler01,lighter01,belt02a,balloon01b,blankImage,blankImage,blankImage,blankImage,blankImage,blankImage,blankImage,jellybean,,,,,,,,,,,,0,80,80,15,,,,,,,,,,,,,,,,,,,,,,,,,,,,,,,,,,,626.1676724999998,627.1783510999958,627.1616937999934,627.733077500001,627.733077500001,None,628.9454488999909,None,left,1.1591728000203148,628.9454488999909,None,630.1312508999981,None,right,0.1895801000209758,630.1312508999981,None,,,,,,,,,,,,,,,,,,,,,,,PPT19,001,2022-06-30_15h07.06.222,ABstudy,2022.1.4,59.92925950412129,
AB,Lag5_T1P_T2P,5,P,P,5,10,4,4,14,bell,Did you see the bell?,0.12,0.016,JPG\,teabag,envelope03a,cellphone,apple07,callbell,orange,brownsugar,book01b,hammer01,stapler03b,toaster01,calculator01,globe,battery02b,blankImage,blankImage,blankImage,callbell,,,,,,,,,,,,0,81,81,147,,,,,,,,,,,,,,,,,,,,,,,,,,,,,,,,,,,630.3963508999877,631.3994204999908,631.3826974999974,631.9679456999875,631.9679456999875,None,633.668073199995,None,left,0.5410171000112314,633.668073199995,None,634.2357495999895,None,left,0.21342520002508536,634.2357495999895,None,,,,,,,,,,,,,,,,,,,,,,,PPT19,001,2022-06-30_15h07.06.222,ABstudy,2022.1.4,59.92925950412129,
AB,Lag1_T1P_T2P,1,P,P,7,8,6,5,13,arrow,Did you see the arrow?,0.12,0.016,JPG\,pencil01,broccoli01a,button01,sponge01,watermelon01,lipstick02a,arrow02,stapler04b,lighter01,sock01a,spoon01,blueberry01,belt02a,blankImage,blankImage,blankImage,blankImage,arrow02,,,,,,,,,,,,0,82,82,76,,,,,,,,,,,,,,,,,,,,,,,,,,,,,,,,,,,634.4755453999969,635.4866066999966,635.4699298999913,636.0458722999902,636.0458722999902,None,637.6655035999866,None,left,1.2153978000133066,637.6655035999866,None,638.9094475999882,None,right,0.1473258000187343,638.9094475999882,None,,,,,,,,,,,,,,,,,,,,,,,PPT19,001,2022-06-30_15h07.06.222,ABstudy,2022.1.4,59.92925950412129,
AB,Lag5_T1P_T2A,5,P,A,8,13,7,4,17,fountain,Did you see the fountain?,0.12,0.016,JPG\,printer02,envelope03a,potato02b,calculator01,tableknife02,cigarette,ashtray01,parkfountain,broom01,greenolive,candle08b,battery02b,strawberry,candle01,foosballtable,tennisball01b,blankImage,parkfountain,,,,,,,,,,,,0,83,83,219,,,,,,,,,,,,,,,,,,,,,,,,,,,,,,,,,,,639.0840619999944,640.0911350999959,640.0743430000002,640.6578860999871,640.6578860999871,None,642.6531536999973,None,left,2.5238450000179,642.6531536999973,None,645.1966136999981,None,right,1.372626800017315,645.1966136999981,None,,,,,,,,,,,,,,,,,,,,,,,PPT19,001,2022-06-30_15h07.06.222,ABstudy,2022.1.4,59.92925950412129,
AB,Lag1_T1P_T2P,1,P,P,7,8,6,3,11,locker,Did you see the locker?,0.12,0.016,JPG\,toiletpaper01a,lipstick02a,potato02b,speaker04,globe,strawberry,locker,stapler04b,sock01a,candle08b,pen04b,blankImage,blankImage,blankImage,blankImage,blankImage,blankImage,locker,,,,,,,,,,,,0,84,84,19,,,,,,,,,,,,,,,,,,,,,,,,,,,,,,,,,,,646.6002135999879,647.6155166999961,647.5822984999977,648.1604360999918,648.1604360999918,None,649.4966765999998,None,right,1.1290539000037825,649.4966765999998,None,650.6516769000009,None,left,0.8207044000009773,650.6516769000009,None,,,,,,,,,,,,,,,,,,,,,,,PPT19,001,2022-06-30_15h07.06.222,ABstudy,2022.1.4,59.92925950412129,
AB,Lag1_T1P_T2P,1,P,P,5,6,4,3,9,camel,Did you see the camel?,0.12,0.016,JPG\,iron01b,brick,broccoli01a,balloon01b,dromedary,stapler05,sandal,teabag,scissors01,blankImage,blankImage,blankImage,blankImage,blankImage,blankImage,blankImage,blankImage,dromedary,,,,,,,,,,,,0,85,85,11,,,,,,,,,,,,,,,,,,,,,,,,,,,,,,,,,,,651.5047760999878,652.5202537000005,652.4868605999945,653.090924499993,653.090924499993,None,654.1870670999924,None,left,1.094383600007859,654.1870670999924,None,655.3066942000005,None,right,1.9824200000148267,655.3066942000005,None,,,,,,,,,,,,,,,,,,,,,,,PPT19,001,2022-06-30_15h07.06.222,ABstudy,2022.1.4,59.92925950412129,
AB,Lag5_T1A_T2P,5,A,P,7,12,6,4,16,hand,Did you see the hand?,0.12,0.016,JPG\,celery,tennisball01b,calculator01,pear01,screw02,orange,button01,cellphone,onion,apple07,iron01b,stapler05,banana01,paintbrush01,dandelion,toothbrush03b,blankImage,bull,,,,,,,,,,,,0,86,86,281,,,,,,,,,,,,,,,,,,,,,,,,,,,,,,,,,,,657.3121749999991,658.3262168999936,658.309479699994,658.9537156000006,658.8784535999876,None,660.867708299993,None,right,0.9172458000102779,660.867708299993,None,661.813156499993,None,right,0.7397763000044506,661.813156499993,None,,,,,,,,,,,,,,,,,,,,,,,PPT19,001,2022-06-30_15h07.06.222,ABstudy,2022.1.4,59.92925950412129,
AB,Lag5_T1P_T2P,5,P,P,6,11,5,3,14,shower head,Did you see the shower head?,0.12,0.016,JPG\,belt02a,measuringcup01,spoon01,chain01,greenolive,showerhead01,computerkeyboard02,onion,fan,strawberry,stapler01,broom01,binoculars01b,ashtray01,blankImage,blankImage,blankImage,showerhead01,,,,,,,,,,,,0,87,87,98,,,,,,,,,,,,,,,,,,,,,,,,,,,,,,,,,,,662.5860956999968,663.5981959999917,663.5814934999944,664.1629754999885,664.1629754999885,None,665.836848299994,None,left,0.867707600016729,665.836848299994,None,666.7343545999902,None,left,0.355049500009045,666.7343545999902,None,,,,,,,,,,,,,,,,,,,,,,,PPT19,001,2022-06-30_15h07.06.222,ABstudy,2022.1.4,59.92925950412129,
AB,Lag1_T1P_T2P,1,P,P,8,9,7,5,14,finger print,Did you see the finger print?,0.12,0.016,JPG\,chain01,pen04b,birthdaycandle,watermelon01,broom01,scissors01,measuringcup01,fingerprint,stapler01,calculator01,ashtray01,feather03a,sewingmachine01a,thermometer02b,blankImage,blankImage,blankImage,fingerprint,,,,,,,,,,,,0,88,88,62,,,,,,,,,,,,,,,,,,,,,,,,,,,,,,,,,,,667.1217767999915,668.1361387999932,668.1026277999918,668.6838683999958,668.6838683999958,None,670.3971903999918,None,left,0.48439320002216846,670.3971903999918,None,670.9052204999898,None,left,0.26416630001040176,670.9052204999898,None,,,,,,,,,,,,,,,,,,,,,,,PPT19,001,2022-06-30_15h07.06.222,ABstudy,2022.1.4,59.92925950412129,
AB,Lag1_T1A_T2P,1,A,P,8,9,7,4,13,nose,Did you see the nose?,0.12,0.016,JPG\,pizza,strawberry,potato02b,speaker04,battery02b,iron01b,dice05a,cellphone,stapler06,banana01,medal02b,baseball01a,toaster01,blankImage,blankImage,blankImage,blankImage,cow,,,,,,,,,,,,0,89,89,231,,,,,,,,,,,,,,,,,,,,,,,,,,,,,,,,,,,671.1909731999913,672.2064288999973,672.1730982000008,672.7617285999877,672.7617285999877,None,674.3267405999941,None,right,1.6740951000101632,674.3267405999941,None,676.0272324999969,None,right,0.6378627000085544,676.0272324999969,None,,,,,,,,,,,,,,,,,,,,,,,PPT19,001,2022-06-30_15h07.06.222,ABstudy,2022.1.4,59.92925950412129,
AB,Lag1_T1P_T2P,1,P,P,8,9,7,5,14,helicopter,Did you see the helicopter?,0.12,0.016,JPG\,broom01,globe,cellphone,tableknife02,cauliflower01,scissors01,ring01,helicopter,stapler01,toaster01,cigarette,grape01,microscope,cucumber,blankImage,blankImage,blankImage,helicopter,,,,,,,,,,,,0,90,90,85,,,,,,,,,,,,,,,,,,,,,,,,,,,,,,,,,,,676.6968199999974,677.7123098999873,677.6789596999879,678.2405325,678.2405325,None,679.9989341999899,None,left,0.6654661000065971,679.9989341999899,None,680.6812986999867,None,left,0.3035002000106033,680.6812986999867,None,,,,,,,,,,,,,,,,,,,,,,,PPT19,001,2022-06-30_15h07.06.222,ABstudy,2022.1.4,59.92925950412129,
AB,Lag1_T1P_T2P,1,P,P,6,7,5,3,10,spider web,Did you see the spider web?,0.12,0.016,JPG\,toaster01,chain01,sponge01,baseball01a,carrot01,spiderweb,stapler03b,iron01b,grape01,brick,blankImage,blankImage,blankImage,blankImage,blankImage,blankImage,blankImage,spiderweb,,,,,,,,,,,,0,91,91,72,,,,,,,,,,,,,,,,,,,,,,,,,,,,,,,,,,,681.0288361999992,682.0327105999895,682.0160636999935,682.5960453999869,682.5960453999869,None,683.7912913999899,None,left,1.4574658000055933,683.7912913999899,None,685.2695077999961,None,left,1.2110877000086475,685.2695077999961,None,,,,,,,,,,,,,,,,,,,,,,,PPT19,001,2022-06-30_15h07.06.222,ABstudy,2022.1.4,59.92925950412129,
AB,Lag1_T1A_T2P,1,A,P,5,6,4,3,9,Crown,Did you see the Crown?,0.12,0.016,JPG\,leaf02a,pear01,measuringcup01,cigarette,fan,stapler04b,teabag,tableknife02,ring01,blankImage,blankImage,blankImage,blankImage,blankImage,blankImage,blankImage,blankImage,arrow02,,,,,,,,,,,,0,92,92,248,,,,,,,,,,,,,,,,,,,,,,,,,,,,,,,,,,,686.5080302999995,687.5219714999985,687.5050750999944,688.135830299987,688.0642831999867,None,689.2447860999964,None,right,1.307593800011091,689.2447860999964,None,690.5752177999966,None,right,2.609970700010308,690.5752177999966,None,,,,,,,,,,,,,,,,,,,,,,,PPT19,001,2022-06-30_15h07.06.222,ABstudy,2022.1.4,59.92925950412129,
AB,Lag1_T1P_T2P,1,P,P,7,8,6,4,12,trophy,Did you see the trophy?,0.12,0.016,JPG\,cherry01,cymbal,envelope03a,foosballtable,shirt02,cellphone,trophy01,stapler04b,battery02b,apple07,pencil01,screwdriver04b,blankImage,blankImage,blankImage,blankImage,blankImage,trophy01,,,,,,,,,,,,0,93,93,74,,,,,,,,,,,,,,,,,,,,,,,,,,,,,,,,,,,693.216098799996,694.228486699998,694.2121163999982,694.7806364999997,694.7806364999997,None,696.2377177999879,None,left,0.7314334000111558,696.2377177999879,None,696.9982132000005,None,left,0.8109605000063311,696.9982132000005,None,,,,,,,,,,,,,,,,,,,,,,,PPT19,001,2022-06-30_15h07.06.222,ABstudy,2022.1.4,59.92925950412129,
AB,Lag1_T1P_T2P,1,P,P,6,7,5,4,11,no parking sign,Did you see the no parking sign?,0.12,0.016,JPG\,fork03c,belt02a,grape01,computerkeyboard02,lemon02,parkingsign,stapler05,toiletpaper01a,toaster01,lipstick02a,book01b,blankImage,blankImage,blankImage,blankImage,blankImage,blankImage,parkingsign,,,,,,,,,,,,0,94,94,47,,,,,,,,,,,,,,,,,,,,,,,,,,,,,,,,,,,697.8403598999867,698.8499546999956,698.833146799996,699.4076582999987,699.4076582999987,None,700.740487099989,None,left,1.820542800007388,700.740487099989,None,702.5867181999929,None,left,1.0942002000083448,702.5867181999929,None,,,,,,,,,,,,,,,,,,,,,,,PPT19,001,2022-06-30_15h07.06.222,ABstudy,2022.1.4,59.92925950412129,
AB,Lag1_T1A_T2P,1,A,P,8,9,7,5,14,clock,Did you see the clock?,0.12,0.016,JPG\,speaker04,sewingmachine01a,eraser,violin,globe,belt02a,sunglasses04,cymbal,stapler01,greenolive,alligator,pear01,watch02a,screwdriver04b,blankImage,blankImage,blankImage,peacock,,,,,,,,,,,,0,95,95,240,,,,,,,,,,,,,,,,,,,,,,,,,,,,,,,,,,,703.7080760999961,704.7222320000001,704.6892956999945,705.2963571,705.2963571,None,706.9726926999865,None,right,1.0684939000202576,706.9726926999865,None,708.0594311999885,None,right,1.2372680000116816,708.0594311999885,None,,,,,,,,,,,,,,,,,,,,,,,PPT19,001,2022-06-30_15h07.06.222,ABstudy,2022.1.4,59.92925950412129,
AB,Lag1_T1P_T2P,1,P,P,6,7,5,3,10,fortune cookie,Did you see the fortune cookie?,0.12,0.016,JPG\,scissors01,grape01,mushroom01,toiletpaper01a,greenolive,fortunecookie,stapler03b,ashtray01,carrot01,pineapple01a,blankImage,blankImage,blankImage,blankImage,blankImage,blankImage,blankImage,fortunecookie,,,,,,,,,,,,0,96,96,42,,,,,,,,,,,,,,,,,,,,,,,,,,,,,,,,,,,709.3324757999944,710.3447108999972,710.3280356999894,710.899946599995,710.899946599995,None,712.1660667999968,None,right,0.9947295000019949,712.1660667999968,None,713.18063789999,None,right,0.41996450001897756,713.18063789999,None,,,,,,,,,,,,,,,,,,,,,,,PPT19,001,2022-06-30_15h07.06.222,ABstudy,2022.1.4,59.92925950412129,
AB,Lag5_T1P_T2P,5,P,P,7,12,6,5,17,flower,Did you see the flower?,0.12,0.016,JPG\,leaf02a,pear01,measuringcup01,cigarette,fan,lemon02,lily,tableknife02,ring01,pencil01,cellphone,stapler01,carrot01,binoculars01b,sock01a,book01b,blankImage,lily,,,,,,,,,,,,0,97,97,134,,,,,,,,,,,,,,,,,,,,,,,,,,,,,,,,,,,713.6333304,714.648746299994,714.6153667999897,715.1928850999975,715.1928850999975,None,717.1458385000005,None,right,1.1195316000084858,717.1458385000005,None,718.2884802999906,None,right,0.5363558000099147,718.2884802999906,None,,,,,,,,,,,,,,,,,,,,,,,PPT19,001,2022-06-30_15h07.06.222,ABstudy,2022.1.4,59.92925950412129,
AB,Lag1_T1P_T2P,1,P,P,8,9,7,4,13,Hula hoop,Did you see the Hula hoop?,0.12,0.016,JPG\,brownsugar,candle01,match,printer02,broom01,balloon01b,belt02a,hulahoop,stapler04b,feather03a,rice,mushroom01,pencil01,blankImage,blankImage,blankImage,blankImage,hulahoop,,,,,,,,,,,,0,98,98,64,,,,,,,,,,,,,,,,,,,,,,,,,,,,,,,,,,,718.8690261999873,719.8712427999999,719.8558701000002,720.3579028999957,720.3579028999957,None,722.0139613999927,None,left,0.8196991000004346,722.0139613999927,None,722.857742799999,None,right,0.7031092000106582,722.857742799999,None,,,,,,,,,,,,,,,,,,,,,,,PPT19,001,2022-06-30_15h07.06.222,ABstudy,2022.1.4,59.92925950412129,
AB,Lag1_T1P_T2P,1,P,P,7,8,6,5,13,tiger,Did you see the tiger?,0.12,0.016,JPG\,globe,broccoli01a,binoculars01b,iron01b,avocado01,dandelion,tiger02,stapler03b,fan,pizza,celery,blueberry01,sewingmachine01a,blankImage,blankImage,blankImage,blankImage,tiger02,,,,,,,,,,,,0,99,99,50,,,,,,,,,,,,,,,,,,,,,,,,,,,,,,,,,,,723.5946665999945,724.6088751999923,724.5920789999946,725.1885445999942,725.1885445999942,None,726.7854607999907,None,left,1.239300400018692,726.7854607999907,None,728.0457943999936,None,right,0.26011440000729635,728.0457943999936,None,,,,,,,,,,,,,,,,,,,,,,,PPT19,001,2022-06-30_15h07.06.222,ABstudy,2022.1.4,59.92925950412129,
AB,Lag1_T1A_T2P,1,A,P,7,8,6,5,13,Horseshoe,Did you see the Horseshoe?,0.12,0.016,JPG\,leaf02a,apple07,cd,pineapple01a,envelope03a,paintbrush01,pig,stapler06,rice,feather03a,lemon02,balloon01b,avocado01,blankImage,blankImage,blankImage,blankImage,rooster,,,,,,,,,,,,0,100,100,241,,,,,,,,,,,,,,,,,,,,,,,,,,,,,,,,,,,728.3899642999895,729.3967527999921,729.3800602999981,729.9723238999868,729.9723238999868,None,731.5336260999902,None,right,0.9790541000111261,731.5336260999902,None,732.5334944999922,None,right,0.6671236000111094,732.5334944999922,None,,,,,,,,,,,,,,,,,,,,,,,PPT19,001,2022-06-30_15h07.06.222,ABstudy,2022.1.4,59.92925950412129,
AB,Lag5_T1P_T2A,5,P,A,8,13,7,5,18,telescope,Did you see the telescope?,0.12,0.016,JPG\,globe,broccoli01a,binoculars01b,iron01b,avocado01,dandelion,pineapple01a,handheldtelescope,fan,pizza,celery,blueberry01,sewingmachine01a,dice05a,watermelon01,candy,blankImage,handheldtelescope,,,,,,,,,,,,0,101,101,228,,,,,,,,,,,,,,,,,,,,,,,,,,,,,,,,,,,733.2197276999941,734.2351435999881,734.2018775999895,734.7901194999868,734.7901194999868,None,736.7894095999945,None,right,1.0833862000145018,736.7894095999945,None,737.90523389999,None,right,0.37661340001795907,737.90523389999,None,,,,,,,,,,,,,,,,,,,,,,,PPT19,001,2022-06-30_15h07.06.222,ABstudy,2022.1.4,59.92925950412129,
AB,Lag5_T1P_T2P,5,P,P,7,12,6,4,16,Bird feeder,Did you see the Bird feeder?,0.12,0.016,JPG\,watermelon01,banana01,ring01,pencil01,tomato01,speaker04,birdfeeder,thermometer02b,key01,foosballtable,violin,stapler06,clock04,dice05a,pen04b,mushroom01,blankImage,birdfeeder,,,,,,,,,,,,0,102,102,164,,,,,,,,,,,,,,,,,,,,,,,,,,,,,,,,,,,738.3105253999965,739.3234674999985,739.306880499993,739.8940633999882,739.8940633999882,None,741.8017399999953,None,right,1.5201228000223637,741.8017399999953,None,743.3467398999928,None,left,0.31000630001653917,743.3467398999928,None,,,,,,,,,,,,,,,,,,,,,,,PPT19,001,2022-06-30_15h07.06.222,ABstudy,2022.1.4,59.92925950412129,
AB,Lag5_T1P_T2P,5,P,P,7,12,6,3,15,mail box,Did you see the mail box?,0.12,0.016,JPG\,key01,apple07,ring01,leaf02a,hammer01,tableknife02,postalmailbox01,sponge01,baseball01a,thermometer02b,celery,stapler06,grape01,cucumber,tennisball01b,blankImage,blankImage,postalmailbox01,,,,,,,,,,,,0,103,103,113,,,,,,,,,,,,,,,,,,,,,,,,,,,,,,,,,,,743.691229899996,744.6953267999925,744.6786275999912,745.2582297999907,745.2582297999907,None,747.1478866999969,None,left,1.8449880999978632,747.1478866999969,None,749.0163176999922,None,right,0.27241800000774674,749.0163176999922,None,,,,,,,,,,,,,,,,,,,,,,,PPT19,001,2022-06-30_15h07.06.222,ABstudy,2022.1.4,59.92925950412129,
AB,Lag5_T1A_T2P,5,A,P,7,12,6,5,17,Rollerblade,Did you see the Rollerblade?,0.12,0.016,JPG\,binoculars01b,cymbal,pizza,candy,paintbrush01,sponge01,grape01,thermometer02b,speaker04,lemon02,lipstick02a,stapler03b,candle01,8ball,plate01b,pen04b,blankImage,lion,,,,,,,,,,,,0,104,104,266,,,,,,,,,,,,,,,,,,,,,,,,,,,,,,,,,,,749.3240559999977,750.3343144999963,750.3175965999981,750.9065783999977,750.9065783999977,None,752.8470081999985,None,right,3.601547800019034,752.8470081999985,None,756.4741631999932,None,left,0.8143034000095213,756.4741631999932,None,,,,,,,,,,,,,,,,,,,,,,,PPT19,001,2022-06-30_15h07.06.222,ABstudy,2022.1.4,59.92925950412129,
AB,Lag5_T1A_T2A,5,A,A,5,10,4,4,14,music sheet,Did you see the music sheet?,0.12,0.016,JPG\,celery,pencil01,fan,foosballtable,iron01b,shirt02,potato02b,fork03c,button01,pineapple01a,baseball01a,printer02,cauliflower01,dandelion,blankImage,blankImage,blankImage,licenseplate,,,,,,,,,,,,0,105,105,304,,,,,,,,,,,,,,,,,,,,,,,,,,,,,,,,,,,757.3132203999994,758.3258948000002,758.3089990000008,758.8800181999977,758.8800181999977,None,760.4948224999971,None,right,1.0340482000028715,760.4948224999971,None,761.5474018999957,None,right,0.8370606000098633,761.5474018999957,None,,,,,,,,,,,,,,,,,,,,,,,PPT19,001,2022-06-30_15h07.06.222,ABstudy,2022.1.4,59.92925950412129,
AB,Lag5_T1A_T2A,5,A,A,6,11,5,3,14,mirror,Did you see the mirror?,0.12,0.016,JPG\,foosballtable,candy,envelope03a,microscope,pencil01,leaf02a,scissors01,watermelon01,grape01,dandelion,pineapple01a,hammer01,celery,thermometer02b,blankImage,blankImage,blankImage,shower,,,,,,,,,,,,0,106,106,305,,,,,,,,,,,,,,,,,,,,,,,,,,,,,,,,,,,762.4150088999886,763.4304169999959,763.3970803999982,763.8976379999949,763.8976379999949,None,765.6867413,None,right,1.1779898000095272,765.6867413,None,766.8845867999917,None,right,0.3802361000125529,766.8845867999917,None,,,,,,,,,,,,,,,,,,,,,,,PPT19,001,2022-06-30_15h07.06.222,ABstudy,2022.1.4,59.92925950412129,
AB,Lag1_T1P_T2P,1,P,P,5,6,4,3,9,Escalator,Did you see the Escalator?,0.12,0.016,JPG\,celery,pencil01,fan,foosballtable,escalator,stapler05,potato02b,fork03c,button01,blankImage,blankImage,blankImage,blankImage,blankImage,blankImage,blankImage,blankImage,escalator,,,,,,,,,,,,0,107,107,82,,,,,,,,,,,,,,,,,,,,,,,,,,,,,,,,,,,767.3399164000002,768.3524264999869,768.335797599997,768.9755765999871,768.9755765999871,None,769.9450064999983,None,left,1.9438172000081977,769.9450064999983,None,771.9057348999922,None,right,0.29434970002330374,771.9057348999922,None,,,,,,,,,,,,,,,,,,,,,,,PPT19,001,2022-06-30_15h07.06.222,ABstudy,2022.1.4,59.92925950412129,
AB,Lag5_T1P_T2P,5,P,P,7,12,6,5,17,tie,Did you see the tie?,0.12,0.016,JPG\,iron01b,orange,birthdaycandle,potato02b,cauliflower01,pencil01,tie02,candle08b,celery,tableknife02,pen04b,stapler06,ring01,rice,lemon02,tomato01,blankImage,tie02,,,,,,,,,,,,0,108,108,161,,,,,,,,,,,,,,,,,,,,,,,,,,,,,,,,,,,772.2249477999867,773.2404339999921,773.2071322999982,773.791022999998,773.791022999998,None,775.7706338999997,None,left,1.1422039000026416,775.7706338999997,None,776.9445247999975,None,right,0.2246951999986777,776.9445247999975,None,,,,,,,,,,,,,,,,,,,,,,,PPT19,001,2022-06-30_15h07.06.222,ABstudy,2022.1.4,59.92925950412129,
AB,Lag5_T1P_T2A,5,P,A,7,12,6,4,16,Bear,Did you see the Bear?,0.12,0.016,JPG\,comb02a,key01,medal02b,battery02b,lighter01,microscope,grizzly,sandal,pig,cellphone,computerkeyboard02,calculator01,cymbal,clock04,cucumber,avocado01,blankImage,grizzly,,,,,,,,,,,,0,109,109,213,,,,,,,,,,,,,,,,,,,,,,,,,,,,,,,,,,,777.2000808999874,778.2120941999892,778.1955029999954,778.7962021999992,778.7962021999992,None,780.7581684999896,None,left,0.7861653000145452,780.7581684999896,None,781.5672845999943,None,right,0.3448927000135882,781.5672845999943,None,,,,,,,,,,,,,,,,,,,,,,,PPT19,001,2022-06-30_15h07.06.222,ABstudy,2022.1.4,59.92925950412129,
AB,Lag1_T1P_T2P,1,P,P,5,6,4,5,11,golf ball,Did you see the golf ball?,0.12,0.016,JPG\,foosballtable,cigarette,pen04b,birthdaycandle,golfball,stapler05,binoculars01b,chain01,potato02b,cauliflower01,paintbrush01,blankImage,blankImage,blankImage,blankImage,blankImage,blankImage,golfball,,,,,,,,,,,,0,110,110,13,,,,,,,,,,,,,,,,,,,,,,,,,,,,,,,,,,,781.9394858999876,782.9504154999886,782.9338191999996,783.435522499989,783.435522499989,None,784.867035999996,None,left,1.5011838000064017,784.867035999996,None,786.3871179999987,None,right,0.7736615000030724,786.3871179999987,None,,,,,,,,,,,,,,,,,,,,,,,PPT19,001,2022-06-30_15h07.06.222,ABstudy,2022.1.4,59.92925950412129,
AB,Lag5_T1P_T2P,5,P,P,8,13,7,5,18,Kiwi,Did you see the Kiwi?,0.12,0.016,JPG\,violin,pizza,toothbrush03b,pineapple01a,banana01,ashtray01,candy,kiwi03,clock04,sock01a,microscope,speaker04,stapler04b,sunglasses04,lipstick02a,blueberry01,blankImage,kiwi03,,,,,,,,,,,,0,111,111,111,,,,,,,,,,,,,,,,,,,,,,,,,,,,,,,,,,,787.1914266999956,788.2057458999916,788.1722142999934,788.770013699992,788.770013699992,None,790.6859925999888,None,left,0.6022951000195462,790.6859925999888,None,791.309605699993,None,left,0.69857670001511,791.309605699993,None,,,,,,,,,,,,,,,,,,,,,,,PPT19,001,2022-06-30_15h07.06.222,ABstudy,2022.1.4,59.92925950412129,
AB,Lag5_T1A_T2P,5,A,P,6,11,5,3,14,Kiwi,Did you see the Kiwi?,0.12,0.016,JPG\,paintbrush01,dice05a,watermelon01,broccoli01a,hammer01,leaf02a,match,tennisball01b,lemon02,fan,stapler06,grape01,envelope03a,sponge01,blankImage,blankImage,blankImage,granolabar01,,,,,,,,,,,,0,112,112,261,,,,,,,,,,,,,,,,,,,,,,,,,,,,,,,,,,,792.026052199988,793.0269692000002,793.0103753000003,793.5784289000003,793.5784289000003,None,795.3292603999871,None,right,1.0071795000112616,795.3292603999871,None,796.3633488999913,None,right,0.30102570001326967,796.3633488999913,None,,,,,,,,,,,,,,,,,,,,,,,PPT19,001,2022-06-30_15h07.06.222,ABstudy,2022.1.4,59.92925950412129,
AB,Lag1_T1P_T2A,1,P,A,5,6,4,4,10,flower,Did you see the flower?,0.12,0.016,JPG\,broom01,globe,cellphone,tableknife02,daffodil,scissors01,ring01,alligator,rice,toaster01,blankImage,blankImage,blankImage,blankImage,blankImage,blankImage,blankImage,daffodil,,,,,,,,,,,,0,113,113,184,,,,,,,,,,,,,,,,,,,,,,,,,,,,,,,,,,,796.6995994999888,797.7149671999941,797.6816124999896,798.2729652999988,798.2729652999988,None,799.4841029999952,None,left,1.8841002000117442,799.4841029999952,None,801.3852969,None,right,0.2317658000101801,801.3852969,None,,,,,,,,,,,,,,,,,,,,,,,PPT19,001,2022-06-30_15h07.06.222,ABstudy,2022.1.4,59.92925950412129,
AB,Lag5_T1P_T2A,5,P,A,6,11,5,4,15,Spear,Did you see the Spear?,0.12,0.016,JPG\,belt02a,measuringcup01,spoon01,chain01,greenolive,spear02,computerkeyboard02,onion,fan,strawberry,candle01,broom01,binoculars01b,ashtray01,pingpongpaddle01c,blankImage,blankImage,spear02,,,,,,,,,,,,0,114,114,227,,,,,,,,,,,,,,,,,,,,,,,,,,,,,,,,,,,801.639528499989,802.6541867999913,802.6216013999947,803.2819518999895,803.2092343999975,None,805.1003968999867,None,left,2.3172508000134258,805.1003968999867,None,807.4410981999972,None,right,0.3521024000219768,807.4410981999972,None,,,,,,,,,,,,,,,,,,,,,,,PPT19,001,2022-06-30_15h07.06.222,ABstudy,2022.1.4,59.92925950412129,
AB,Lag5_T1P_T2P,5,P,P,5,10,4,3,13,bathtub,Did you see the bathtub?,0.12,0.016,JPG\,belt02a,sunglasses04,computerkeyboard02,cherry01,bathtub,eraser,watch02a,dice05a,blueberry01,stapler04b,match,leaf02a,iron01b,blankImage,blankImage,blankImage,blankImage,bathtub,,,,,,,,,,,,0,115,115,103,,,,,,,,,,,,,,,,,,,,,,,,,,,,,,,,,,,807.8270575999923,808.8425481999875,808.8092422999907,809.3889098999935,809.3889098999935,None,811.0027002999996,None,right,2.9177010000130394,811.0027002999996,None,813.9503816999932,None,left,1.18568170000799,813.9503816999932,None,,,,,,,,,,,,,,,,,,,,,,,PPT19,001,2022-06-30_15h07.06.222,ABstudy,2022.1.4,59.92925950412129,
AB,Lag5_T1P_T2P,5,P,P,8,13,7,4,17,Accordion,Did you see the Accordion?,0.12,0.016,JPG\,toiletpaper01a,lipstick02a,potato02b,speaker04,globe,strawberry,carrot01,accordion01,sock01a,candle08b,pen04b,calculator01,stapler01,brick,pear01,fork03c,blankImage,accordion01,,,,,,,,,,,,0,116,116,162,,,,,,,,,,,,,,,,,,,,,,,,,,,,,,,,,,,815.1685668999999,816.1831473999919,816.1497987999901,816.7512852999935,816.7512852999935,None,818.7200647999998,None,left,0.5844221000152174,818.7200647999998,None,819.3366628999938,None,left,0.18464390002191067,819.3366628999938,None,,,,,,,,,,,,,,,,,,,,,,,PPT19,001,2022-06-30_15h07.06.222,ABstudy,2022.1.4,59.92925950412129,
AB,Lag5_T1A_T2P,5,A,P,7,12,6,4,16,ear,Did you see the ear?,0.12,0.016,JPG\,candle01,shirt02,brick,orange,greenolive,toothbrush03b,pizza,thermometer02b,book01b,toiletpaper01a,sewingmachine01a,stapler01,candy,cymbal,potato02b,plate01b,blankImage,chair,,,,,,,,,,,,0,117,117,257,,,,,,,,,,,,,,,,,,,,,,,,,,,,,,,,,,,819.5570085999934,820.5711181999941,820.5543897999887,821.1660540999874,821.0984273999929,None,823.0368831999949,None,right,1.3959458000172162,823.0368831999949,None,824.4584564999968,None,right,0.8216407000145409,824.4584564999968,None,,,,,,,,,,,,,,,,,,,,,,,PPT19,001,2022-06-30_15h07.06.222,ABstudy,2022.1.4,59.92925950412129,
AB,Lag5_T1A_T2P,5,A,P,7,12,6,4,16,scooter,Did you see the scooter?,0.12,0.016,JPG\,cigarette,pig,banana01,strawberry,clock01a,plate01b,spoon01,blueberry01,battery02b,pineapple01a,chain01,stapler05,candy,pen04b,teabag,birthdaycandle,blankImage,1nose,,,,,,,,,,,,0,118,118,268,,,,,,,,,,,,,,,,,,,,,,,,,,,,,,,,,,,825.311557699999,826.3270205000008,826.293600399993,826.8589379999903,826.8589379999903,None,828.7455354999984,None,left,2.719005000020843,828.7455354999984,None,831.4821642999887,None,right,0.5597746000130428,831.4821642999887,None,,,,,,,,,,,,,,,,,,,,,,,PPT19,001,2022-06-30_15h07.06.222,ABstudy,2022.1.4,59.92925950412129,
AB,Lag5_T1P_T2P,5,P,P,8,13,7,3,16,banjo,Did you see the banjo?,0.12,0.016,JPG\,celery,brownsugar,key01,sunglasses04,leaf02a,toothbrush03b,dice05a,banjo,scarf,globe,paintbrush01,scissors01,stapler03a,battery02b,feather03a,cymbal,blankImage,banjo,,,,,,,,,,,,0,119,119,102,,,,,,,,,,,,,,,,,,,,,,,,,,,,,,,,,,,832.0716847999865,833.0834744999884,833.0668103999924,833.6648306999996,833.6648306999996,None,835.5487859999994,None,left,0.7233624000073178,835.5487859999994,None,836.3058257999946,None,left,0.16609300000709482,836.3058257999946,None,,,,,,,,,,,,,,,,,,,,,,,PPT19,001,2022-06-30_15h07.06.222,ABstudy,2022.1.4,59.92925950412129,
AB,Lag1_T1A_T2P,1,A,P,8,9,7,4,13,Fireplace,Did you see the Fireplace?,0.12,0.016,JPG\,scissors01,ashtray01,garlic01a,medal02b,cigarette,candle08b,leaf02a,envelope03a,stapler06,rice,toiletpaper01a,greenolive,cymbal,blankImage,blankImage,blankImage,blankImage,dartboard,,,,,,,,,,,,0,120,120,252,,,,,,,,,,,,,,,,,,,,,,,,,,,,,,,,,,,836.5168027999898,837.5208310999878,837.5041903999954,838.0755943999975,838.0755943999975,None,839.5775426999899,None,right,0.7749687000177801,839.5775426999899,None,840.3743195999996,None,left,0.9218396000069333,840.3743195999996,None,,,,,,,,,,,,,,,,,,,,,,,PPT19,001,2022-06-30_15h07.06.222,ABstudy,2022.1.4,59.92925950412129,
AB,Lag1_T1P_T2A,1,P,A,5,6,4,5,11,Moon,Did you see the Moon?,0.12,0.016,JPG\,lamp04a,broccoli01a,alligator,garlic01a,moon,brownsugar,avocado01,ring01,leaf02a,cellphone,medal02b,blankImage,blankImage,blankImage,blankImage,blankImage,blankImage,moon,,,,,,,,,,,,0,121,121,190,,,,,,,,,,,,,,,,,,,,,,,,,,,,,,,,,,,841.3288919999904,842.3428545999923,842.309500599993,842.8798317999899,842.8798317999899,None,844.2439866999921,None,right,0.9404265000193845,844.2439866999921,None,845.2124534999894,None,right,0.7073587000049883,845.2124534999894,None,,,,,,,,,,,,,,,,,,,,,,,PPT19,001,2022-06-30_15h07.06.222,ABstudy,2022.1.4,59.92925950412129,
AB,Lag1_T1P_T2P,1,P,P,6,7,5,4,11,cash register,Did you see the cash register?,0.12,0.016,JPG\,leaf02a,apple07,cd,pineapple01a,envelope03a,cashregister01,stapler03b,8ball,rice,feather03a,lemon02,blankImage,blankImage,blankImage,blankImage,blankImage,blankImage,cashregister01,,,,,,,,,,,,0,122,122,79,,,,,,,,,,,,,,,,,,,,,,,,,,,,,,,,,,,845.952398999987,846.9639507999964,846.947293499994,847.5352099999873,847.5352099999873,None,848.8813013999898,None,left,2.2387022000184515,848.8813013999898,None,851.1516692999867,None,right,0.28045650001149625,851.1516692999867,None,,,,,,,,,,,,,,,,,,,,,,,PPT19,001,2022-06-30_15h07.06.222,ABstudy,2022.1.4,59.92925950412129,
AB,Lag1_T1P_T2A,1,P,A,6,7,5,4,11,Road,Did you see the Road?,0.12,0.016,JPG\,pizza,printer02,medal02b,spoon01,grape01,road02,belt02a,watermelon01,celery,battery02b,screw02,blankImage,blankImage,blankImage,blankImage,blankImage,blankImage,road02,,,,,,,,,,,,0,123,123,174,,,,,,,,,,,,,,,,,,,,,,,,,,,,,,,,,,,851.457640099994,852.4699356999918,852.4545860999933,853.1294559999951,853.04494539999,None,854.4502810999984,None,right,1.3823868000035873,854.4502810999984,None,855.8559935999947,None,right,0.4166914000088582,855.8559935999947,None,,,,,,,,,,,,,,,,,,,,,,,PPT19,001,2022-06-30_15h07.06.222,ABstudy,2022.1.4,59.92925950412129,
AB,Lag5_T1P_T2P,5,P,P,5,10,4,5,15,Ipad,Did you see the Ipad?,0.12,0.016,JPG\,fork03c,toothbrush03b,cellphone,fan,ipad02,clock01a,ring01,eraser,sunglasses04,stapler06,violin,brownsugar,blueberry01,pear01,pencil01,blankImage,blankImage,ipad02,,,,,,,,,,,,0,124,124,150,,,,,,,,,,,,,,,,,,,,,,,,,,,,,,,,,,,856.2962800999958,857.3074302999885,857.2907855999947,857.8616666999878,857.8616666999878,None,859.6642656999902,None,left,1.0961514000082389,859.6642656999902,None,860.7774521999963,None,right,0.2148033999983454,860.7774521999963,None,,,,,,,,,,,,,,,,,,,,,,,PPT19,001,2022-06-30_15h07.06.222,ABstudy,2022.1.4,59.92925950412129,
AB,Lag5_T1P_T2A,5,P,A,8,13,7,4,17,Drum set,Did you see the Drum set?,0.12,0.016,JPG\,pencil01,microscope,banana01,computerkeyboard02,celery,cellphone,scissors01,drumset,book01b,onion,dice05a,binoculars01b,baseball01a,iron01b,screw02,fork03c,blankImage,drumset,,,,,,,,,,,,0,125,125,212,,,,,,,,,,,,,,,,,,,,,,,,,,,,,,,,,,,861.0133047999989,862.0287858999945,861.9954204999958,862.5592777999991,862.5592777999991,None,864.5066241999884,None,left,0.9341086000204086,864.5066241999884,None,865.4659210999962,None,right,0.20669350001844577,865.4659210999962,None,,,,,,,,,,,,,,,,,,,,,,,PPT19,001,2022-06-30_15h07.06.222,ABstudy,2022.1.4,59.92925950412129,
AB,Lag1_T1A_T2A,1,A,A,6,7,5,5,12,Safe,Did you see the Safe?,0.12,0.016,JPG\,hammer01,sponge01,toaster01,cherry01,feather03a,mushroom01,measuringcup01,pencil01,tennisball01b,brick,clock04,medal02b,blankImage,blankImage,blankImage,blankImage,blankImage,downhillski,,,,,,,,,,,,0,126,126,294,,,,,,,,,,,,,,,,,,,,,,,,,,,,,,,,,,,865.7050676999934,866.7170803999907,866.7002637999976,867.2756216999987,867.2756216999987,None,868.7280958999909,None,right,1.0162986000214005,868.7280958999909,None,869.7698128999909,None,right,0.26230200001737103,869.7698128999909,None,,,,,,,,,,,,,,,,,,,,,,,PPT19,001,2022-06-30_15h07.06.222,ABstudy,2022.1.4,59.92925950412129,
AB,Lag5_T1P_T2P,5,P,P,5,10,4,4,14,License Plate,Did you see the License Plate?,0.12,0.016,JPG\,toaster01,chain01,sponge01,baseball01a,licenseplate,belt02a,book01b,iron01b,grape01,stapler06,celery,onion,mushroom01,toothbrush03b,blankImage,blankImage,blankImage,licenseplate,,,,,,,,,,,,0,127,127,120,,,,,,,,,,,,,,,,,,,,,,,,,,,,,,,,,,,870.0584739999904,871.0714063999912,871.0547579999984,871.6520447999937,871.6520447999937,None,873.3392690999899,None,left,0.7488883000187343,873.3392690999899,None,874.1080412999872,None,left,0.22017640000558458,874.1080412999872,None,,,,,,,,,,,,,,,,,,,,,,,PPT19,001,2022-06-30_15h07.06.222,ABstudy,2022.1.4,59.92925950412129,
AB,Lag1_T1P_T2P,1,P,P,8,9,7,5,14,lawn mower,Did you see the lawn mower?,0.12,0.016,JPG\,battery02b,sunglasses04,pear01,tennisball01b,clock01a,speaker04,binoculars01b,lawnmower,stapler05,pineapple01a,avocado01,grape01,blueberry01,violin,blankImage,blankImage,blankImage,lawnmower,,,,,,,,,,,,0,128,128,46,,,,,,,,,,,,,,,,,,,,,,,,,,,,,,,,,,,874.3620019999944,875.375833099999,875.3590521000006,875.9248370999994,875.9248370999994,None,877.6160257999873,None,right,0.8397250000125496,877.6160257999873,None,878.4784734999994,None,right,0.28225810000731144,878.4784734999994,None,,,,,,,,,,,,,,,,,,,,,,,PPT19,001,2022-06-30_15h07.06.222,ABstudy,2022.1.4,59.92925950412129,
AB,Lag1_T1P_T2A,1,P,A,7,8,6,3,11,Snowshoe,Did you see the Snowshoe?,0.12,0.016,JPG\,birthdaycandle,mushroom01,strawberry,match,cherry01,eraser,snowshoe,thermometer02b,sock01a,ring01,feather03a,blankImage,blankImage,blankImage,blankImage,blankImage,blankImage,snowshoe,,,,,,,,,,,,0,129,129,194,,,,,,,,,,,,,,,,,,,,,,,,,,,,,,,,,,,878.7817945999996,879.7964235999971,879.7631106999906,880.2635968999966,880.2635968999966,None,881.6807488999912,None,right,1.1912112000136403,881.6807488999912,None,882.9000029999879,None,right,0.23597320000408217,882.9000029999879,None,,,,,,,,,,,,,,,,,,,,,,,PPT19,001,2022-06-30_15h07.06.222,ABstudy,2022.1.4,59.92925950412129,
AB,Lag1_T1P_T2P,1,P,P,5,6,4,3,9,kangaroo,Did you see the kangaroo?,0.12,0.016,JPG\,candle01,shirt02,brick,orange,kangaroo,stapler03a,pizza,thermometer02b,book01b,blankImage,blankImage,blankImage,blankImage,blankImage,blankImage,blankImage,blankImage,kangaroo,,,,,,,,,,,,0,130,130,16,,,,,,,,,,,,,,,,,,,,,,,,,,,,,,,,,,,883.1725805999886,884.1844615999871,884.1678446000005,884.7309891999903,884.7309891999903,None,885.8444257999945,None,left,1.3793841000151588,885.8444257999945,None,887.2542107999907,None,right,0.15369000000646338,887.2542107999907,None,,,,,,,,,,,,,,,,,,,,,,,PPT19,001,2022-06-30_15h07.06.222,ABstudy,2022.1.4,59.92925950412129,
AB,Lag5_T1P_T2A,5,P,A,8,13,7,3,16,leaf blower,Did you see the leaf blower?,0.12,0.016,JPG\,printer02,leaf02a,cauliflower01,sock01a,brownsugar,paintbrush01,pig,leafblower01,belt02a,shirt02,key01,match,cigarette,scissors01,envelope03a,blueberry01,blankImage,leafblower01,,,,,,,,,,,,0,131,131,216,,,,,,,,,,,,,,,,,,,,,,,,,,,,,,,,,,,887.4426196999993,888.4553091999987,888.4385715999961,889.0370062000002,889.0370062000002,None,890.9608123999933,None,left,0.9587847000075271,890.9608123999933,None,891.9418972999993,None,right,0.2906117000093218,891.9418972999993,None,,,,,,,,,,,,,,,,,,,,,,,PPT19,001,2022-06-30_15h07.06.222,ABstudy,2022.1.4,59.92925950412129,
AB,Lag5_T1P_T2P,5,P,P,7,12,6,3,15,Rollerblade,Did you see the Rollerblade?,0.12,0.016,JPG\,hammer01,sponge01,toaster01,cherry01,feather03a,mushroom01,rollerblade,pencil01,tennisball01b,brick,clock04,stapler06,teabag,garlic01a,envelope03a,blankImage,blankImage,rollerblade,,,,,,,,,,,,0,132,132,116,,,,,,,,,,,,,,,,,,,,,,,,,,,,,,,,,,,892.262229999993,893.2766380999965,893.2598904999904,893.8863347999868,893.8169414999866,None,895.6840805999964,None,left,1.0276218000071822,895.6840805999964,None,896.7306190999952,None,left,0.7416678000154207,896.7306190999952,None,,,,,,,,,,,,,,,,,,,,,,,PPT19,001,2022-06-30_15h07.06.222,ABstudy,2022.1.4,59.92925950412129,
AB,Lag5_T1P_T2P,5,P,P,8,13,7,3,16,shrimp,Did you see the shrimp?,0.12,0.016,JPG\,globe,belt02a,sponge01,violin,fork03c,tomato01,clock01a,cocktailshrimp02,balloon01b,scarf,teabag,pen04b,stapler03a,brownsugar,speaker04,screwdriver04b,blankImage,cocktailshrimp02,,,,,,,,,,,,0,133,133,169,,,,,,,,,,,,,,,,,,,,,,,,,,,,,,,,,,,897.5603754999902,898.5658202999912,898.5504384999949,899.153521699991,899.153521699991,None,900.9901767999982,None,left,0.7380065000179457,900.9901767999982,None,901.7518303999968,None,right,0.29650960001163185,901.7518303999968,None,,,,,,,,,,,,,,,,,,,,,,,PPT19,001,2022-06-30_15h07.06.222,ABstudy,2022.1.4,59.92925950412129,
AB,Lag5_T1P_T2P,5,P,P,6,11,5,4,15,shovel,Did you see the shovel?,0.12,0.016,JPG\,carrot01,watch02a,clock04,microscope,toiletpaper01a,shovel01,alligator,ring01,brick,watermelon01,stapler03b,pencil01,measuringcup01,balloon01b,computerkeyboard02,blankImage,blankImage,shovel01,,,,,,,,,,,,0,134,134,139,,,,,,,,,,,,,,,,,,,,,,,,,,,,,,,,,,,902.0716219999886,903.0863599000004,903.0529112999939,903.629672799987,903.629672799987,None,905.4484406999982,None,right,0.8881722000078298,905.4484406999982,None,906.3561953999888,None,left,0.395597100010491,906.3561953999888,None,,,,,,,,,,,,,,,,,,,,,,,PPT19,001,2022-06-30_15h07.06.222,ABstudy,2022.1.4,59.92925950412129,
AB,Lag1_T1P_T2P,1,P,P,5,6,4,5,11,Light switch,Did you see the Light switch?,0.12,0.016,JPG\,iron01b,orange,birthdaycandle,potato02b,lightswitch01,stapler03b,key01,candle08b,celery,tableknife02,pen04b,blankImage,blankImage,blankImage,blankImage,blankImage,blankImage,lightswitch01,,,,,,,,,,,,0,135,135,18,,,,,,,,,,,,,,,,,,,,,,,,,,,,,,,,,,,906.7771510999883,907.790997499993,907.7743269999919,908.3516002999968,908.3516002999968,None,909.7030106999882,None,right,1.1288100000092527,909.7030106999882,None,910.8611302999925,None,left,0.659678600015468,910.8611302999925,None,,,,,,,,,,,,,,,,,,,,,,,PPT19,001,2022-06-30_15h07.06.222,ABstudy,2022.1.4,59.92925950412129,
AB,Lag5_T1P_T2P,5,P,P,8,13,7,3,16,Chefs hat,Did you see the Chefs hat?,0.12,0.016,JPG\,rice,watermelon01,tableknife02,scarf,computerkeyboard02,cauliflower01,battery02b,chefshat,book01b,sandal,sponge01,microscope,stapler01,fork03c,thermometer02b,apple07,blankImage,chefshat,,,,,,,,,,,,0,136,136,128,,,,,,,,,,,,,,,,,,,,,,,,,,,,,,,,,,,911.5511215000006,912.563132700001,912.54778909999,913.1496977999923,913.1496977999923,None,915.0613544999942,None,right,0.8025196000089636,915.0613544999942,None,915.88374379999,None,left,0.35632910001731943,915.88374379999,None,,,,,,,,,,,,,,,,,,,,,,,PPT19,001,2022-06-30_15h07.06.222,ABstudy,2022.1.4,59.92925950412129,
AB,Lag5_T1P_T2P,5,P,P,5,10,4,5,15,Eye,Did you see the Eye?,0.12,0.016,JPG\,apple07,toiletpaper01a,pizza,dandelion,eye,eraser,microscope,violin,orange,stapler01,balloon01b,sandal,lighter01,fan,book01b,blankImage,blankImage,eye,,,,,,,,,,,,0,137,137,171,,,,,,,,,,,,,,,,,,,,,,,,,,,,,,,,,,,916.2720533999964,917.284239399989,917.2674698999908,917.8526679999923,917.8526679999923,None,919.6727817999927,None,left,0.4481287000089651,919.6727817999927,None,920.1509836999903,None,left,0.3379257000196958,920.1509836999903,None,,,,,,,,,,,,,,,,,,,,,,,PPT19,001,2022-06-30_15h07.06.222,ABstudy,2022.1.4,59.92925950412129,
