TrialType,CondType,Lag,T1_PA,T2_PA,T1Loc,T2Loc,PreDistractor,PostDistractor,TotalImg,cueWord,T1cue,StimLength,isi,PicFolder,Img1,Img2,Img3,Img4,Img5,Img6,Img7,Img8,Img9,Img10,Img11,Img12,Img13,Img14,Img15,Img16,Img17,T1_Identity,ImageType,T1PA,T2PA,Picture,Image,FullPathName,FilePath,Practice_Trials.thisRepN,Practice_Trials.thisTrialN,Practice_Trials.thisN,Practice_Trials.thisIndex,trials.thisRepN,trials.thisTrialN,trials.thisN,trials.thisIndex,trials_2.thisRepN,trials_2.thisTrialN,trials_2.thisN,trials_2.thisIndex,Practice_Ins.started,Practice_Ins.stopped,End_Prac_Ins.keys,End_Prac_Ins.rt,End_Prac_Ins.started,End_Prac_Ins.stopped,text_2.started,text_2.stopped,Fixation_Cross_2.started,Fixation_Cross_2.stopped,Rapid_Image_Present_2.started,Rapid_Image_Present_2.stopped,key_resp.keys,key_resp.rt,key_resp.started,key_resp.stopped,T1Response_2.started,T1Response_2.stopped,T2Response_2.started,T2Response_2.stopped,key_resp_4.keys,key_resp_4.rt,key_resp_4.started,key_resp_4.stopped,text.started,text.stopped,End_Instructions.keys,End_Instructions.rt,End_Instructions.started,End_Instructions.stopped,text_5.started,text_5.stopped,FC.started,FC.stopped,Rapid_Image_Present.started,Rapid_Image_Present.stopped,T1Response.started,T1Response.stopped,key_resp_2.keys,key_resp_2.rt,key_resp_2.started,key_resp_2.stopped,T2Response.started,T2Response.stopped,key_resp_3.keys,key_resp_3.rt,key_resp_3.started,key_resp_3.stopped,text_6.started,text_6.stopped,Fin_ins.keys,Fin_ins.rt,Fin_ins.started,Fin_ins.stopped,MemTest.started,MemTest.stopped,MemResponse.keys,MemResponse.rt,MemResponse.started,MemResponse.stopped,Display.started,Display.stopped,text_7.started,text_7.stopped,endOfExperiment.started,endOfExperiment.stopped,key_resp_5.keys,key_resp_5.rt,key_resp_5.started,key_resp_5.stopped,participant,session,date,expName,psychopyVersion,frameRate,
,,,,,,,,,,,,,,,,,,,,,,,,,,,,,,,,,,,,,,,,,,,,,,,,,,,,17.23241950001102,None,space,10.233801499940455,17.23241950001102,None,,,,,,,,,,,,,,,,,,,,,,,,,,,,,,,,,,,,,,,,,,,,,,,,,,,,,,,,,,,,,,,,,PPT12,001,2022-06-29_13h55.44.897,ABstudy,2022.1.4,60.01792138997098,
AB_Prac,Lag1_T1A_T2A,1,A,A,8,9,7,3,12,Moose,Did you see the Moose?,0.5,0.016,JPG\,clothespin03b,corkscrew03a,drillbit03a,fusilli03a,needlenosepliers01,perfume01a,pistachio,scrubbingbrush05b,spatula03,toothpastetube,hinge,toydinosaur,blankImage,blankImage,blankImage,blankImage,blankImage,None,,,,,,,,0,0,0,10,,,,,,,,,,,,,,,27.558022500015795,28.569922899943776,28.5532658000011,29.176326200016774,29.176326200016774,None,left,3.325915400055237,35.15634109999519,None,35.15634109999519,None,38.513275400036946,None,left,1.6255164999747649,38.513275400036946,None,,,,,,,,,,,,,,,,,,,,,,,,,,,,,,,,,,,,,,,,,,,,,,,PPT12,001,2022-06-29_13h55.44.897,ABstudy,2022.1.4,60.01792138997098,
AB_Prac,Lag1_T1P_T2A,1,P,A,8,9,7,5,14,flower,Did you see the flower?,0.5,0.016,JPG\,razor01,axe01,binder03b,bowl01,kettle01,lettuce,lime,plasticflower01b,mitten04,pencilcase01,plunger02,strawbasket01,toothpick02,wallet02a,blankImage,blankImage,blankImage,plasticflower01b,,,,,,,,0,1,1,5,,,,,,,,,,,,,,,40.23465220001526,41.24923920002766,41.23254029999953,41.805554699967615,41.805554699967615,None,right,3.0540005000075325,48.901331900036894,None,48.901331900036894,None,51.97654699999839,None,left,1.0894753000466153,51.97654699999839,None,,,,,,,,,,,,,,,,,,,,,,,,,,,,,,,,,,,,,,,,,,,,,,,PPT12,001,2022-06-29_13h55.44.897,ABstudy,2022.1.4,60.01792138997098,
AB_Prac,Lag5_T1P_T2P,5,P,P,5,10,4,5,15,Vulture,Did you see the Vulture?,0.5,0.016,JPG\,shorts01,toast,ramekin01,bib,vulture,cracker02,date,glasses01a,hat03b,stapler01,measuringtape01,nail,pill,drum01,starfish01,blankImage,blankImage,vulture,,,,,,,,0,2,2,3,,,,,,,,,,,,,,,53.0999152000295,54.112001099972986,54.09535620000679,54.692656100029126,54.692656100029126,None,left,1.504304200061597,62.18528370000422,None,62.18528370000422,None,63.72245500003919,None,left,1.3431163999484852,63.72245500003919,None,,,,,,,,,,,,,,,,,,,,,,,,,,,,,,,,,,,,,,,,,,,,,,,PPT12,001,2022-06-29_13h55.44.897,ABstudy,2022.1.4,60.01792138997098,
AB_Prac,Lag5_T1P_T2A,5,P,A,6,11,5,5,16,Wheat,Did you see the Wheat?,0.5,0.016,JPG\,bottleopener01,dentalfloss03b,cooler01,icecreamcone01a,paperclip01b,wheat,pencilsharpener02a,plasticbasket01a,toycar04,apricot,hairclip02,rock01a,honeydewmelon,antenna,blackberry,cardboardbox,blankImage,wheat,,,,,,,,0,3,3,7,,,,,,,,,,,,,,,65.09681799996179,66.10708600003272,66.09034999995492,66.66899000003468,66.66899000003468,None,right,1.389901699963957,74.81218300003093,None,74.81218300003093,None,76.23373139998876,None,right,1.0725326999090612,76.23373139998876,None,,,,,,,,,,,,,,,,,,,,,,,,,,,,,,,,,,,,,,,,,,,,,,,PPT12,001,2022-06-29_13h55.44.897,ABstudy,2022.1.4,60.01792138997098,
AB_Prac,Lag1_T1P_T2A,1,P,A,5,6,4,5,11,Webcam,Did you see the Webcam?,0.5,0.016,JPG\,pictureframe04,binder03b,straw,adjustablewrench01b,webcam,cane,hairdryer02a,icepack,kitchenscale01a,lifejacket,piggybank,blankImage,blankImage,blankImage,blankImage,blankImage,blankImage,webcam,,,,,,,,0,4,4,6,,,,,,,,,,,,,,,77.33805470005609,78.35253329994157,78.3358722999692,78.91615129995625,78.91615129995625,None,left,1.4046399999642745,84.56571859994438,None,84.56571859994438,None,85.99413630005438,None,left,0.9433362999698147,85.99413630005438,None,,,,,,,,,,,,,,,,,,,,,,,,,,,,,,,,,,,,,,,,,,,,,,,PPT12,001,2022-06-29_13h55.44.897,ABstudy,2022.1.4,60.01792138997098,
AB_Prac,Lag5_T1P_T2A,5,P,A,6,11,5,5,16,bread,Did you see the bread?,0.5,0.016,JPG\,cleaver01,clipboard,dustpan,hikingshoe01,notebook03a,baguette01,playingcard,pliers02b,styrofoamcup,rollingpin01a,swimgoggles,wineglass01,fryingpan02a,safetypin,syringe01,thimble,blankImage,baguette01,,,,,,,,0,5,5,8,,,,,,,,,,,,,,,86.9654828000348,87.97912399994675,87.96245230000932,88.5433205999434,88.5433205999434,None,left,2.2608825999777764,96.60509690002073,None,96.60509690002073,None,98.88983769994229,None,right,1.1116356999846175,98.88983769994229,None,,,,,,,,,,,,,,,,,,,,,,,,,,,,,,,,,,,,,,,,,,,,,,,PPT12,001,2022-06-29_13h55.44.897,ABstudy,2022.1.4,60.01792138997098,
AB_Prac,Lag5_T1A_T2A,5,A,A,6,11,5,5,16,castle,Did you see the castle?,0.5,0.016,JPG\,tape02a,englishmuffin,flask,ladle02a,monitor,peach01,keychain,squeegee01b,telephone01b,whisk,walkman,syringe02,baguette01,coaster,box01a,coffeepot03a,blankImage,None,,,,,,,,0,6,6,11,,,,,,,,,,,,,,,100.02651909994893,101.04196790000424,101.00858260004316,101.59891179995611,101.59891179995611,None,right,1.1198972000274807,109.61836630001199,None,109.61836630001199,None,110.7685944000259,None,right,0.9614215999608859,110.7685944000259,None,,,,,,,,,,,,,,,,,,,,,,,,,,,,,,,,,,,,,,,,,,,,,,,PPT12,001,2022-06-29_13h55.44.897,ABstudy,2022.1.4,60.01792138997098,
AB_Prac,Lag1_T1P_T2P,1,P,P,6,7,5,5,12,triangle,Did you see the triangle?,0.5,0.016,JPG\,ginger,mousetrap,plum01,slipper01b,dropper01,triangle,stapler04b,pants,raspberry01,rope03,scale01a,vase01,blankImage,blankImage,blankImage,blankImage,blankImage,triangle,,,,,,,,0,7,7,1,,,,,,,,,,,,,,,111.76643590000458,112.7705033000093,112.75381030002609,113.3498781999806,113.3498781999806,None,right,1.1067053000442684,119.35136339999735,None,119.35136339999735,None,120.47866459994111,None,left,0.9631611999357119,120.47866459994111,None,,,,,,,,,,,,,,,,,,,,,,,,,,,,,,,,,,,,,,,,,,,,,,,PPT12,001,2022-06-29_13h55.44.897,ABstudy,2022.1.4,60.01792138997098,
AB_Prac,Lag5_T1P_T2P,5,P,P,5,10,4,5,15,washing machine,Did you see the washing machine?,0.5,0.016,JPG\,waterbottle03,wheel01,flashlight02b,zucchini01,washingmachine,headphones02b,nutcracker01,paintroller01,paperclip03,stapler06,ribbon04,electricrazor,bottleofredwine01,pitabread,pot02a,blankImage,blankImage,washingmachine,,,,,,,,0,8,8,4,,,,,,,,,,,,,,,121.53048580000177,122.53029270004481,122.53029270004481,123.17293879995123,123.09693550004158,None,right,1.360404699924402,130.59369699994568,None,130.59369699994568,None,131.98723309999332,None,right,2.6712947000050917,131.98723309999332,None,,,,,,,,,,,,,,,,,,,,,,,,,,,,,,,,,,,,,,,,,,,,,,,PPT12,001,2022-06-29_13h55.44.897,ABstudy,2022.1.4,60.01792138997098,
AB_Prac,Lag1_T1P_T2P,1,P,P,8,9,7,5,14,Tennis racket,Did you see the Tennis racket?,0.5,0.016,JPG\,coconut,computermouse06,croissant01,deodorant02a,pillow01a,peanut01,boot02b,tennisracket,stapler03b,crayon,eggplant,marker01a,plant01,radish01,blankImage,blankImage,blankImage,tennisracket,,,,,,,,0,9,9,0,,,,,,,,,,,,,,,134.68251169996802,135.69310929998755,135.67644269997254,136.26981910003815,136.26981910003815,None,left,1.0598379999864846,143.2698685999494,None,143.2698685999494,None,144.35242869996,None,left,0.5692434000084177,144.35242869996,None,,,,,,,,,,,,,,,,,,,,,,,,,,,,,,,,,,,,,,,,,,,,,,,PPT12,001,2022-06-29_13h55.44.897,ABstudy,2022.1.4,60.01792138997098,
AB_Prac,Lag5_T1P_T2P,5,P,P,7,12,6,3,15,vacuum,Did you see the vacuum?,0.5,0.016,JPG\,fork07b,lightbulb01,manshoe,saw02b,shoelace,soap03a,vacuumcleaner01,floortile01,necklace,doll,cabbage,stapler03a,hanger02a,laptop01a,nailpolish03b,blankImage,blankImage,vacuumcleaner01,,,,,,,,0,10,10,2,,,,,,,,,,,,,,,144.95911339996383,145.97013459994923,145.9535097000189,146.54527030000463,146.54527030000463,None,left,1.1254689999623224,154.1807734000031,None,154.1807734000031,None,155.33227560005616,None,left,0.5408963999943808,155.33227560005616,None,,,,,,,,,,,,,,,,,,,,,,,,,,,,,,,,,,,,,,,,,,,,,,,PPT12,001,2022-06-29_13h55.44.897,ABstudy,2022.1.4,60.01792138997098,
AB_Prac,Lag5_T1A_T2P,5,A,P,6,11,5,3,14,dog,Did you see the dog?,0.5,0.016,JPG\,bucket01a,doorlock,cookiecutter,fireextinguisher01,gluestick,highlighter02b,sportbag,spraybottle01,suitcase,thread02,stapler05,walnut01c,icecubetray01a,vikingmask01b,blankImage,blankImage,blankImage,None,,,,,,,,0,11,11,9,,,,,,,,,,,,,,,155.90462980000302,156.91427239996847,156.8974855999695,157.49050379998516,157.49050379998516,None,right,0.8734179000603035,164.60871719999705,None,164.60871719999705,None,165.50747419998515,None,left,0.4776720000663772,165.50747419998515,None,,,,,,,,,,,,,,,,,,,,,,,,,,,,,,,,,,,,,,,,,,,,,,,PPT12,001,2022-06-29_13h55.44.897,ABstudy,2022.1.4,60.01792138997098,
,,,,,,,,,,,,,,,,,,,,,,,,,,,,,,,,,,,,,,,,,,,,,,,,,,,,,,,,,,,,,,,,,,,,,,,,,,,,166.0088504999876,None,space,13.704236999968998,166.0088504999876,None,,,,,,,,,,,,,,,,,,,,,,,,,,,,,,,,,,,,,,,,,PPT12,001,2022-06-29_13h55.44.897,ABstudy,2022.1.4,60.01792138997098,
AB,Lag1_T1A_T2P,1,A,P,8,9,7,3,12,seal,Did you see the seal?,0.12,0.016,JPG\,dice05a,watch02a,pig,lighter01,button01,strawberry,paintbrush01,microscope,stapler03a,pen04b,feather03a,8ball,blankImage,blankImage,blankImage,blankImage,blankImage,hockeystick,,,,,,,,,,,,0,0,0,235,,,,,,,,,,,,,,,,,,,,,,,,,,,,,,,,,,,180.31643640005495,181.32197229994927,181.3054486999754,181.936412799987,181.936412799987,None,183.36035279999487,None,right,1.5770726000191644,183.36035279999487,None,184.96001259994227,None,left,0.3782560999970883,184.96001259994227,None,,,,,,,,,,,,,,,,,,,,,,,PPT12,001,2022-06-29_13h55.44.897,ABstudy,2022.1.4,60.01792138997098,
AB,Lag1_T1P_T2A,1,P,A,6,7,5,5,12,foot,Did you see the foot?,0.12,0.016,JPG\,watermelon01,cigarette,weight04a,cymbal,cauliflower01,foot,cherry01,broom01,battery02b,key01,baseball01a,iron01b,blankImage,blankImage,blankImage,blankImage,blankImage,foot,,,,,,,,,,,,0,1,1,188,,,,,,,,,,,,,,,,,,,,,,,,,,,,,,,,,,,185.39802399999462,186.41037389996927,186.3936829000013,187.00024149997625,187.00024149997625,None,188.4156736000441,None,left,1.2018457999220118,188.4156736000441,None,189.647458499996,None,right,0.37789350003004074,189.647458499996,None,,,,,,,,,,,,,,,,,,,,,,,PPT12,001,2022-06-29_13h55.44.897,ABstudy,2022.1.4,60.01792138997098,
AB,Lag5_T1P_T2P,5,P,P,7,12,6,3,15,mail box,Did you see the mail box?,0.12,0.016,JPG\,key01,apple07,ring01,leaf02a,hammer01,tableknife02,postalmailbox01,sponge01,baseball01a,thermometer02b,celery,stapler06,grape01,cucumber,tennisball01b,blankImage,blankImage,postalmailbox01,,,,,,,,,,,,0,2,2,113,,,,,,,,,,,,,,,,,,,,,,,,,,,,,,,,,,,190.0565418000333,191.06471950002015,191.0479592999909,191.64494360005483,191.64494360005483,None,193.55081689998042,None,left,0.46708510001190007,193.55081689998042,None,194.03658349998295,None,left,0.3172928999410942,194.03658349998295,None,,,,,,,,,,,,,,,,,,,,,,,PPT12,001,2022-06-29_13h55.44.897,ABstudy,2022.1.4,60.01792138997098,
AB,Lag1_T1P_T2A,1,P,A,7,8,6,4,12,gate,Did you see the gate?,0.12,0.016,JPG\,pen04b,speaker04,lighter01,cherry01,pintofbeer,onion,entrancegate,toothbrush03b,broom01,sewingmachine01a,book01b,iron01b,blankImage,blankImage,blankImage,blankImage,blankImage,entrancegate,,,,,,,,,,,,0,3,3,187,,,,,,,,,,,,,,,,,,,,,,,,,,,,,,,,,,,194.38706930004992,195.4025276999455,195.36911490000784,195.95126779994462,195.95126779994462,None,197.41026469995268,None,left,2.4794780000811443,197.41026469995268,None,199.9070205000462,None,right,0.5357872999738902,199.9070205000462,None,,,,,,,,,,,,,,,,,,,,,,,PPT12,001,2022-06-29_13h55.44.897,ABstudy,2022.1.4,60.01792138997098,
AB,Lag1_T1P_T2P,1,P,P,8,9,7,3,12,mail box,Did you see the mail box?,0.12,0.016,JPG\,paintbrush01,dice05a,watermelon01,broccoli01a,hammer01,leaf02a,match,mailbox01,stapler05,fan,lipstick02a,grape01,blankImage,blankImage,blankImage,blankImage,blankImage,mailbox01,,,,,,,,,,,,0,4,4,20,,,,,,,,,,,,,,,,,,,,,,,,,,,,,,,,,,,200.4781523999991,201.49190449994057,201.47525889996905,202.05589670001063,202.05589670001063,None,203.59866819996387,None,left,1.1229737000539899,203.59866819996387,None,204.74504830001388,None,left,0.44083259999752045,204.74504830001388,None,,,,,,,,,,,,,,,,,,,,,,,PPT12,001,2022-06-29_13h55.44.897,ABstudy,2022.1.4,60.01792138997098,
AB,Lag1_T1A_T2A,1,A,A,7,8,6,5,13,Poker chips,Did you see the Poker chips?,0.12,0.016,JPG\,violin,pizza,toothbrush03b,pineapple01a,banana01,ashtray01,candy,dandelion,clock04,sock01a,microscope,speaker04,calculator01,blankImage,blankImage,blankImage,blankImage,cigar,,,,,,,,,,,,0,5,5,289,,,,,,,,,,,,,,,,,,,,,,,,,,,,,,,,,,,205.22033619997092,206.229955399991,206.2132790000178,206.79209729994182,206.79209729994182,None,208.4127258999506,None,right,2.7007923000492156,208.4127258999506,None,211.13491120003164,None,left,1.8668287000618875,211.13491120003164,None,,,,,,,,,,,,,,,,,,,,,,,PPT12,001,2022-06-29_13h55.44.897,ABstudy,2022.1.4,60.01792138997098,
AB,Lag1_T1P_T2P,1,P,P,6,7,5,5,12,Snowboard,Did you see the Snowboard?,0.12,0.016,JPG\,belt02a,measuringcup01,spoon01,chain01,greenolive,snowboard,stapler01,onion,fan,strawberry,candle01,broom01,blankImage,blankImage,blankImage,blankImage,blankImage,snowboard,,,,,,,,,,,,0,6,6,49,,,,,,,,,,,,,,,,,,,,,,,,,,,,,,,,,,,213.02614239999093,214.03772350004874,214.02100760000758,214.60003169998527,214.60003169998527,None,216.1064342999598,None,right,0.8554181000217795,216.1064342999598,None,216.9905657999916,None,left,0.3622179999947548,216.9905657999916,None,,,,,,,,,,,,,,,,,,,,,,,PPT12,001,2022-06-29_13h55.44.897,ABstudy,2022.1.4,60.01792138997098,
AB,Lag5_T1P_T2P,5,P,P,6,11,5,4,15,saxophone,Did you see the saxophone?,0.12,0.016,JPG\,pizza,strawberry,potato02b,speaker04,battery02b,saxophone,dice05a,cellphone,globe,banana01,stapler03b,baseball01a,toaster01,broom01,ring01,blankImage,blankImage,saxophone,,,,,,,,,,,,0,7,7,117,,,,,,,,,,,,,,,,,,,,,,,,,,,,,,,,,,,217.37815460003912,218.39197470003273,218.35865790001117,218.9503092999803,218.9503092999803,None,220.79764130001422,None,left,0.5720852999947965,220.79764130001422,None,221.39500480005518,None,left,0.34989980002865195,221.39500480005518,None,,,,,,,,,,,,,,,,,,,,,,,PPT12,001,2022-06-29_13h55.44.897,ABstudy,2022.1.4,60.01792138997098,
AB,Lag1_T1P_T2P,1,P,P,7,8,6,4,12,skunk,Did you see the skunk?,0.12,0.016,JPG\,fan,tomato01,candy,screwdriver04b,alligator,cd,skunk,stapler03b,button01,plate01b,brownsugar,lighter01,blankImage,blankImage,blankImage,blankImage,blankImage,skunk,,,,,,,,,,,,0,8,8,48,,,,,,,,,,,,,,,,,,,,,,,,,,,,,,,,,,,221.8159747000318,222.82977780001238,222.81315179995727,223.40565560001414,223.40565560001414,None,224.81343730003573,None,left,2.651363299926743,224.81343730003573,None,227.4847229999723,None,left,0.36504219996277243,227.4847229999723,None,,,,,,,,,,,,,,,,,,,,,,,PPT12,001,2022-06-29_13h55.44.897,ABstudy,2022.1.4,60.01792138997098,
AB,Lag5_T1P_T2P,5,P,P,8,13,7,4,17,cruise ship,Did you see the cruise ship?,0.12,0.016,JPG\,measuringcup01,dice05a,greenolive,lipstick02a,feather03a,balloon01b,lighter01,cruiseship,carrot01,plate01b,microscope,brick,stapler05,screw02,speaker04,spoon01,blankImage,cruiseship,,,,,,,,,,,,0,9,9,105,,,,,,,,,,,,,,,,,,,,,,,,,,,,,,,,,,,227.87717939994764,228.88613879994955,228.86953549995087,229.47138190001715,229.47138190001715,None,231.40596699994057,None,left,0.67565809993539,231.40596699994057,None,232.10788739996497,None,left,0.3014058000408113,232.10788739996497,None,,,,,,,,,,,,,,,,,,,,,,,PPT12,001,2022-06-29_13h55.44.897,ABstudy,2022.1.4,60.01792138997098,
AB,Lag5_T1P_T2P,5,P,P,7,12,6,3,15,Rollerblade,Did you see the Rollerblade?,0.12,0.016,JPG\,hammer01,sponge01,toaster01,cherry01,feather03a,mushroom01,rollerblade,pencil01,tennisball01b,brick,clock04,stapler06,teabag,garlic01a,envelope03a,blankImage,blankImage,rollerblade,,,,,,,,,,,,0,10,10,116,,,,,,,,,,,,,,,,,,,,,,,,,,,,,,,,,,,232.44969240005594,233.45728940004483,233.44085999997333,234.00673320004717,234.00673320004717,None,235.86585599998944,None,left,0.9672618999611586,235.86585599998944,None,236.86108459997922,None,left,0.37993910000659525,236.86108459997922,None,,,,,,,,,,,,,,,,,,,,,,,PPT12,001,2022-06-29_13h55.44.897,ABstudy,2022.1.4,60.01792138997098,
AB,Lag5_T1P_T2P,5,P,P,5,10,4,5,15,Ipad,Did you see the Ipad?,0.12,0.016,JPG\,fork03c,toothbrush03b,cellphone,fan,ipad02,clock01a,ring01,eraser,sunglasses04,stapler06,violin,brownsugar,blueberry01,pear01,pencil01,blankImage,blankImage,ipad02,,,,,,,,,,,,0,11,11,150,,,,,,,,,,,,,,,,,,,,,,,,,,,,,,,,,,,237.26975129998755,238.27873190003447,238.26195720001124,238.84957099996973,238.84957099996973,None,240.63698179996572,None,left,0.4836591000203043,240.63698179996572,None,241.14771940000355,None,left,0.28540669998619705,241.14771940000355,None,,,,,,,,,,,,,,,,,,,,,,,PPT12,001,2022-06-29_13h55.44.897,ABstudy,2022.1.4,60.01792138997098,
AB,Lag5_T1P_T2P,5,P,P,5,10,4,5,15,funnel,Did you see the funnel?,0.12,0.016,JPG\,pineapple01a,tennisball01b,computerkeyboard02,feather03a,funnel,acorn,violin,blueberry01,medal02b,stapler01,greenolive,screwdriver04b,potato02b,fork03c,cymbal,blankImage,blankImage,funnel,,,,,,,,,,,,0,12,12,109,,,,,,,,,,,,,,,,,,,,,,,,,,,,,,,,,,,241.5112678000005,242.51620680000633,242.49941739998758,243.08753260003868,243.08753260003868,None,244.78628889995161,None,right,0.9993125000037253,244.78628889995161,None,245.80258899996988,None,left,0.6227039999794215,245.80258899996988,None,,,,,,,,,,,,,,,,,,,,,,,PPT12,001,2022-06-29_13h55.44.897,ABstudy,2022.1.4,60.01792138997098,
AB,Lag1_T1A_T2P,1,A,P,8,9,7,4,13,nose,Did you see the nose?,0.12,0.016,JPG\,pizza,strawberry,potato02b,speaker04,battery02b,iron01b,dice05a,cellphone,stapler06,banana01,medal02b,baseball01a,toaster01,blankImage,blankImage,blankImage,blankImage,cow,,,,,,,,,,,,0,13,13,231,,,,,,,,,,,,,,,,,,,,,,,,,,,,,,,,,,,246.45547259994783,247.47096619999502,247.4375220000511,248.02297090005595,248.02297090005595,None,249.6399204999907,None,right,1.25684479996562,249.6399204999907,None,250.93883420003112,None,left,0.2716716000577435,250.93883420003112,None,,,,,,,,,,,,,,,,,,,,,,,PPT12,001,2022-06-29_13h55.44.897,ABstudy,2022.1.4,60.01792138997098,
AB,Lag5_T1P_T2P,5,P,P,8,13,7,4,17,trumpet,Did you see the trumpet?,0.12,0.016,JPG\,toaster01,scarf,toiletpaper01a,calculator01,violin,sewingmachine01a,fan,trumpet,strawberry,balloon01b,brownsugar,eraser,stapler01,rice,ring01,shirt02,blankImage,trumpet,,,,,,,,,,,,0,14,14,145,,,,,,,,,,,,,,,,,,,,,,,,,,,,,,,,,,,251.25322429998778,252.25887060002424,252.2422100000549,252.82977339997888,252.82977339997888,None,254.76525099994615,None,left,0.49965899996459484,254.76525099994615,None,255.29527080000844,None,left,0.24959780008066446,255.29527080000844,None,,,,,,,,,,,,,,,,,,,,,,,PPT12,001,2022-06-29_13h55.44.897,ABstudy,2022.1.4,60.01792138997098,
AB,Lag5_T1P_T2A,5,P,A,8,13,7,4,17,Tarantula,Did you see the Tarantula?,0.12,0.016,JPG\,binoculars01b,speaker04,sandal,envelope03a,plate01b,comb02a,battery02b,tarantula,measuringcup01,key01,medal02b,lamp04a,tennisball01b,pizza,cigarette,sunglasses04,blankImage,tarantula,,,,,,,,,,,,0,15,15,201,,,,,,,,,,,,,,,,,,,,,,,,,,,,,,,,,,,255.56610629998613,256.5800969999982,256.5634053000249,257.2448169999989,257.1640125999693,None,259.0943969000364,None,right,1.0185357000445947,259.0943969000364,None,260.1334621999413,None,right,0.436308000003919,260.1334621999413,None,,,,,,,,,,,,,,,,,,,,,,,PPT12,001,2022-06-29_13h55.44.897,ABstudy,2022.1.4,60.01792138997098,
AB,Lag5_T1P_T2P,5,P,P,5,10,4,4,14,duck,Did you see the duck?,0.12,0.016,JPG\,celery,pencil01,fan,foosballtable,duck01,shirt02,potato02b,fork03c,button01,stapler03a,baseball01a,printer02,cauliflower01,dandelion,blankImage,blankImage,blankImage,duck01,,,,,,,,,,,,0,16,16,130,,,,,,,,,,,,,,,,,,,,,,,,,,,,,,,,,,,260.6028239999432,261.6183546000393,261.58494910004083,262.1940969999414,262.1940969999414,None,263.79193549999036,None,left,0.537057000095956,263.79193549999036,None,264.3553252000129,None,left,0.2457604999653995,264.3553252000129,None,,,,,,,,,,,,,,,,,,,,,,,PPT12,001,2022-06-29_13h55.44.897,ABstudy,2022.1.4,60.01792138997098,
AB,Lag1_T1A_T2P,1,A,P,8,9,7,4,13,Christmas tree,Did you see the Christmas tree?,0.12,0.016,JPG\,broom01,globe,cellphone,tableknife02,cauliflower01,scissors01,ring01,alligator,stapler03a,toaster01,cigarette,grape01,microscope,blankImage,blankImage,blankImage,blankImage,windmill,,,,,,,,,,,,0,17,17,247,,,,,,,,,,,,,,,,,,,,,,,,,,,,,,,,,,,264.6846505999565,265.6892296000151,265.6723818000173,266.2457683000248,266.2457683000248,None,267.77495320001617,None,right,1.4422715000109747,267.77495320001617,None,269.24260080000386,None,left,0.3024697999935597,269.24260080000386,None,,,,,,,,,,,,,,,,,,,,,,,PPT12,001,2022-06-29_13h55.44.897,ABstudy,2022.1.4,60.01792138997098,
AB,Lag5_T1P_T2A,5,P,A,7,12,6,5,17,corn,Did you see the corn?,0.12,0.016,JPG\,avocado01,pingpongpaddle01c,match,cauliflower01,paintbrush01,clock01a,corn02,cd,balloon01b,cellphone,watch02a,pear01,toaster01,sponge01,orange,blueberry01,blankImage,corn02,,,,,,,,,,,,0,18,18,210,,,,,,,,,,,,,,,,,,,,,,,,,,,,,,,,,,,269.5785208999878,270.5940476000542,270.5605489000445,271.1411039000377,271.1411039000377,None,273.1467558000004,None,left,1.2623708000173792,273.1467558000004,None,274.43112429999746,None,left,0.3620088000316173,274.43112429999746,None,,,,,,,,,,,,,,,,,,,,,,,PPT12,001,2022-06-29_13h55.44.897,ABstudy,2022.1.4,60.01792138997098,
AB,Lag1_T1P_T2P,1,P,P,7,8,6,5,13,horse,Did you see the horse?,0.12,0.016,JPG\,watermelon01,pencil01,microscope,blueberry01,computerkeyboard02,lamp04a,horse,stapler03b,sock01a,key01,binoculars01b,cauliflower01,ashtray01,blankImage,blankImage,blankImage,blankImage,horse,,,,,,,,,,,,0,19,19,3,,,,,,,,,,,,,,,,,,,,,,,,,,,,,,,,,,,274.81722059997264,275.83252219995484,275.7992366000544,276.4087543999776,276.4087543999776,None,278.0008522999706,None,left,0.38431340001989156,278.0008522999706,None,278.41620570002124,None,left,0.2088767000241205,278.41620570002124,None,,,,,,,,,,,,,,,,,,,,,,,PPT12,001,2022-06-29_13h55.44.897,ABstudy,2022.1.4,60.01792138997098,
AB,Lag5_T1P_T2P,5,P,P,5,10,4,3,13,lollipop,Did you see the lollipop?,0.12,0.016,JPG\,brownsugar,candle01,match,printer02,lollipop04,balloon01b,belt02a,potato02b,computerkeyboard02,stapler03a,rice,mushroom01,pencil01,blankImage,blankImage,blankImage,blankImage,lollipop04,,,,,,,,,,,,0,20,20,112,,,,,,,,,,,,,,,,,,,,,,,,,,,,,,,,,,,278.6626824999694,279.67061559995636,279.6550191999413,280.157222299953,280.157222299953,None,281.8305034999503,None,left,0.6984280999749899,281.8305034999503,None,282.5558881999459,None,left,0.1969927999889478,282.5558881999459,None,,,,,,,,,,,,,,,,,,,,,,,PPT12,001,2022-06-29_13h55.44.897,ABstudy,2022.1.4,60.01792138997098,
AB,Lag1_T1P_T2P,1,P,P,8,9,7,3,12,Fire hydrant,Did you see the Fire hydrant?,0.12,0.016,JPG\,foosballtable,candy,envelope03a,microscope,pencil01,leaf02a,scissors01,firehydrant,stapler01,dandelion,pineapple01a,hammer01,blankImage,blankImage,blankImage,blankImage,blankImage,firehydrant,,,,,,,,,,,,0,21,21,83,,,,,,,,,,,,,,,,,,,,,,,,,,,,,,,,,,,282.78140980005264,283.79043900000397,283.77372319996357,284.2744596999837,284.2744596999837,None,285.77618919999804,None,left,1.1940365000627935,285.77618919999804,None,286.9935813000193,None,right,0.23963359999470413,286.9935813000193,None,,,,,,,,,,,,,,,,,,,,,,,PPT12,001,2022-06-29_13h55.44.897,ABstudy,2022.1.4,60.01792138997098,
AB,Lag5_T1A_T2P,5,A,P,6,11,5,4,15,butterfly,Did you see the butterfly?,0.12,0.016,JPG\,comb02a,key01,medal02b,battery02b,lighter01,microscope,watermelon01,sandal,pig,cellphone,stapler06,calculator01,cymbal,clock04,cucumber,blankImage,blankImage,uprightpiano01,,,,,,,,,,,,0,22,22,276,,,,,,,,,,,,,,,,,,,,,,,,,,,,,,,,,,,287.2934920999687,288.2950900000287,288.27830120001454,288.8697319000494,288.8697319000494,None,290.62963810004294,None,right,1.8198123999172822,290.62963810004294,None,292.4801164000528,None,left,0.2823414000449702,292.4801164000528,None,,,,,,,,,,,,,,,,,,,,,,,PPT12,001,2022-06-29_13h55.44.897,ABstudy,2022.1.4,60.01792138997098,
AB,Lag1_T1P_T2P,1,P,P,5,6,4,5,11,owl,Did you see the owl?,0.12,0.016,JPG\,cellphone,tomato01,comb02a,candy,barnowl,stapler03a,toaster01,fan,feather03a,pen04b,lemon02,blankImage,blankImage,blankImage,blankImage,blankImage,blankImage,barnowl,,,,,,,,,,,,0,23,23,33,,,,,,,,,,,,,,,,,,,,,,,,,,,,,,,,,,,292.7912276999559,293.80021060002036,293.783522099955,294.3655331999762,294.3655331999762,None,295.6783792000497,None,left,1.0827050999505445,295.6783792000497,None,296.7866193000227,None,right,0.39865690004080534,296.7866193000227,None,,,,,,,,,,,,,,,,,,,,,,,PPT12,001,2022-06-29_13h55.44.897,ABstudy,2022.1.4,60.01792138997098,
AB,Lag1_T1P_T2A,1,P,A,7,8,6,3,11,walkie talkie,Did you see the walkie talkie?,0.12,0.016,JPG\,teabag,envelope03a,cellphone,apple07,cauliflower01,orange,walkietalkie,book01b,hammer01,feather03a,toaster01,blankImage,blankImage,blankImage,blankImage,blankImage,blankImage,walkietalkie,,,,,,,,,,,,0,24,24,197,,,,,,,,,,,,,,,,,,,,,,,,,,,,,,,,,,,297.2678244999843,298.27150619996246,298.2548399999505,298.83697149995714,298.83697149995714,None,300.1917372000171,None,left,1.4808487999252975,300.1917372000171,None,301.69163430004846,None,right,0.25282990001142025,301.69163430004846,None,,,,,,,,,,,,,,,,,,,,,,,PPT12,001,2022-06-29_13h55.44.897,ABstudy,2022.1.4,60.01792138997098,
AB,Lag5_T1P_T2A,5,P,A,5,10,4,4,14,Ship in a bottle,Did you see the Ship in a bottle?,0.12,0.016,JPG\,sewingmachine01a,thermometer02b,sponge01,eraser,shipinabottle,fork03c,pizza,violin,belt02a,medal02b,pineapple01a,tennisball01b,dandelion,cauliflower01,blankImage,blankImage,blankImage,shipinabottle,,,,,,,,,,,,0,25,25,208,,,,,,,,,,,,,,,,,,,,,,,,,,,,,,,,,,,301.9795501000481,302.99287970003206,302.97616209997796,303.5647983000381,303.5647983000381,None,305.3523436000105,None,left,0.6246035000076517,305.3523436000105,None,305.99595729995053,None,left,0.17280950001440942,305.99595729995053,None,,,,,,,,,,,,,,,,,,,,,,,PPT12,001,2022-06-29_13h55.44.897,ABstudy,2022.1.4,60.01792138997098,
AB,Lag5_T1P_T2P,5,P,P,8,13,7,5,18,popcorn,Did you see the popcorn?,0.12,0.016,JPG\,toaster01,garlic01a,hairclip03,fan,comb02a,apple07,orange,popcorn,onion,blueberry01,toiletpaper01a,fork03c,stapler06,pineapple01a,scarf,eraser,blankImage,popcorn,,,,,,,,,,,,0,26,26,155,,,,,,,,,,,,,,,,,,,,,,,,,,,,,,,,,,,306.1995980000356,307.213744699955,307.1803962000413,307.7795298000565,307.7795298000565,None,309.7046000000555,None,right,1.2000501999864355,309.7046000000555,None,310.934650399955,None,right,0.5458112000487745,310.934650399955,None,,,,,,,,,,,,,,,,,,,,,,,PPT12,001,2022-06-29_13h55.44.897,ABstudy,2022.1.4,60.01792138997098,
AB,Lag5_T1P_T2A,5,P,A,6,11,5,3,14,toy truck,Did you see the toy truck?,0.12,0.016,JPG\,globe,belt02a,sponge01,violin,fork03c,bluecheese,clock01a,microscope,balloon01b,scarf,teabag,pen04b,brick,brownsugar,blankImage,blankImage,blankImage,bluecheese,,,,,,,,,,,,0,27,27,204,,,,,,,,,,,,,,,,,,,,,,,,,,,,,,,,,,,311.5085231999401,312.5192236000439,312.5026801000349,313.13497999997344,313.13497999997344,None,314.69019810005557,None,right,0.8314712999854237,314.69019810005557,None,315.53872469998896,None,left,0.3900339000392705,315.53872469998896,None,,,,,,,,,,,,,,,,,,,,,,,PPT12,001,2022-06-29_13h55.44.897,ABstudy,2022.1.4,60.01792138997098,
AB,Lag5_T1P_T2P,5,P,P,7,12,6,5,17,truck,Did you see the truck?,0.12,0.016,JPG\,binoculars01b,speaker04,sandal,envelope03a,plate01b,comb02a,boxtruck,chain01,measuringcup01,key01,medal02b,stapler05,tennisball01b,pizza,cigarette,sunglasses04,blankImage,boxtruck,,,,,,,,,,,,0,28,28,166,,,,,,,,,,,,,,,,,,,,,,,,,,,,,,,,,,,315.95888539997395,316.97339189995546,316.9400933999568,317.52635759999976,317.52635759999976,None,319.5016422000481,None,left,0.4195520000066608,319.5016422000481,None,319.94345140003134,None,left,0.17872119997628033,319.94345140003134,None,,,,,,,,,,,,,,,,,,,,,,,PPT12,001,2022-06-29_13h55.44.897,ABstudy,2022.1.4,60.01792138997098,
AB,Lag1_T1A_T2P,1,A,P,6,7,5,5,12,Ostrich,Did you see the Ostrich?,0.12,0.016,JPG\,thermometer02b,candle08b,comb02a,toothbrush03b,brick,computerkeyboard02,stapler05,pineapple01a,candy,birthdaycandle,clock04,hairclip03,blankImage,blankImage,blankImage,blankImage,blankImage,discoball,,,,,,,,,,,,0,29,29,232,,,,,,,,,,,,,,,,,,,,,,,,,,,,,,,,,,,320.1452798000537,321.1608983000042,321.12755510001443,321.7056077000452,321.7056077000452,None,323.20083460002206,None,right,1.656638899934478,323.20083460002206,None,324.88165839994326,None,left,0.39166319998912513,324.88165839994326,None,,,,,,,,,,,,,,,,,,,,,,,PPT12,001,2022-06-29_13h55.44.897,ABstudy,2022.1.4,60.01792138997098,
AB,Lag5_T1P_T2P,5,P,P,8,13,7,5,18,pipe,Did you see the pipe?,0.12,0.016,JPG\,scissors01,ashtray01,garlic01a,medal02b,cigarette,candle08b,leaf02a,smokingpipe,cucumber,rice,toiletpaper01a,greenolive,stapler01,cellphone,tableknife02,spoon01,blankImage,smokingpipe,,,,,,,,,,,,0,30,30,138,,,,,,,,,,,,,,,,,,,,,,,,,,,,,,,,,,,325.3039705000119,326.31635540002026,326.2997807000065,326.8623647999484,326.8623647999484,None,328.8177017000271,None,left,0.41559490002691746,328.8177017000271,None,329.2520395000465,None,left,0.19682199996896088,329.2520395000465,None,,,,,,,,,,,,,,,,,,,,,,,PPT12,001,2022-06-29_13h55.44.897,ABstudy,2022.1.4,60.01792138997098,
AB,Lag1_T1P_T2P,1,P,P,5,6,4,3,9,elephant,Did you see the elephant?,0.12,0.016,JPG\,celery,brownsugar,key01,sunglasses04,arugula,stapler04b,dice05a,tennisball01b,scarf,blankImage,blankImage,blankImage,blankImage,blankImage,blankImage,blankImage,blankImage,arugula,,,,,,,,,,,,0,31,31,54,,,,,,,,,,,,,,,,,,,,,,,,,,,,,,,,,,,329.520242300001,330.520402599941,330.5037087999517,331.08798389998265,331.08798389998265,None,332.1422874999698,None,right,2.8583489999873564,332.1422874999698,None,335.02535560005344,None,left,0.5033527999185026,335.02535560005344,None,,,,,,,,,,,,,,,,,,,,,,,PPT12,001,2022-06-29_13h55.44.897,ABstudy,2022.1.4,60.01792138997098,
AB,Lag1_T1P_T2P,1,P,P,8,9,7,3,12,apron,Did you see the apron?,0.12,0.016,JPG\,avocado01,tambourine02,match,cauliflower01,paintbrush01,clock01a,pig,apron,stapler03a,cellphone,watch02a,pear01,blankImage,blankImage,blankImage,blankImage,blankImage,apron,,,,,,,,,,,,0,32,32,32,,,,,,,,,,,,,,,,,,,,,,,,,,,,,,,,,,,335.5630356000038,336.5767662000144,336.5598771000514,337.13352150004357,337.13352150004357,None,338.67985299997963,None,left,0.793930200044997,338.67985299997963,None,339.49583899998106,None,left,0.9127661000238732,339.49583899998106,None,,,,,,,,,,,,,,,,,,,,,,,PPT12,001,2022-06-29_13h55.44.897,ABstudy,2022.1.4,60.01792138997098,
AB,Lag5_T1A_T2P,5,A,P,7,12,6,4,16,church,Did you see the church?,0.12,0.016,JPG\,printer02,leaf02a,cauliflower01,sock01a,brownsugar,paintbrush01,pig,orange,belt02a,shirt02,key01,stapler06,cigarette,scissors01,envelope03a,blueberry01,blankImage,ant,,,,,,,,,,,,0,33,33,279,,,,,,,,,,,,,,,,,,,,,,,,,,,,,,,,,,,340.43232869997155,341.44777279999107,341.4144640000304,342.0603311000159,342.0603311000159,None,343.952090100036,None,right,1.4489901999477297,343.952090100036,None,345.4184478999814,None,left,0.3738558000186458,345.4184478999814,None,,,,,,,,,,,,,,,,,,,,,,,PPT12,001,2022-06-29_13h55.44.897,ABstudy,2022.1.4,60.01792138997098,
AB,Lag1_T1P_T2P,1,P,P,5,6,4,5,11,candy cane,Did you see the candy cane?,0.12,0.016,JPG\,shirt02,match,screw02,foosballtable,candycane01a,stapler04b,sewingmachine01a,watch02a,button01,comb02a,dice05a,blankImage,blankImage,blankImage,blankImage,blankImage,blankImage,candycane01a,,,,,,,,,,,,0,34,34,9,,,,,,,,,,,,,,,,,,,,,,,,,,,,,,,,,,,345.821380999987,346.8365057000192,346.80307679995894,347.389906299999,347.389906299999,None,348.72277830005623,None,left,0.9664804999483749,348.72277830005623,None,349.70601980003994,None,right,1.184089899994433,349.70601980003994,None,,,,,,,,,,,,,,,,,,,,,,,PPT12,001,2022-06-29_13h55.44.897,ABstudy,2022.1.4,60.01792138997098,
AB,Lag1_T1P_T2P,1,P,P,5,6,4,3,9,camel,Did you see the camel?,0.12,0.016,JPG\,iron01b,brick,broccoli01a,balloon01b,dromedary,stapler05,sandal,teabag,scissors01,blankImage,blankImage,blankImage,blankImage,blankImage,blankImage,blankImage,blankImage,dromedary,,,,,,,,,,,,0,35,35,11,,,,,,,,,,,,,,,,,,,,,,,,,,,,,,,,,,,350.90937560005113,351.92505770002026,351.89150010002777,352.4684760000091,352.4684760000091,None,353.61077709996607,None,left,0.3977742000715807,353.61077709996607,None,354.02686989994254,None,left,0.2056511000264436,354.02686989994254,None,,,,,,,,,,,,,,,,,,,,,,,PPT12,001,2022-06-29_13h55.44.897,ABstudy,2022.1.4,60.01792138997098,
AB,Lag1_T1A_T2P,1,A,P,7,8,6,3,11,lion,Did you see the lion?,0.12,0.016,JPG\,sock01a,spoon01,alligator,comb02a,printer02,medal02b,lamp04a,stapler01,greenolive,computerkeyboard02,cauliflower01,blankImage,blankImage,blankImage,blankImage,blankImage,blankImage,bullet,,,,,,,,,,,,0,36,36,229,,,,,,,,,,,,,,,,,,,,,,,,,,,,,,,,,,,354.26279229996726,355.2782131000422,355.24482350004837,355.8256937999977,355.8256937999977,None,357.2722110999748,None,right,1.080741300014779,357.2722110999748,None,358.38134490000084,None,left,0.2597075999947265,358.38134490000084,None,,,,,,,,,,,,,,,,,,,,,,,PPT12,001,2022-06-29_13h55.44.897,ABstudy,2022.1.4,60.01792138997098,
AB,Lag1_T1P_T2P,1,P,P,8,9,7,3,12,zebra,Did you see the zebra?,0.12,0.016,JPG\,apple07,toiletpaper01a,pizza,dandelion,greenolive,eraser,microscope,zebra,stapler03b,lipstick02a,balloon01b,sandal,blankImage,blankImage,blankImage,blankImage,blankImage,zebra,,,,,,,,,,,,0,37,37,28,,,,,,,,,,,,,,,,,,,,,,,,,,,,,,,,,,,358.67142799997237,359.68355529999826,359.6680346999783,360.3307851999998,360.25049590005074,None,361.74880880001,None,left,0.49958379997406155,361.74880880001,None,362.27132749999873,None,left,0.19313579995650798,362.27132749999873,None,,,,,,,,,,,,,,,,,,,,,,,PPT12,001,2022-06-29_13h55.44.897,ABstudy,2022.1.4,60.01792138997098,
AB,Lag1_T1A_T2A,1,A,A,8,9,7,3,12,punching bag,Did you see the punching bag?,0.12,0.016,JPG\,key01,apple07,ring01,leaf02a,hammer01,tableknife02,violin,sponge01,baseball01a,thermometer02b,celery,calculator01,blankImage,blankImage,blankImage,blankImage,blankImage,bathtub,,,,,,,,,,,,0,38,38,291,,,,,,,,,,,,,,,,,,,,,,,,,,,,,,,,,,,362.5001133000478,363.50329499994405,363.4698974000057,364.0495562000433,364.0495562000433,None,365.51115849998314,None,right,1.4415582000510767,365.51115849998314,None,366.97354409995023,None,left,0.6835373000940308,366.97354409995023,None,,,,,,,,,,,,,,,,,,,,,,,PPT12,001,2022-06-29_13h55.44.897,ABstudy,2022.1.4,60.01792138997098,
AB,Lag5_T1P_T2P,5,P,P,8,13,7,5,18,Ping pong Table,Did you see the Ping pong Table?,0.12,0.016,JPG\,shirt02,match,screw02,foosballtable,blueberry01,pineapple01a,sewingmachine01a,pingpongtable,button01,comb02a,dice05a,measuringcup01,stapler04b,printer02,carrot01,watermelon01,blankImage,pingpongtable,,,,,,,,,,,,0,39,39,152,,,,,,,,,,,,,,,,,,,,,,,,,,,,,,,,,,,367.6821574999485,368.69172590004746,368.6750194999622,369.27348680002615,369.27348680002615,None,371.1953686999623,None,left,0.7254383000545204,371.1953686999623,None,371.94472529995255,None,left,0.16886350000277162,371.94472529995255,None,,,,,,,,,,,,,,,,,,,,,,,PPT12,001,2022-06-29_13h55.44.897,ABstudy,2022.1.4,60.01792138997098,
AB,Lag5_T1A_T2P,5,A,P,8,13,7,3,16,ladder,Did you see the ladder?,0.12,0.016,JPG\,apple07,toiletpaper01a,pizza,dandelion,greenolive,eraser,microscope,violin,orange,lipstick02a,balloon01b,sandal,stapler01,fan,book01b,sewingmachine01a,blankImage,ostrich,,,,,,,,,,,,0,40,40,269,,,,,,,,,,,,,,,,,,,,,,,,,,,,,,,,,,,372.192257000017,373.1960346000269,373.1790365000488,373.7591407999862,373.7591407999862,None,375.68871539994143,None,right,1.8799833999946713,375.68871539994143,None,377.6008436999982,None,left,0.3516401000088081,377.6008436999982,None,,,,,,,,,,,,,,,,,,,,,,,PPT12,001,2022-06-29_13h55.44.897,ABstudy,2022.1.4,60.01792138997098,
AB,Lag5_T1A_T2P,5,A,P,5,10,4,3,13,flower,Did you see the flower?,0.12,0.016,JPG\,cucumber,ring01,lipstick02a,microscope,violin,garlic01a,celery,lighter01,cherry01,stapler03a,belt02a,key01,binoculars01b,blankImage,blankImage,blankImage,blankImage,christmastree,,,,,,,,,,,,0,41,41,284,,,,,,,,,,,,,,,,,,,,,,,,,,,,,,,,,,,377.98908109997865,379.0022646000143,378.98565269995015,379.5596519999672,379.5596519999672,None,381.16643770004157,None,right,2.3464091999921948,381.16643770004157,None,383.5400037999498,None,left,0.26120409998111427,383.5400037999498,None,,,,,,,,,,,,,,,,,,,,,,,PPT12,001,2022-06-29_13h55.44.897,ABstudy,2022.1.4,60.01792138997098,
AB,Lag5_T1A_T2P,5,A,P,6,11,5,5,16,bed,Did you see the bed?,0.12,0.016,JPG\,cellphone,tomato01,comb02a,candy,celery,cucumber,toaster01,fan,feather03a,pen04b,stapler03b,blueberry01,plate01b,cherry01,baseball01a,candle08b,blankImage,toolbox02,,,,,,,,,,,,0,42,42,274,,,,,,,,,,,,,,,,,,,,,,,,,,,,,,,,,,,383.8958320999518,384.90785730001517,384.8911202000454,385.5040421000449,385.5040421000449,None,387.35639099997934,None,right,1.660039099981077,387.35639099997934,None,389.0454872000264,None,left,0.4987268999684602,389.0454872000264,None,,,,,,,,,,,,,,,,,,,,,,,PPT12,001,2022-06-29_13h55.44.897,ABstudy,2022.1.4,60.01792138997098,
AB,Lag5_T1P_T2P,5,P,P,8,13,7,5,18,sock,Did you see the sock?,0.12,0.016,JPG\,thermometer02b,avocado01,scissors01,tennisball01b,medal02b,banana01,strawberry,athleticsock,potato02b,pineapple01a,microscope,cymbal,stapler03b,celery,garlic01a,sunglasses04,blankImage,athleticsock,,,,,,,,,,,,0,43,43,141,,,,,,,,,,,,,,,,,,,,,,,,,,,,,,,,,,,389.56982990005054,390.5802872000495,390.5638632000191,391.14896879997104,391.14896879997104,None,393.20002919994295,None,right,1.2165476999944076,393.20002919994295,None,394.4343328999821,None,left,0.25436889997217804,394.4343328999821,None,,,,,,,,,,,,,,,,,,,,,,,PPT12,001,2022-06-29_13h55.44.897,ABstudy,2022.1.4,60.01792138997098,
AB,Lag5_T1A_T2P,5,A,P,7,12,6,3,15,Car,Did you see the Car?,0.12,0.016,JPG\,lighter01,hammer01,spoon01,chain01,cymbal,sponge01,lipstick02a,alligator,pig,watermelon01,cauliflower01,stapler03b,broccoli01a,tableknife02,tennisball01b,blankImage,blankImage,wallclock,,,,,,,,,,,,0,44,44,277,,,,,,,,,,,,,,,,,,,,,,,,,,,,,,,,,,,394.72258439997677,395.73557330004405,395.71859649999533,396.28409089997876,396.28409089997876,None,398.1637769000372,None,right,0.7406751000089571,398.1637769000372,None,398.9220053999452,None,left,0.2867022999562323,398.9220053999452,None,,,,,,,,,,,,,,,,,,,,,,,PPT12,001,2022-06-29_13h55.44.897,ABstudy,2022.1.4,60.01792138997098,
AB,Lag5_T1A_T2A,5,A,A,5,10,4,5,15,sword,Did you see the sword?,0.12,0.016,JPG\,pencil01,broccoli01a,button01,sponge01,watermelon01,lipstick02a,comb02a,fan,lighter01,sock01a,spoon01,blueberry01,belt02a,onion,grape01,blankImage,blankImage,parachute,,,,,,,,,,,,0,45,45,298,,,,,,,,,,,,,,,,,,,,,,,,,,,,,,,,,,,399.2423559000017,400.2562155999476,400.23952740000095,400.83238170004915,400.83238170004915,None,402.62264780001715,None,right,0.7778692999854684,402.62264780001715,None,403.4265228000004,None,left,0.741503500030376,403.4265228000004,None,,,,,,,,,,,,,,,,,,,,,,,PPT12,001,2022-06-29_13h55.44.897,ABstudy,2022.1.4,60.01792138997098,
AB,Lag5_T1P_T2P,5,P,P,7,12,6,3,15,lips,Did you see the lips?,0.12,0.016,JPG\,cigarette,fork03c,greenolive,broccoli01a,avocado01,tennisball01b,lip,leaf02a,pig,fan,clock01a,stapler03a,envelope03a,birthdaycandle,teabag,blankImage,blankImage,lip,,,,,,,,,,,,0,46,46,95,,,,,,,,,,,,,,,,,,,,,,,,,,,,,,,,,,,404.19845429994166,405.21133810002357,405.1946760000428,405.8094839999685,405.8094839999685,None,407.60488879994955,None,left,0.4114262000657618,407.60488879994955,None,408.0480069000041,None,left,0.32871909998357296,408.0480069000041,None,,,,,,,,,,,,,,,,,,,,,,,PPT12,001,2022-06-29_13h55.44.897,ABstudy,2022.1.4,60.01792138997098,
AB,Lag5_T1P_T2P,5,P,P,8,13,7,4,17,butterfly,Did you see the butterfly?,0.12,0.016,JPG\,speaker04,sewingmachine01a,eraser,violin,globe,belt02a,sunglasses04,butterfly,cd,greenolive,alligator,pear01,stapler01,screwdriver04b,banana01,cigarette,blankImage,butterfly,,,,,,,,,,,,0,47,47,126,,,,,,,,,,,,,,,,,,,,,,,,,,,,,,,,,,,408.4538128999993,409.46559190005064,409.4488401999697,410.0404197999742,410.0404197999742,None,411.87925999995787,None,right,1.4816137000452727,411.87925999995787,None,413.3872686000541,None,left,0.48549700004514307,413.3872686000541,None,,,,,,,,,,,,,,,,,,,,,,,PPT12,001,2022-06-29_13h55.44.897,ABstudy,2022.1.4,60.01792138997098,
AB,Lag5_T1P_T2P,5,P,P,5,10,4,5,15,penguin,Did you see the penguin?,0.12,0.016,JPG\,watermelon01,cigarette,pintofbeer,cymbal,penguin,feather03a,cherry01,broom01,battery02b,stapler05,baseball01a,iron01b,garlic01a,computerkeyboard02,pig,blankImage,blankImage,penguin,,,,,,,,,,,,0,48,48,137,,,,,,,,,,,,,,,,,,,,,,,,,,,,,,,,,,,413.9106219999958,414.9206622999627,414.9040087000467,415.48845319997054,415.48845319997054,None,417.21346750005614,None,left,0.4118138001067564,417.21346750005614,None,417.6568223000504,None,left,0.20770210004411638,417.6568223000504,None,,,,,,,,,,,,,,,,,,,,,,,PPT12,001,2022-06-29_13h55.44.897,ABstudy,2022.1.4,60.01792138997098,
AB,Lag1_T1P_T2P,1,P,P,7,8,6,5,13,disco ball,Did you see the disco ball?,0.12,0.016,JPG\,candle01,paintbrush01,scissors01,fan,microscope,toothbrush03b,discoball,stapler03b,teabag,pencil01,lemon02,ashtray01,shirt02,blankImage,blankImage,blankImage,blankImage,discoball,,,,,,,,,,,,0,49,49,60,,,,,,,,,,,,,,,,,,,,,,,,,,,,,,,,,,,417.89270810002927,418.9081780000124,418.8747747000307,419.4450461999513,419.4450461999513,None,421.0796930999495,None,left,0.3845940000610426,421.0796930999495,None,421.49402820004616,None,left,0.18650770001113415,421.49402820004616,None,,,,,,,,,,,,,,,,,,,,,,,PPT12,001,2022-06-29_13h55.44.897,ABstudy,2022.1.4,60.01792138997098,
AB,Lag5_T1A_T2P,5,A,P,7,12,6,4,16,scooter,Did you see the scooter?,0.12,0.016,JPG\,cigarette,pig,banana01,strawberry,clock01a,plate01b,spoon01,blueberry01,battery02b,pineapple01a,chain01,stapler05,candy,pen04b,teabag,birthdaycandle,blankImage,1nose,,,,,,,,,,,,0,50,50,268,,,,,,,,,,,,,,,,,,,,,,,,,,,,,,,,,,,421.71318209997844,422.728630800033,422.6952377000125,423.2890679000411,423.2890679000411,None,425.1549448999576,None,right,1.6789300000527874,425.1549448999576,None,426.86611679999623,None,left,0.22262050001882017,426.86611679999623,None,,,,,,,,,,,,,,,,,,,,,,,PPT12,001,2022-06-29_13h55.44.897,ABstudy,2022.1.4,60.01792138997098,
AB,Lag1_T1P_T2P,1,P,P,7,8,6,3,11,cloud,Did you see the cloud?,0.12,0.016,JPG\,lighter01,hammer01,spoon01,chain01,cymbal,sponge01,cloud,stapler06,pig,watermelon01,cauliflower01,blankImage,blankImage,blankImage,blankImage,blankImage,blankImage,cloud,,,,,,,,,,,,0,51,51,36,,,,,,,,,,,,,,,,,,,,,,,,,,,,,,,,,,,427.11864640004933,428.1343091999879,428.10070129996166,428.6826363999862,428.6826363999862,None,430.00708490004763,None,left,0.4570819999789819,430.00708490004763,None,430.48765449994244,None,left,0.1845832000253722,430.48765449994244,None,,,,,,,,,,,,,,,,,,,,,,,PPT12,001,2022-06-29_13h55.44.897,ABstudy,2022.1.4,60.01792138997098,
AB,Lag5_T1P_T2P,5,P,P,6,11,5,4,15,shovel,Did you see the shovel?,0.12,0.016,JPG\,carrot01,watch02a,clock04,microscope,toiletpaper01a,shovel01,alligator,ring01,brick,watermelon01,stapler03b,pencil01,measuringcup01,balloon01b,computerkeyboard02,blankImage,blankImage,shovel01,,,,,,,,,,,,0,52,52,139,,,,,,,,,,,,,,,,,,,,,,,,,,,,,,,,,,,430.75610759994015,431.7711089999648,431.75438399997074,432.36001109995414,432.36001109995414,None,434.0940105000045,None,left,1.6098618999822065,434.0940105000045,None,435.72617689997423,None,left,0.2346126000629738,435.72617689997423,None,,,,,,,,,,,,,,,,,,,,,,,PPT12,001,2022-06-29_13h55.44.897,ABstudy,2022.1.4,60.01792138997098,
AB,Lag1_T1P_T2A,1,P,A,7,8,6,4,12,gorilla,Did you see the gorilla?,0.12,0.016,JPG\,scissors01,ashtray01,garlic01a,medal02b,cigarette,candle08b,gorilla,envelope03a,cucumber,rice,toiletpaper01a,greenolive,blankImage,blankImage,blankImage,blankImage,blankImage,gorilla,,,,,,,,,,,,0,53,53,189,,,,,,,,,,,,,,,,,,,,,,,,,,,,,,,,,,,435.99967649998143,437.01054429996293,436.99501079996116,437.66466310003307,437.5978284999728,None,439.1272326000035,None,left,0.9294586000032723,439.1272326000035,None,440.0802182999905,None,right,0.2724826999474317,440.0802182999905,None,,,,,,,,,,,,,,,,,,,,,,,PPT12,001,2022-06-29_13h55.44.897,ABstudy,2022.1.4,60.01792138997098,
AB,Lag1_T1A_T2P,1,A,P,7,8,6,5,13,Horseshoe,Did you see the Horseshoe?,0.12,0.016,JPG\,leaf02a,apple07,cd,pineapple01a,envelope03a,paintbrush01,pig,stapler06,rice,feather03a,lemon02,balloon01b,avocado01,blankImage,blankImage,blankImage,blankImage,rooster,,,,,,,,,,,,0,54,54,241,,,,,,,,,,,,,,,,,,,,,,,,,,,,,,,,,,,440.39033019996714,441.3982037999667,441.3827034999849,442.0794275000226,441.9972897999687,None,443.5184871000238,None,right,0.7534583000233397,443.5184871000238,None,444.30043519998435,None,left,0.547859700047411,444.30043519998435,None,,,,,,,,,,,,,,,,,,,,,,,PPT12,001,2022-06-29_13h55.44.897,ABstudy,2022.1.4,60.01792138997098,
AB,Lag1_T1P_T2P,1,P,P,6,7,5,5,12,bat,Did you see the bat?,0.12,0.016,JPG\,comb02a,key01,medal02b,battery02b,lighter01,bat,stapler05,sandal,pig,cellphone,computerkeyboard02,calculator01,blankImage,blankImage,blankImage,blankImage,blankImage,bat,,,,,,,,,,,,0,55,55,35,,,,,,,,,,,,,,,,,,,,,,,,,,,,,,,,,,,444.8708128000144,445.8851311999606,445.8520361999981,446.42021280003246,446.42021280003246,None,447.92490280000493,None,left,0.4828801000257954,447.92490280000493,None,448.4377557999687,None,left,0.2106844000518322,448.4377557999687,None,,,,,,,,,,,,,,,,,,,,,,,PPT12,001,2022-06-29_13h55.44.897,ABstudy,2022.1.4,60.01792138997098,
AB,Lag1_T1P_T2P,1,P,P,8,9,7,4,13,dart board,Did you see the dart board?,0.12,0.016,JPG\,rice,watermelon01,tableknife02,scarf,computerkeyboard02,cauliflower01,battery02b,dartboard,stapler01,sandal,sponge01,microscope,tomato01,blankImage,blankImage,blankImage,blankImage,dartboard,,,,,,,,,,,,0,56,56,80,,,,,,,,,,,,,,,,,,,,,,,,,,,,,,,,,,,448.67624139995314,449.68885170004796,449.6724890000187,450.27065349998884,450.27065349998884,None,451.8667255999753,None,left,1.5022171000018716,451.8667255999753,None,453.39284470002167,None,left,0.5432925999630243,453.39284470002167,None,,,,,,,,,,,,,,,,,,,,,,,PPT12,001,2022-06-29_13h55.44.897,ABstudy,2022.1.4,60.01792138997098,
AB,Lag1_T1P_T2P,1,P,P,8,9,7,3,12,Eiffel tower,Did you see the Eiffel tower?,0.12,0.016,JPG\,celery,tennisball01b,calculator01,pear01,screw02,orange,button01,eiffeltower,stapler03b,apple07,iron01b,brownsugar,blankImage,blankImage,blankImage,blankImage,blankImage,eiffeltower,,,,,,,,,,,,0,57,57,40,,,,,,,,,,,,,,,,,,,,,,,,,,,,,,,,,,,453.9703954999568,454.9777337999549,454.96096249995753,455.5287097999826,455.5287097999826,None,456.91476720001083,None,left,0.31715839996468276,456.91476720001083,None,457.2652379999636,None,left,0.2159879000391811,457.2652379999636,None,,,,,,,,,,,,,,,,,,,,,,,PPT12,001,2022-06-29_13h55.44.897,ABstudy,2022.1.4,60.01792138997098,
AB,Lag5_T1P_T2A,5,P,A,7,12,6,3,15,helmet,Did you see the helmet?,0.12,0.016,JPG\,fork03c,belt02a,grape01,computerkeyboard02,lemon02,printer02,skihelmet01,toiletpaper01a,toaster01,lipstick02a,book01b,blueberry01,spoon01,apple07,avocado01,blankImage,blankImage,skihelmet01,,,,,,,,,,,,0,58,58,225,,,,,,,,,,,,,,,,,,,,,,,,,,,,,,,,,,,457.5153720000526,458.5308804999804,458.49749410001095,459.06628739996813,459.06628739996813,None,460.93372119998094,None,left,0.3786833999911323,460.93372119998094,None,461.3334965000395,None,left,0.17107240005861968,461.3334965000395,None,,,,,,,,,,,,,,,,,,,,,,,PPT12,001,2022-06-29_13h55.44.897,ABstudy,2022.1.4,60.01792138997098,
AB,Lag5_T1P_T2A,5,P,A,8,13,7,3,16,leaf blower,Did you see the leaf blower?,0.12,0.016,JPG\,printer02,leaf02a,cauliflower01,sock01a,brownsugar,paintbrush01,pig,leafblower01,belt02a,shirt02,key01,match,cigarette,scissors01,envelope03a,blueberry01,blankImage,leafblower01,,,,,,,,,,,,0,59,59,216,,,,,,,,,,,,,,,,,,,,,,,,,,,,,,,,,,,461.5361306000268,462.5514844999416,462.51816500001587,463.0991757999873,463.0991757999873,None,465.07980890001636,None,left,0.6249549000058323,465.07980890001636,None,465.7212623000378,None,right,0.30334500002209097,465.7212623000378,None,,,,,,,,,,,,,,,,,,,,,,,PPT12,001,2022-06-29_13h55.44.897,ABstudy,2022.1.4,60.01792138997098,
AB,Lag5_T1A_T2P,5,A,P,7,12,6,3,15,hockey puck,Did you see the hockey puck?,0.12,0.016,JPG\,toiletpaper01a,lipstick02a,potato02b,speaker04,globe,strawberry,carrot01,plate01b,sock01a,candle08b,pen04b,stapler04b,foosballtable,brick,pear01,blankImage,blankImage,frisbee,,,,,,,,,,,,0,60,60,260,,,,,,,,,,,,,,,,,,,,,,,,,,,,,,,,,,,466.0588031000225,467.0728866000427,467.0561494999565,467.64534199994523,467.64534199994523,None,469.49198479996994,None,right,3.332742300000973,469.49198479996994,None,472.8451177000534,None,right,0.6914443999994546,472.8451177000534,None,,,,,,,,,,,,,,,,,,,,,,,PPT12,001,2022-06-29_13h55.44.897,ABstudy,2022.1.4,60.01792138997098,
AB,Lag1_T1P_T2P,1,P,P,7,8,6,3,11,compass,Did you see the compass?,0.12,0.016,JPG\,brick,plate01b,pen04b,toaster01,screwdriver04b,candle01,magneticcompass,stapler03a,pig,ring01,orange,blankImage,blankImage,blankImage,blankImage,blankImage,blankImage,magneticcompass,,,,,,,,,,,,0,61,61,66,,,,,,,,,,,,,,,,,,,,,,,,,,,,,,,,,,,473.5653405999765,474.5802096000407,474.5467883000383,475.1261624000035,475.1261624000035,None,476.4690586000215,None,left,0.5468761000083759,476.4690586000215,None,477.0330285000382,None,left,0.4472004999406636,477.0330285000382,None,,,,,,,,,,,,,,,,,,,,,,,PPT12,001,2022-06-29_13h55.44.897,ABstudy,2022.1.4,60.01792138997098,
AB,Lag1_T1P_T2A,1,P,A,7,8,6,3,11,Snowshoe,Did you see the Snowshoe?,0.12,0.016,JPG\,birthdaycandle,mushroom01,strawberry,match,cherry01,eraser,snowshoe,thermometer02b,sock01a,ring01,feather03a,blankImage,blankImage,blankImage,blankImage,blankImage,blankImage,snowshoe,,,,,,,,,,,,0,62,62,194,,,,,,,,,,,,,,,,,,,,,,,,,,,,,,,,,,,477.5055296999635,478.5174964000471,478.5009516000282,479.00194159999955,479.00194159999955,None,480.3951714000432,None,right,0.8688403000123799,480.3951714000432,None,481.2872247999767,None,right,0.5847985000582412,481.2872247999767,None,,,,,,,,,,,,,,,,,,,,,,,PPT12,001,2022-06-29_13h55.44.897,ABstudy,2022.1.4,60.01792138997098,
AB,Lag5_T1P_T2P,5,P,P,5,10,4,3,13,rose,Did you see the rose?,0.12,0.016,JPG\,lipstick02a,cucumber,candle08b,printer02,rose,violin,paintbrush01,lighter01,belt02a,stapler03b,thermometer02b,microscope,cigarette,blankImage,blankImage,blankImage,blankImage,rose,,,,,,,,,,,,0,63,63,158,,,,,,,,,,,,,,,,,,,,,,,,,,,,,,,,,,,481.90761019999627,482.9218189000385,482.88878529996146,483.46229209995363,483.46229209995363,None,485.0441582000349,None,left,0.8595771000254899,485.0441582000349,None,485.9251694000559,None,right,0.4515993999084458,485.9251694000559,None,,,,,,,,,,,,,,,,,,,,,,,PPT12,001,2022-06-29_13h55.44.897,ABstudy,2022.1.4,60.01792138997098,
AB,Lag1_T1P_T2P,1,P,P,5,6,4,4,10,skateboard,Did you see the skateboard?,0.12,0.016,JPG\,binoculars01b,cymbal,pizza,candy,skateboard,stapler05,grape01,thermometer02b,speaker04,lemon02,blankImage,blankImage,blankImage,blankImage,blankImage,blankImage,blankImage,skateboard,,,,,,,,,,,,0,64,64,25,,,,,,,,,,,,,,,,,,,,,,,,,,,,,,,,,,,486.4148802999407,487.4265358999837,487.409726300044,487.98939520004205,487.98939520004205,None,489.26039059995674,None,left,0.5321030999766663,489.26039059995674,None,489.81198530003894,None,left,0.24431830004323274,489.81198530003894,None,,,,,,,,,,,,,,,,,,,,,,,PPT12,001,2022-06-29_13h55.44.897,ABstudy,2022.1.4,60.01792138997098,
AB,Lag1_T1A_T2P,1,A,P,6,7,5,5,12,Piano,Did you see the Piano?,0.12,0.016,JPG\,toiletpaper01a,mushroom01,medal02b,sandal,rice,cd,stapler01,pizza,candle08b,garlic01a,toaster01,belt02a,blankImage,blankImage,blankImage,blankImage,blankImage,moose,,,,,,,,,,,,0,65,65,239,,,,,,,,,,,,,,,,,,,,,,,,,,,,,,,,,,,490.08205750002526,491.09641530003864,491.0637382999994,491.6580735000316,491.6580735000316,None,493.1536511000013,None,right,0.8955260999500751,493.1536511000013,None,494.0662924000062,None,left,0.3267908999696374,494.0662924000062,None,,,,,,,,,,,,,,,,,,,,,,,PPT12,001,2022-06-29_13h55.44.897,ABstudy,2022.1.4,60.01792138997098,
AB,Lag5_T1P_T2P,5,P,P,6,11,5,5,16,microwave,Did you see the microwave?,0.12,0.016,JPG\,pen04b,speaker04,lighter01,cherry01,weight04a,microwave,sock01a,toothbrush03b,broom01,sewingmachine01a,stapler06,iron01b,clock01a,sandal,cd,blueberry01,blankImage,microwave,,,,,,,,,,,,0,66,66,136,,,,,,,,,,,,,,,,,,,,,,,,,,,,,,,,,,,494.419550599996,495.4342504000524,495.4009132999927,495.9692355999723,495.9692355999723,None,497.9534042000305,None,left,0.7120128999231383,497.9534042000305,None,498.68833579996135,None,left,0.30407880002167076,498.68833579996135,None,,,,,,,,,,,,,,,,,,,,,,,PPT12,001,2022-06-29_13h55.44.897,ABstudy,2022.1.4,60.01792138997098,
AB,Lag5_T1P_T2P,5,P,P,5,10,4,4,14,bell,Did you see the bell?,0.12,0.016,JPG\,teabag,envelope03a,cellphone,apple07,callbell,orange,brownsugar,book01b,hammer01,stapler03b,toaster01,calculator01,globe,battery02b,blankImage,blankImage,blankImage,callbell,,,,,,,,,,,,0,67,67,147,,,,,,,,,,,,,,,,,,,,,,,,,,,,,,,,,,,499.02462799998466,500.03919659997337,500.00574359996244,500.6315776000265,500.6315776000265,None,502.30656860000454,None,left,1.7098784999689087,502.30656860000454,None,504.0427766999928,None,left,0.5414244000567123,504.0427766999928,None,,,,,,,,,,,,,,,,,,,,,,,PPT12,001,2022-06-29_13h55.44.897,ABstudy,2022.1.4,60.01792138997098,
AB,Lag1_T1A_T2P,1,A,P,6,7,5,3,10,curtain,Did you see the curtain?,0.12,0.016,JPG\,carrot01,greenolive,fork03c,chain01,ashtray01,watermelon01,stapler06,printer02,comb02a,toaster01,blankImage,blankImage,blankImage,blankImage,blankImage,blankImage,blankImage,birdhouse,,,,,,,,,,,,0,68,68,249,,,,,,,,,,,,,,,,,,,,,,,,,,,,,,,,,,,504.61236499994993,505.62773009995,505.59437369997613,506.1773685000371,506.1773685000371,None,507.4476309999591,None,right,0.8239605000708252,507.4476309999591,None,508.2970081999665,None,right,0.4387001999421045,508.2970081999665,None,,,,,,,,,,,,,,,,,,,,,,,PPT12,001,2022-06-29_13h55.44.897,ABstudy,2022.1.4,60.01792138997098,
AB,Lag5_T1P_T2P,5,P,P,5,10,4,4,14,Christmas lights,Did you see the Christmas lights?,0.12,0.016,JPG\,binoculars01b,cymbal,pizza,candy,christmaslights,sponge01,grape01,thermometer02b,speaker04,stapler03a,lipstick02a,strawberry,candle01,tambourine02,blankImage,blankImage,blankImage,christmaslights,,,,,,,,,,,,0,69,69,168,,,,,,,,,,,,,,,,,,,,,,,,,,,,,,,,,,,508.7681255999487,509.78163560002577,509.76498760003597,510.3506692999508,510.3506692999508,None,512.03711689997,None,left,0.7389515000395477,512.03711689997,None,512.8014663000358,None,right,0.30262860003858805,512.8014663000358,None,,,,,,,,,,,,,,,,,,,,,,,PPT12,001,2022-06-29_13h55.44.897,ABstudy,2022.1.4,60.01792138997098,
AB,Lag1_T1P_T2P,1,P,P,8,9,7,3,12,bridge,Did you see the bridge?,0.12,0.016,JPG\,speaker04,sewingmachine01a,eraser,violin,globe,belt02a,sunglasses04,bridge,stapler01,greenolive,alligator,pear01,blankImage,blankImage,blankImage,blankImage,blankImage,bridge,,,,,,,,,,,,0,70,70,78,,,,,,,,,,,,,,,,,,,,,,,,,,,,,,,,,,,513.178129900014,514.1864468000131,514.1529751999769,514.7704743000213,514.7704743000213,None,516.1778728000354,None,left,0.6216516999993473,516.1778728000354,None,516.8225413999753,None,left,0.34602390008512884,516.8225413999753,None,,,,,,,,,,,,,,,,,,,,,,,PPT12,001,2022-06-29_13h55.44.897,ABstudy,2022.1.4,60.01792138997098,
AB,Lag1_T1P_T2P,1,P,P,6,7,5,3,10,drum sticks,Did you see the drum sticks?,0.12,0.016,JPG\,pineapple01a,tennisball01b,computerkeyboard02,feather03a,belt02a,drumstick,stapler03b,blueberry01,medal02b,alligator,blankImage,blankImage,blankImage,blankImage,blankImage,blankImage,blankImage,drumstick,,,,,,,,,,,,0,71,71,61,,,,,,,,,,,,,,,,,,,,,,,,,,,,,,,,,,,517.1959655999672,518.2071121999761,518.19034500001,518.7836978000123,518.7836978000123,None,519.9435733000282,None,left,0.8729267999297008,519.9435733000282,None,520.8428154999856,None,left,0.4534620000049472,520.8428154999856,None,,,,,,,,,,,,,,,,,,,,,,,PPT12,001,2022-06-29_13h55.44.897,ABstudy,2022.1.4,60.01792138997098,
AB,Lag1_T1P_T2P,1,P,P,6,7,5,3,10,cupcake,Did you see the cupcake?,0.12,0.016,JPG\,printer02,leaf02a,cauliflower01,sock01a,brownsugar,cupcake,stapler01,orange,belt02a,shirt02,blankImage,blankImage,blankImage,blankImage,blankImage,blankImage,blankImage,cupcake,,,,,,,,,,,,0,72,72,38,,,,,,,,,,,,,,,,,,,,,,,,,,,,,,,,,,,521.3302581999451,522.344401899958,522.3277746000094,522.9942955999868,522.9168844999513,None,524.1812759999884,None,left,0.530623700004071,524.1812759999884,None,524.7445622000378,None,right,0.3029962000437081,524.7445622000378,None,,,,,,,,,,,,,,,,,,,,,,,PPT12,001,2022-06-29_13h55.44.897,ABstudy,2022.1.4,60.01792138997098,
AB,Lag1_T1P_T2P,1,P,P,5,6,4,5,11,football,Did you see the football?,0.12,0.016,JPG\,globe,belt02a,sponge01,violin,soccerball,stapler01,clock01a,microscope,balloon01b,scarf,teabag,blankImage,blankImage,blankImage,blankImage,blankImage,blankImage,soccerball,,,,,,,,,,,,0,73,73,26,,,,,,,,,,,,,,,,,,,,,,,,,,,,,,,,,,,525.0740749000106,526.0814136000117,526.0665883000474,526.7479912999552,526.6582629999612,None,527.9915110999718,None,left,0.3999755000695586,527.9915110999718,None,528.4194443000015,None,left,0.1726622999412939,528.4194443000015,None,,,,,,,,,,,,,,,,,,,,,,,PPT12,001,2022-06-29_13h55.44.897,ABstudy,2022.1.4,60.01792138997098,
AB,Lag5_T1P_T2A,5,P,A,8,13,7,4,17,fountain,Did you see the fountain?,0.12,0.016,JPG\,printer02,envelope03a,potato02b,calculator01,tableknife02,cigarette,ashtray01,parkfountain,broom01,greenolive,candle08b,battery02b,strawberry,candle01,foosballtable,tennisball01b,blankImage,parkfountain,,,,,,,,,,,,0,74,74,219,,,,,,,,,,,,,,,,,,,,,,,,,,,,,,,,,,,528.6194843000267,529.6349016999593,529.6014841999859,530.1824499999639,530.1824499999639,None,532.1686603999697,None,left,0.43951170006766915,532.1686603999697,None,532.6378774000332,None,right,0.5782000999897718,532.6378774000332,None,,,,,,,,,,,,,,,,,,,,,,,PPT12,001,2022-06-29_13h55.44.897,ABstudy,2022.1.4,60.01792138997098,
AB,Lag1_T1A_T2P,1,A,P,5,6,4,4,10,Bull,Did you see the Bull?,0.12,0.016,JPG\,celery,pencil01,fan,foosballtable,iron01b,stapler01,potato02b,fork03c,button01,pineapple01a,blankImage,blankImage,blankImage,blankImage,blankImage,blankImage,blankImage,spiderweb,,,,,,,,,,,,0,75,75,244,,,,,,,,,,,,,,,,,,,,,,,,,,,,,,,,,,,533.2434963999549,534.2561456999974,534.2394625999732,534.8255223999731,534.8255223999731,None,536.0430758999428,None,right,0.9253833999391645,536.0430758999428,None,536.9922178999986,None,right,0.8871845999965444,536.9922178999986,None,,,,,,,,,,,,,,,,,,,,,,,PPT12,001,2022-06-29_13h55.44.897,ABstudy,2022.1.4,60.01792138997098,
AB,Lag5_T1P_T2P,5,P,P,5,10,4,3,13,bathtub,Did you see the bathtub?,0.12,0.016,JPG\,belt02a,sunglasses04,computerkeyboard02,cherry01,bathtub,eraser,watch02a,dice05a,blueberry01,stapler04b,match,leaf02a,iron01b,blankImage,blankImage,blankImage,blankImage,bathtub,,,,,,,,,,,,0,76,76,103,,,,,,,,,,,,,,,,,,,,,,,,,,,,,,,,,,,537.9121307999594,538.9275369000388,538.894117900054,539.4731906000525,539.4731906000525,None,541.0634740999667,None,left,1.1851237000664696,541.0634740999667,None,542.2810370000079,None,left,2.1504886000184342,542.2810370000079,None,,,,,,,,,,,,,,,,,,,,,,,PPT12,001,2022-06-29_13h55.44.897,ABstudy,2022.1.4,60.01792138997098,
AB,Lag5_T1P_T2P,5,P,P,7,12,6,4,16,flower,Did you see the flower?,0.12,0.016,JPG\,cucumber,sponge01,alligator,pear01,ashtray01,hammer01,hibiscusflower02,battery02b,fork03c,binoculars01b,mushroom01,stapler01,leaf02a,acorn,comb02a,screwdriver04b,blankImage,hibiscusflower02,,,,,,,,,,,,0,77,77,132,,,,,,,,,,,,,,,,,,,,,,,,,,,,,,,,,,,544.4541701000417,545.4674804999959,545.4507883000188,546.0318689999403,546.0318689999403,None,547.9792569000274,None,left,3.86043979995884,547.9792569000274,None,551.8569861999713,None,left,0.2147623999044299,551.8569861999713,None,,,,,,,,,,,,,,,,,,,,,,,PPT12,001,2022-06-29_13h55.44.897,ABstudy,2022.1.4,60.01792138997098,
AB,Lag1_T1A_T2P,1,A,P,5,6,4,3,9,Crown,Did you see the Crown?,0.12,0.016,JPG\,leaf02a,pear01,measuringcup01,cigarette,fan,stapler04b,teabag,tableknife02,ring01,blankImage,blankImage,blankImage,blankImage,blankImage,blankImage,blankImage,blankImage,arrow02,,,,,,,,,,,,0,78,78,248,,,,,,,,,,,,,,,,,,,,,,,,,,,,,,,,,,,552.0928112999536,553.1082401999738,553.0749333000276,553.6456220999826,553.6456220999826,None,554.7637347000418,None,right,1.0769065999193117,554.7637347000418,None,555.8615983000491,None,left,0.7147085999604315,555.8615983000491,None,,,,,,,,,,,,,,,,,,,,,,,PPT12,001,2022-06-29_13h55.44.897,ABstudy,2022.1.4,60.01792138997098,
AB,Lag1_T1P_T2P,1,P,P,8,9,7,4,13,crab,Did you see the crab?,0.12,0.016,JPG\,candle01,fork03c,plate01b,violin,computerkeyboard02,candy,calculator01,crab01,stapler04b,sock01a,teabag,banana01,cd,blankImage,blankImage,blankImage,blankImage,crab01,,,,,,,,,,,,0,79,79,37,,,,,,,,,,,,,,,,,,,,,,,,,,,,,,,,,,,556.5988275000127,557.6129053999903,557.5794988999842,558.1623731999425,558.1623731999425,None,559.7818762999959,None,left,0.46634289994835854,559.7818762999959,None,560.2658465999411,None,left,0.27817780000623316,560.2658465999411,None,,,,,,,,,,,,,,,,,,,,,,,PPT12,001,2022-06-29_13h55.44.897,ABstudy,2022.1.4,60.01792138997098,
AB,Lag5_T1P_T2A,5,P,A,8,13,7,5,18,telescope,Did you see the telescope?,0.12,0.016,JPG\,globe,broccoli01a,binoculars01b,iron01b,avocado01,dandelion,pineapple01a,handheldtelescope,fan,pizza,celery,blueberry01,sewingmachine01a,dice05a,watermelon01,candy,blankImage,handheldtelescope,,,,,,,,,,,,0,80,80,228,,,,,,,,,,,,,,,,,,,,,,,,,,,,,,,,,,,560.5710383000551,561.5836444000015,561.5670169000514,562.1566969000269,562.1566969000269,None,564.069958099979,None,left,0.5779768000356853,564.069958099979,None,564.6698808999499,None,left,0.20998179994057864,564.6698808999499,None,,,,,,,,,,,,,,,,,,,,,,,PPT12,001,2022-06-29_13h55.44.897,ABstudy,2022.1.4,60.01792138997098,
AB,Lag1_T1P_T2P,1,P,P,8,9,7,4,13,bowling ball,Did you see the bowling ball?,0.12,0.016,JPG\,dandelion,pineapple01a,broom01,pen04b,sock01a,sandal,foosballtable,bowlingball,stapler01,toothbrush03b,celery,candle08b,tennisball01b,blankImage,blankImage,blankImage,blankImage,bowlingball,,,,,,,,,,,,0,81,81,7,,,,,,,,,,,,,,,,,,,,,,,,,,,,,,,,,,,564.9079010999994,565.92095900001,565.904375800048,566.404988400056,566.404988400056,None,568.0693621999817,None,left,0.42617380002047867,568.0693621999817,None,568.5240333999973,None,left,0.24369699996896088,568.5240333999973,None,,,,,,,,,,,,,,,,,,,,,,,PPT12,001,2022-06-29_13h55.44.897,ABstudy,2022.1.4,60.01792138997098,
AB,Lag5_T1P_T2A,5,P,A,6,11,5,3,14,Balcony,Did you see the Balcony?,0.12,0.016,JPG\,tomato01,pen04b,shirt02,carrot01,lamp04a,balcony02,pizza,avocado01,sewingmachine01a,apple07,iron01b,book01b,chain01,sock01a,blankImage,blankImage,blankImage,balcony02,,,,,,,,,,,,0,82,82,207,,,,,,,,,,,,,,,,,,,,,,,,,,,,,,,,,,,568.7929003000027,569.8081838999642,569.7748560999753,570.3561245000456,570.3561245000456,None,572.1371000000509,None,left,0.4709912999533117,572.1371000000509,None,572.6273175999522,None,right,0.22849020001012832,572.6273175999522,None,,,,,,,,,,,,,,,,,,,,,,,PPT12,001,2022-06-29_13h55.44.897,ABstudy,2022.1.4,60.01792138997098,
AB,Lag5_T1A_T2P,5,A,P,7,12,6,4,16,hand,Did you see the hand?,0.12,0.016,JPG\,celery,tennisball01b,calculator01,pear01,screw02,orange,button01,cellphone,onion,apple07,iron01b,stapler05,banana01,paintbrush01,dandelion,toothbrush03b,blankImage,bull,,,,,,,,,,,,0,83,83,281,,,,,,,,,,,,,,,,,,,,,,,,,,,,,,,,,,,572.8813504000427,573.8957216000417,573.8623245999916,574.4472537999973,574.4472537999973,None,576.4120043000439,None,right,0.4917943000327796,576.4120043000439,None,576.9348717000103,None,left,0.6407595000928268,576.9348717000103,None,,,,,,,,,,,,,,,,,,,,,,,PPT12,001,2022-06-29_13h55.44.897,ABstudy,2022.1.4,60.01792138997098,
AB,Lag5_T1P_T2P,5,P,P,8,13,7,3,16,church,Did you see the church?,0.12,0.016,JPG\,clock01a,cellphone,toaster01,toothbrush03b,cauliflower01,microscope,comb02a,church,scarf,clock04,sponge01,iron01b,stapler06,celery,ring01,ashtray01,blankImage,church,,,,,,,,,,,,0,84,84,129,,,,,,,,,,,,,,,,,,,,,,,,,,,,,,,,,,,577.6089824000373,578.6167774000205,578.6001405999996,579.1769361000042,579.1769361000042,None,581.1596959000453,None,right,0.913281699991785,581.1596959000453,None,582.1037318999879,None,left,1.2641564001096413,582.1037318999879,None,,,,,,,,,,,,,,,,,,,,,,,PPT12,001,2022-06-29_13h55.44.897,ABstudy,2022.1.4,60.01792138997098,
AB,Lag5_T1A_T2P,5,A,P,6,11,5,3,14,keys,Did you see the keys?,0.12,0.016,JPG\,pencil01,microscope,banana01,computerkeyboard02,celery,cellphone,scissors01,sock01a,book01b,onion,stapler03a,binoculars01b,baseball01a,iron01b,blankImage,blankImage,blankImage,treadmill,,,,,,,,,,,,0,85,85,275,,,,,,,,,,,,,,,,,,,,,,,,,,,,,,,,,,,583.3905829000287,584.4061221999582,584.3726890999824,584.9550422000466,584.9550422000466,None,586.6581736999797,None,right,1.3656169000314549,586.6581736999797,None,588.0442595999921,None,left,0.3008309999713674,588.0442595999921,None,,,,,,,,,,,,,,,,,,,,,,,PPT12,001,2022-06-29_13h55.44.897,ABstudy,2022.1.4,60.01792138997098,
AB,Lag5_T1P_T2A,5,P,A,5,10,4,3,13,cork,Did you see the cork?,0.12,0.016,JPG\,clock01a,grape01,plate01b,key01,cork02,feather03a,pineapple01a,iron01b,toothbrush03b,comb02a,broom01,toaster01,pizza,blankImage,blankImage,blankImage,blankImage,cork02,,,,,,,,,,,,0,86,86,209,,,,,,,,,,,,,,,,,,,,,,,,,,,,,,,,,,,588.3832318000495,589.3946402999572,589.3780500999419,589.962393600028,589.962393600028,None,591.6260140000377,None,right,0.5411210999591276,591.6260140000377,None,592.1970592000289,None,left,0.60301319998689,592.1970592000289,None,,,,,,,,,,,,,,,,,,,,,,,PPT12,001,2022-06-29_13h55.44.897,ABstudy,2022.1.4,60.01792138997098,
AB,Lag1_T1P_T2A,1,P,A,6,7,5,4,11,Road,Did you see the Road?,0.12,0.016,JPG\,pizza,printer02,medal02b,spoon01,grape01,road02,belt02a,watermelon01,celery,battery02b,screw02,blankImage,blankImage,blankImage,blankImage,blankImage,blankImage,road02,,,,,,,,,,,,0,87,87,174,,,,,,,,,,,,,,,,,,,,,,,,,,,,,,,,,,,592.8375970999477,593.8497456000187,593.834152800031,594.4385532999877,594.4385532999877,None,595.7513020000188,None,right,0.8239112999290228,595.7513020000188,None,596.601504500024,None,right,0.622579799965024,596.601504500024,None,,,,,,,,,,,,,,,,,,,,,,,PPT12,001,2022-06-29_13h55.44.897,ABstudy,2022.1.4,60.01792138997098,
AB,Lag5_T1P_T2P,5,P,P,6,11,5,4,15,shower,Did you see the shower?,0.12,0.016,JPG\,dice05a,watch02a,pig,lighter01,button01,shower,paintbrush01,microscope,plate01b,pen04b,stapler05,weight04a,carrot01,shirt02,globe,blankImage,blankImage,shower,,,,,,,,,,,,0,88,88,121,,,,,,,,,,,,,,,,,,,,,,,,,,,,,,,,,,,597.2543675999623,598.2699248000281,598.2364378999919,598.813987200032,598.813987200032,None,600.7584806999657,None,left,0.817145699984394,600.7584806999657,None,601.6066457000561,None,left,0.3692549999104813,601.6066457000561,None,,,,,,,,,,,,,,,,,,,,,,,PPT12,001,2022-06-29_13h55.44.897,ABstudy,2022.1.4,60.01792138997098,
AB,Lag5_T1P_T2P,5,P,P,7,12,6,3,15,marble,Did you see the marble?,0.12,0.016,JPG\,cigarette,ashtray01,envelope03a,sandal,chain01,cucumber,marble,tomato01,dandelion,candle01,lemon02,stapler03b,potato02b,cymbal,clock01a,blankImage,blankImage,marble,,,,,,,,,,,,0,89,89,146,,,,,,,,,,,,,,,,,,,,,,,,,,,,,,,,,,,602.0092278999509,603.0245677999919,602.9912440000335,603.5661117000272,603.5661117000272,None,605.4412351000356,None,left,0.2544096999336034,605.4412351000356,None,605.7305180999683,None,left,0.19697009993251413,605.7305180999683,None,,,,,,,,,,,,,,,,,,,,,,,PPT12,001,2022-06-29_13h55.44.897,ABstudy,2022.1.4,60.01792138997098,
AB,Lag5_T1A_T2P,5,A,P,7,12,6,4,16,flower,Did you see the flower?,0.12,0.016,JPG\,printer02,envelope03a,potato02b,calculator01,tableknife02,cigarette,ashtray01,pig,broom01,greenolive,candle08b,stapler03a,strawberry,candle01,foosballtable,tennisball01b,blankImage,calendar,,,,,,,,,,,,0,90,90,282,,,,,,,,,,,,,,,,,,,,,,,,,,,,,,,,,,,605.9549352000467,606.9615822000196,606.9449910999974,607.5221885000356,607.5221885000356,None,609.4676983000245,None,right,0.9954828999470919,609.4676983000245,None,610.4825160000473,None,left,0.9173934999853373,610.4825160000473,None,,,,,,,,,,,,,,,,,,,,,,,PPT12,001,2022-06-29_13h55.44.897,ABstudy,2022.1.4,60.01792138997098,
AB,Lag1_T1P_T2P,1,P,P,5,6,4,5,11,shark,Did you see the shark?,0.12,0.016,JPG\,cucumber,sponge01,alligator,pear01,greatwhiteshark,stapler06,clock04,battery02b,fork03c,binoculars01b,mushroom01,blankImage,blankImage,blankImage,blankImage,blankImage,blankImage,greatwhiteshark,,,,,,,,,,,,0,91,91,84,,,,,,,,,,,,,,,,,,,,,,,,,,,,,,,,,,,611.4209621000336,612.4348097000038,612.419375199941,613.0741611999692,613.0018562000478,None,614.3380832000403,None,left,0.6934471999993548,614.3380832000403,None,615.0535709999967,None,left,0.19382769998628646,615.0535709999967,None,,,,,,,,,,,,,,,,,,,,,,,PPT12,001,2022-06-29_13h55.44.897,ABstudy,2022.1.4,60.01792138997098,
AB,Lag5_T1A_T2A,5,A,A,5,10,4,5,15,flower,Did you see the flower?,0.12,0.016,JPG\,clock01a,cellphone,toaster01,toothbrush03b,cauliflower01,microscope,comb02a,paintbrush01,scarf,clock04,sponge01,iron01b,watch02a,celery,ring01,blankImage,blankImage,stepladder,,,,,,,,,,,,0,92,92,303,,,,,,,,,,,,,,,,,,,,,,,,,,,,,,,,,,,615.3255243999884,616.3378089000471,616.321202000021,616.9098139000125,616.9098139000125,None,618.6776410000166,None,right,1.042243600008078,618.6776410000166,None,619.7411836000392,None,left,0.40268239995930344,619.7411836000392,None,,,,,,,,,,,,,,,,,,,,,,,PPT12,001,2022-06-29_13h55.44.897,ABstudy,2022.1.4,60.01792138997098,
AB,Lag5_T1P_T2P,5,P,P,8,13,7,5,18,skis,Did you see the skis?,0.12,0.016,JPG\,tennisball01b,paintbrush01,medal02b,apple07,speaker04,iron01b,avocado01,downhillski,belt02a,toiletpaper01a,watermelon01,candle01,stapler01,cymbal,ashtray01,screwdriver04b,blankImage,downhillski,,,,,,,,,,,,0,93,93,106,,,,,,,,,,,,,,,,,,,,,,,,,,,,,,,,,,,620.1777502000332,621.1929325000383,621.1596558999736,621.7534229999874,621.7534229999874,None,623.7218935999554,None,right,0.9096072000684217,623.7218935999554,None,624.6630973999854,None,left,0.7518914000829682,624.6630973999854,None,,,,,,,,,,,,,,,,,,,,,,,PPT12,001,2022-06-29_13h55.44.897,ABstudy,2022.1.4,60.01792138997098,
AB,Lag1_T1A_T2A,1,A,A,8,9,7,5,14,Ping pong Table,Did you see the Ping pong Table?,0.12,0.016,JPG\,pineapple01a,tennisball01b,computerkeyboard02,feather03a,belt02a,acorn,violin,blueberry01,medal02b,alligator,greenolive,screwdriver04b,potato02b,fork03c,blankImage,blankImage,blankImage,statue,,,,,,,,,,,,0,94,94,287,,,,,,,,,,,,,,,,,,,,,,,,,,,,,,,,,,,625.4551411999855,626.4656000999967,626.450034199981,627.1147444000235,627.0389260000084,None,628.7105499999598,None,right,0.7531848000362515,628.7105499999598,None,629.4842517999932,None,right,0.7553365000057966,629.4842517999932,None,,,,,,,,,,,,,,,,,,,,,,,PPT12,001,2022-06-29_13h55.44.897,ABstudy,2022.1.4,60.01792138997098,
AB,Lag1_T1P_T2P,1,P,P,8,9,7,5,14,helicopter,Did you see the helicopter?,0.12,0.016,JPG\,broom01,globe,cellphone,tableknife02,cauliflower01,scissors01,ring01,helicopter,stapler01,toaster01,cigarette,grape01,microscope,cucumber,blankImage,blankImage,blankImage,helicopter,,,,,,,,,,,,0,95,95,85,,,,,,,,,,,,,,,,,,,,,,,,,,,,,,,,,,,630.2722143999999,631.2859893999994,631.2696199000347,631.9191380999982,631.8439883999527,None,633.5246760000009,None,right,1.6428739000111818,633.5246760000009,None,635.1898724000202,None,left,0.37762150005437434,635.1898724000202,None,,,,,,,,,,,,,,,,,,,,,,,PPT12,001,2022-06-29_13h55.44.897,ABstudy,2022.1.4,60.01792138997098,
AB,Lag1_T1P_T2A,1,P,A,7,8,6,5,13,Well,Did you see the Well?,0.12,0.016,JPG\,leaf02a,apple07,cd,pineapple01a,envelope03a,paintbrush01,well,acorn,rice,feather03a,lemon02,balloon01b,avocado01,blankImage,blankImage,blankImage,blankImage,well,,,,,,,,,,,,0,96,96,178,,,,,,,,,,,,,,,,,,,,,,,,,,,,,,,,,,,635.5925423000008,636.6079729000339,636.5746521999827,637.1496316000121,637.1496316000121,None,638.768655700027,None,right,1.1987285000504926,638.768655700027,None,639.9947322000517,None,left,0.5250544999726117,639.9947322000517,None,,,,,,,,,,,,,,,,,,,,,,,PPT12,001,2022-06-29_13h55.44.897,ABstudy,2022.1.4,60.01792138997098,
AB,Lag5_T1P_T2P,5,P,P,6,11,5,5,16,table,Did you see the table?,0.12,0.016,JPG\,birthdaycandle,mushroom01,strawberry,match,cherry01,table01,hammer01,thermometer02b,sock01a,ring01,stapler06,banana01,toiletpaper01a,key01,sponge01,teabag,blankImage,table01,,,,,,,,,,,,0,97,97,144,,,,,,,,,,,,,,,,,,,,,,,,,,,,,,,,,,,640.5475135999732,641.5629194000503,641.5295498999767,642.0300688999705,642.0300688999705,None,644.0416294999886,None,left,1.4702430999604985,644.0416294999886,None,645.5335481000366,None,left,0.29025650001131,645.5335481000366,None,,,,,,,,,,,,,,,,,,,,,,,PPT12,001,2022-06-29_13h55.44.897,ABstudy,2022.1.4,60.01792138997098,
AB,Lag1_T1P_T2P,1,P,P,8,9,7,5,14,bullet,Did you see the bullet?,0.12,0.016,JPG\,measuringcup01,dice05a,greenolive,lipstick02a,feather03a,balloon01b,lighter01,bullet,stapler04b,plate01b,microscope,brick,thermometer02b,screw02,blankImage,blankImage,blankImage,bullet,,,,,,,,,,,,0,98,98,57,,,,,,,,,,,,,,,,,,,,,,,,,,,,,,,,,,,645.8527697999962,646.8683810000075,646.8348935999675,647.417705800035,647.417705800035,None,649.153721199953,None,left,0.6454989000922069,649.153721199953,None,649.821176999947,None,right,0.2740775999845937,649.821176999947,None,,,,,,,,,,,,,,,,,,,,,,,PPT12,001,2022-06-29_13h55.44.897,ABstudy,2022.1.4,60.01792138997098,
AB,Lag5_T1A_T2P,5,A,P,8,13,7,4,17,wrench,Did you see the wrench?,0.12,0.016,JPG\,clock01a,grape01,plate01b,key01,screwdriver04b,feather03a,pineapple01a,iron01b,toothbrush03b,comb02a,broom01,toaster01,stapler05,garlic01a,match,ashtray01,blankImage,seal,,,,,,,,,,,,0,99,99,272,,,,,,,,,,,,,,,,,,,,,,,,,,,,,,,,,,,650.1236932999454,651.139060699963,651.1056846999563,651.6867589999456,651.6867589999456,None,653.6797826000256,None,right,0.4719393999548629,653.6797826000256,None,654.1753694999497,None,right,0.3602792000165209,654.1753694999497,None,,,,,,,,,,,,,,,,,,,,,,,PPT12,001,2022-06-29_13h55.44.897,ABstudy,2022.1.4,60.01792138997098,
AB,Lag5_T1P_T2P,5,P,P,7,12,6,5,17,tie,Did you see the tie?,0.12,0.016,JPG\,iron01b,orange,birthdaycandle,potato02b,cauliflower01,pencil01,tie02,candle08b,celery,tableknife02,pen04b,stapler06,ring01,rice,lemon02,tomato01,blankImage,tie02,,,,,,,,,,,,0,100,100,161,,,,,,,,,,,,,,,,,,,,,,,,,,,,,,,,,,,654.562333400012,655.5770284000318,655.5436303999741,656.186552500003,656.186552500003,None,658.1351686000125,None,left,0.632614600006491,658.1351686000125,None,658.7967393000145,None,right,0.2678941000485793,658.7967393000145,None,,,,,,,,,,,,,,,,,,,,,,,PPT12,001,2022-06-29_13h55.44.897,ABstudy,2022.1.4,60.01792138997098,
AB,Lag5_T1P_T2A,5,P,A,6,11,5,4,15,Spear,Did you see the Spear?,0.12,0.016,JPG\,belt02a,measuringcup01,spoon01,chain01,greenolive,spear02,computerkeyboard02,onion,fan,strawberry,candle01,broom01,binoculars01b,ashtray01,pingpongpaddle01c,blankImage,blankImage,spear02,,,,,,,,,,,,0,101,101,227,,,,,,,,,,,,,,,,,,,,,,,,,,,,,,,,,,,659.1584241000237,660.1649300999707,660.1482075999957,660.7385520000244,660.7385520000244,None,662.490138299996,None,right,0.8859756999881938,662.490138299996,None,663.4012342999922,None,left,0.4857001000782475,663.4012342999922,None,,,,,,,,,,,,,,,,,,,,,,,PPT12,001,2022-06-29_13h55.44.897,ABstudy,2022.1.4,60.01792138997098,
AB,Lag1_T1P_T2P,1,P,P,8,9,7,5,14,lawn mower,Did you see the lawn mower?,0.12,0.016,JPG\,battery02b,sunglasses04,pear01,tennisball01b,clock01a,speaker04,binoculars01b,lawnmower,stapler05,pineapple01a,avocado01,grape01,blueberry01,violin,blankImage,blankImage,blankImage,lawnmower,,,,,,,,,,,,0,102,102,46,,,,,,,,,,,,,,,,,,,,,,,,,,,,,,,,,,,663.9209254999878,664.9361803999636,664.9027954000048,665.5073449000483,665.5073449000483,None,667.2911624000408,None,left,0.6759674999630079,667.2911624000408,None,667.9897876000032,None,right,0.2411767999874428,667.9897876000032,None,,,,,,,,,,,,,,,,,,,,,,,PPT12,001,2022-06-29_13h55.44.897,ABstudy,2022.1.4,60.01792138997098,
AB,Lag5_T1A_T2P,5,A,P,6,11,5,5,16,baseball bat,Did you see the baseball bat?,0.12,0.016,JPG\,avocado01,aceofdiamond,match,cauliflower01,paintbrush01,clock01a,pig,cd,balloon01b,cellphone,stapler01,pear01,toaster01,sponge01,orange,blueberry01,blankImage,stool01,,,,,,,,,,,,0,103,103,273,,,,,,,,,,,,,,,,,,,,,,,,,,,,,,,,,,,668.2611577999778,669.2740322999889,669.2574935000157,669.8327800000552,669.8327800000552,None,671.7998574000085,None,right,1.0079920999705791,671.7998574000085,None,672.8279780000448,None,left,0.29976750002242625,672.8279780000448,None,,,,,,,,,,,,,,,,,,,,,,,PPT12,001,2022-06-29_13h55.44.897,ABstudy,2022.1.4,60.01792138997098,
AB,Lag5_T1P_T2P,5,P,P,6,11,5,5,16,motorcycle,Did you see the motorcycle?,0.12,0.016,JPG\,cucumber,ring01,lipstick02a,microscope,violin,motorcycle,celery,lighter01,cherry01,sewingmachine01a,stapler04b,key01,binoculars01b,medal02b,watermelon01,dice05a,blankImage,motorcycle,,,,,,,,,,,,0,104,104,93,,,,,,,,,,,,,,,,,,,,,,,,,,,,,,,,,,,673.148929100018,674.1622320000315,674.1454483999405,674.7261868000496,674.7261868000496,None,676.7092646999517,None,right,3.6661225999705493,676.7092646999517,None,680.4045067999978,None,left,0.4105707999551669,680.4045067999978,None,,,,,,,,,,,,,,,,,,,,,,,PPT12,001,2022-06-29_13h55.44.897,ABstudy,2022.1.4,60.01792138997098,
AB,Lag5_T1P_T2P,5,P,P,6,11,5,3,14,wrench,Did you see the wrench?,0.12,0.016,JPG\,cherry01,cymbal,envelope03a,foosballtable,shirt02,stubbywrench01a,sewingmachine01a,candle08b,battery02b,apple07,stapler03b,screwdriver04b,strawberry,sunglasses04,blankImage,blankImage,blankImage,stubbywrench01a,,,,,,,,,,,,0,105,105,122,,,,,,,,,,,,,,,,,,,,,,,,,,,,,,,,,,,680.8429323999444,681.8528052000329,681.8362541999668,682.4137870999984,682.4137870999984,None,684.1087489000056,None,left,2.146073400042951,684.1087489000056,None,686.274624099955,None,right,0.8450946001103148,686.274624099955,None,,,,,,,,,,,,,,,,,,,,,,,PPT12,001,2022-06-29_13h55.44.897,ABstudy,2022.1.4,60.01792138997098,
AB,Lag5_T1P_T2A,5,P,A,5,10,4,3,13,pin,Did you see the pin?,0.12,0.016,JPG\,candle01,fork03c,plate01b,violin,pin,candy,calculator01,paintbrush01,cherry01,sock01a,teabag,banana01,cd,blankImage,blankImage,blankImage,blankImage,pin,,,,,,,,,,,,0,106,106,215,,,,,,,,,,,,,,,,,,,,,,,,,,,,,,,,,,,687.146758900024,688.159400900011,688.1427156999707,688.7108648000285,688.7108648000285,None,690.394107399974,None,right,0.5255663000280038,690.394107399974,None,690.9456653000088,None,right,0.4291361999930814,690.9456653000088,None,,,,,,,,,,,,,,,,,,,,,,,PPT12,001,2022-06-29_13h55.44.897,ABstudy,2022.1.4,60.01792138997098,
AB,Lag5_T1P_T2P,5,P,P,8,13,7,5,18,spice rack,Did you see the spice rack?,0.12,0.016,JPG\,lamp04a,broccoli01a,alligator,garlic01a,dandelion,brownsugar,avocado01,spicerack,leaf02a,cellphone,medal02b,cd,stapler05,sunglasses04,strawberry,eraser,blankImage,spicerack,,,,,,,,,,,,0,107,107,140,,,,,,,,,,,,,,,,,,,,,,,,,,,,,,,,,,,691.3983981000492,692.4139364999719,692.3804675999563,692.9527753000148,692.9527753000148,None,694.8825863000238,None,left,0.5019726000027731,694.8825863000238,None,695.4020805000328,None,left,0.30860599991865456,695.4020805000328,None,,,,,,,,,,,,,,,,,,,,,,,PPT12,001,2022-06-29_13h55.44.897,ABstudy,2022.1.4,60.01792138997098,
AB,Lag1_T1P_T2P,1,P,P,7,8,6,3,11,Moose,Did you see the Moose?,0.12,0.016,JPG\,sock01a,spoon01,alligator,comb02a,printer02,medal02b,moose,stapler03a,greenolive,computerkeyboard02,cauliflower01,blankImage,blankImage,blankImage,blankImage,blankImage,blankImage,moose,,,,,,,,,,,,0,108,108,67,,,,,,,,,,,,,,,,,,,,,,,,,,,,,,,,,,,695.7731202000286,696.7844772000099,696.7677784999833,697.3523925000336,697.3523925000336,None,698.6268408000469,None,right,1.1244835999095812,698.6268408000469,None,699.7710916999495,None,left,0.40422280004713684,699.7710916999495,None,,,,,,,,,,,,,,,,,,,,,,,PPT12,001,2022-06-29_13h55.44.897,ABstudy,2022.1.4,60.01792138997098,
AB,Lag1_T1P_T2P,1,P,P,6,7,5,4,11,cash register,Did you see the cash register?,0.12,0.016,JPG\,leaf02a,apple07,cd,pineapple01a,envelope03a,cashregister01,stapler03b,8ball,rice,feather03a,lemon02,blankImage,blankImage,blankImage,blankImage,blankImage,blankImage,cashregister01,,,,,,,,,,,,0,109,109,79,,,,,,,,,,,,,,,,,,,,,,,,,,,,,,,,,,,700.2079894000199,701.2064891000045,701.1911519999849,701.8683488999959,701.7959095999831,None,703.1347123000305,None,left,0.6728422999149188,703.1347123000305,None,703.8249652000377,None,right,0.3025238999398425,703.8249652000377,None,,,,,,,,,,,,,,,,,,,,,,,PPT12,001,2022-06-29_13h55.44.897,ABstudy,2022.1.4,60.01792138997098,
AB,Lag1_T1P_T2P,1,P,P,5,6,4,3,9,kangaroo,Did you see the kangaroo?,0.12,0.016,JPG\,candle01,shirt02,brick,orange,kangaroo,stapler03a,pizza,thermometer02b,book01b,blankImage,blankImage,blankImage,blankImage,blankImage,blankImage,blankImage,blankImage,kangaroo,,,,,,,,,,,,0,110,110,16,,,,,,,,,,,,,,,,,,,,,,,,,,,,,,,,,,,704.1625460999785,705.1761801999528,705.159495000029,705.7321817999473,705.7321817999473,None,706.8079645000398,None,left,1.1833549999864772,706.8079645000398,None,708.0124698999571,None,left,0.5227681999094784,708.0124698999571,None,,,,,,,,,,,,,,,,,,,,,,,PPT12,001,2022-06-29_13h55.44.897,ABstudy,2022.1.4,60.01792138997098,
AB,Lag1_T1A_T2P,1,A,P,6,7,5,3,10,Jellyfish,Did you see the Jellyfish?,0.12,0.016,JPG\,thermometer02b,avocado01,scissors01,tennisball01b,medal02b,banana01,stapler01,cigarette,potato02b,pineapple01a,blankImage,blankImage,blankImage,blankImage,blankImage,blankImage,blankImage,firehydrant,,,,,,,,,,,,0,111,111,255,,,,,,,,,,,,,,,,,,,,,,,,,,,,,,,,,,,708.5697323000059,709.5806256999495,709.5638833999401,710.1420333000133,710.1420333000133,None,711.4608581999782,None,right,1.130378899979405,711.4608581999782,None,712.6171988999704,None,left,0.7102963000070304,712.6171988999704,None,,,,,,,,,,,,,,,,,,,,,,,PPT12,001,2022-06-29_13h55.44.897,ABstudy,2022.1.4,60.01792138997098,
AB,Lag5_T1P_T2P,5,P,P,5,10,4,5,15,baseball bat,Did you see the baseball bat?,0.12,0.016,JPG\,pizza,printer02,medal02b,spoon01,baseballbat,lighter01,belt02a,watermelon01,celery,stapler04b,screw02,comb02a,cauliflower01,lipstick02a,potato02b,blankImage,blankImage,baseballbat,,,,,,,,,,,,0,112,112,123,,,,,,,,,,,,,,,,,,,,,,,,,,,,,,,,,,,713.3531776999589,714.3686468000524,714.3352489999961,714.9260742999613,714.9260742999613,None,716.7703524000244,None,left,0.7804404000053182,716.7703524000244,None,717.571776399971,None,left,2.068093099980615,717.571776399971,None,,,,,,,,,,,,,,,,,,,,,,,PPT12,001,2022-06-29_13h55.44.897,ABstudy,2022.1.4,60.01792138997098,
AB,Lag1_T1A_T2P,1,A,P,6,7,5,5,12,Treadmill,Did you see the Treadmill?,0.12,0.016,JPG\,pencil01,broccoli01a,button01,sponge01,watermelon01,lipstick02a,stapler04b,fan,lighter01,sock01a,spoon01,blueberry01,blankImage,blankImage,blankImage,blankImage,blankImage,magneticcompass,,,,,,,,,,,,0,113,113,238,,,,,,,,,,,,,,,,,,,,,,,,,,,,,,,,,,,719.6594552999595,720.6748962999554,720.6415174000431,721.2071663000388,721.2071663000388,None,722.726002600044,None,right,1.2971771999727935,722.726002600044,None,724.0453859999543,None,left,0.2587170999031514,724.0453859999543,None,,,,,,,,,,,,,,,,,,,,,,,PPT12,001,2022-06-29_13h55.44.897,ABstudy,2022.1.4,60.01792138997098,
AB,Lag5_T1P_T2P,5,P,P,5,10,4,4,14,License Plate,Did you see the License Plate?,0.12,0.016,JPG\,toaster01,chain01,sponge01,baseball01a,licenseplate,belt02a,book01b,iron01b,grape01,stapler06,celery,onion,mushroom01,toothbrush03b,blankImage,blankImage,blankImage,licenseplate,,,,,,,,,,,,0,114,114,120,,,,,,,,,,,,,,,,,,,,,,,,,,,,,,,,,,,724.3398159999633,725.3471909000073,725.3318090999965,726.0070471999934,725.9283247999847,None,727.5775742999977,None,left,0.3977776999818161,727.5775742999977,None,727.9992517000064,None,left,0.18418340000789613,727.9992517000064,None,,,,,,,,,,,,,,,,,,,,,,,PPT12,001,2022-06-29_13h55.44.897,ABstudy,2022.1.4,60.01792138997098,
AB,Lag5_T1P_T2P,5,P,P,5,10,4,5,15,Bee,Did you see the Bee?,0.12,0.016,JPG\,fork03c,dandelion,dice05a,belt02a,honeybee,watch02a,key01,globe,eraser,stapler03a,greenolive,shirt02,candle08b,cigarette,garlic01a,blankImage,blankImage,honeybee,,,,,,,,,,,,0,115,115,149,,,,,,,,,,,,,,,,,,,,,,,,,,,,,,,,,,,728.2199128000066,729.2344964999938,729.2188815999543,729.8831513000187,729.8121547000483,None,731.6461165000219,None,left,0.6166081000119448,731.6461165000219,None,732.286475299974,None,left,0.2325300999218598,732.286475299974,None,,,,,,,,,,,,,,,,,,,,,,,PPT12,001,2022-06-29_13h55.44.897,ABstudy,2022.1.4,60.01792138997098,
AB,Lag1_T1P_T2P,1,P,P,7,8,6,3,11,trampoline,Did you see the trampoline?,0.12,0.016,JPG\,dice05a,watch02a,pig,lighter01,button01,strawberry,trampoline,stapler03a,plate01b,pen04b,feather03a,blankImage,blankImage,blankImage,blankImage,blankImage,blankImage,trampoline,,,,,,,,,,,,0,116,116,73,,,,,,,,,,,,,,,,,,,,,,,,,,,,,,,,,,,732.5395965999924,733.554462900036,733.5211071999511,734.1139120999724,734.1139120999724,None,735.4953719000332,None,left,1.135883199982345,735.4953719000332,None,736.6575164999813,None,left,0.24564529990311712,736.6575164999813,None,,,,,,,,,,,,,,,,,,,,,,,PPT12,001,2022-06-29_13h55.44.897,ABstudy,2022.1.4,60.01792138997098,
AB,Lag1_T1P_T2P,1,P,P,7,8,6,4,12,Dog House,Did you see the Dog House?,0.12,0.016,JPG\,pineapple01a,leaf02a,grape01,toiletpaper01a,match,tennisball01b,doghouse,stapler03b,pig,measuringcup01,ring01,lemon02,blankImage,blankImage,blankImage,blankImage,blankImage,doghouse,,,,,,,,,,,,0,117,117,44,,,,,,,,,,,,,,,,,,,,,,,,,,,,,,,,,,,736.9721549999667,737.9764441000298,737.960896100034,738.627042499953,738.5569790999871,None,739.9545675000409,None,left,0.4686307000229135,739.9545675000409,None,740.4442720999941,None,left,0.1624879000009969,740.4442720999941,None,,,,,,,,,,,,,,,,,,,,,,,PPT12,001,2022-06-29_13h55.44.897,ABstudy,2022.1.4,60.01792138997098,
AB,Lag1_T1P_T2P,1,P,P,8,9,7,4,13,mattress,Did you see the mattress?,0.12,0.016,JPG\,button01,celery,birthdaycandle,apple07,avocado01,tennisball01b,dice05a,mattress,stapler01,feather03a,tomato01,scarf,orange,blankImage,blankImage,blankImage,blankImage,mattress,,,,,,,,,,,,0,118,118,22,,,,,,,,,,,,,,,,,,,,,,,,,,,,,,,,,,,740.6304305000231,741.6458090000087,741.6124136999715,742.2109057999915,742.2109057999915,None,743.8607093000319,None,left,0.17815049993805587,743.8607093000319,None,744.079209699994,None,left,0.15250460000243038,744.079209699994,None,,,,,,,,,,,,,,,,,,,,,,,PPT12,001,2022-06-29_13h55.44.897,ABstudy,2022.1.4,60.01792138997098,
AB,Lag5_T1P_T2P,5,P,P,8,13,7,5,18,bed,Did you see the bed?,0.12,0.016,JPG\,pencil01,broccoli01a,button01,sponge01,watermelon01,lipstick02a,comb02a,bed,lighter01,sock01a,spoon01,blueberry01,stapler04b,onion,grape01,avocado01,blankImage,bed,,,,,,,,,,,,0,119,119,124,,,,,,,,,,,,,,,,,,,,,,,,,,,,,,,,,,,744.2571690999903,745.2660566000268,745.2493543999735,745.8223083999474,745.8223083999474,None,747.7451977999881,None,left,0.494000899954699,747.7451977999881,None,748.2690143999644,None,left,0.1857118000043556,748.2690143999644,None,,,,,,,,,,,,,,,,,,,,,,,PPT12,001,2022-06-29_13h55.44.897,ABstudy,2022.1.4,60.01792138997098,
AB,Lag1_T1P_T2A,1,P,A,8,9,7,5,14,Parrot,Did you see the Parrot?,0.12,0.016,JPG\,candy,brownsugar,dice05a,cd,sock01a,blueberry01,button01,parrot01,feather03a,grape01,dandelion,scissors01,watch02a,candle08b,blankImage,blankImage,blankImage,parrot01,,,,,,,,,,,,0,120,120,192,,,,,,,,,,,,,,,,,,,,,,,,,,,,,,,,,,,748.4891424999805,749.5036233999999,749.4701888000127,750.0409446000122,750.0409446000122,None,751.7994104999816,None,left,1.0635329000651836,751.7994104999816,None,752.890277700033,None,right,0.37247199995908886,752.890277700033,None,,,,,,,,,,,,,,,,,,,,,,,PPT12,001,2022-06-29_13h55.44.897,ABstudy,2022.1.4,60.01792138997098,
AB,Lag1_T1A_T2A,1,A,A,5,6,4,3,9,Pigeon,Did you see the Pigeon?,0.12,0.016,JPG\,candle01,paintbrush01,scissors01,fan,microscope,toothbrush03b,candle08b,watermelon01,teabag,blankImage,blankImage,blankImage,blankImage,blankImage,blankImage,blankImage,blankImage,floorlamp,,,,,,,,,,,,0,121,121,286,,,,,,,,,,,,,,,,,,,,,,,,,,,,,,,,,,,753.2947076000273,754.3084864000557,754.2916887999745,754.9138804000104,754.8455600000452,None,755.9684403999709,None,right,1.182892500073649,755.9684403999709,None,757.1782367000123,None,right,0.5651588999899104,757.1782367000123,None,,,,,,,,,,,,,,,,,,,,,,,PPT12,001,2022-06-29_13h55.44.897,ABstudy,2022.1.4,60.01792138997098,
AB,Lag1_T1P_T2P,1,P,P,7,8,6,5,13,school bus,Did you see the school bus?,0.12,0.016,JPG\,aceofdiamond,banana01,scissors01,pig,shirt02,leaf02a,schoolbus,stapler05,fork03c,tableknife02,balloon01b,match,toothbrush03b,blankImage,blankImage,blankImage,blankImage,schoolbus,,,,,,,,,,,,0,122,122,24,,,,,,,,,,,,,,,,,,,,,,,,,,,,,,,,,,,757.7670955000212,758.7797137999441,758.7630015000468,759.3639550999505,759.3639550999505,None,760.9141366999829,None,left,0.7810165999690071,760.9141366999829,None,761.7158489000285,None,left,0.18723190005403012,761.7158489000285,None,,,,,,,,,,,,,,,,,,,,,,,PPT12,001,2022-06-29_13h55.44.897,ABstudy,2022.1.4,60.01792138997098,
AB,Lag1_T1P_T2P,1,P,P,8,9,7,4,13,kite,Did you see the kite?,0.12,0.016,JPG\,scissors01,balloon01b,eraser,feather03a,banana01,candle01,measuringcup01,kite,stapler04b,strawberry,pear01,carrot01,globe,blankImage,blankImage,blankImage,blankImage,kite,,,,,,,,,,,,0,123,123,17,,,,,,,,,,,,,,,,,,,,,,,,,,,,,,,,,,,761.9349143999862,762.9503477000399,762.9169371000025,763.4925472999457,763.4925472999457,None,765.1228329000296,None,left,0.4204778999555856,765.1228329000296,None,765.569495499949,None,left,0.18170469999313354,765.569495499949,None,,,,,,,,,,,,,,,,,,,,,,,PPT12,001,2022-06-29_13h55.44.897,ABstudy,2022.1.4,60.01792138997098,
AB,Lag1_T1P_T2A,1,P,A,7,8,6,3,11,Armadillo,Did you see the Armadillo?,0.12,0.016,JPG\,clock01a,cellphone,toaster01,toothbrush03b,cauliflower01,microscope,armadillo,paintbrush01,scarf,clock04,sponge01,blankImage,blankImage,blankImage,blankImage,blankImage,blankImage,armadillo,,,,,,,,,,,,0,124,124,180,,,,,,,,,,,,,,,,,,,,,,,,,,,,,,,,,,,765.7766316999914,766.7875222000293,766.7707433999749,767.3600548000541,767.3600548000541,None,768.7459040000103,None,right,1.2370735999429598,768.7459040000103,None,770.0217820999678,None,left,0.3770459999796003,770.0217820999678,None,,,,,,,,,,,,,,,,,,,,,,,PPT12,001,2022-06-29_13h55.44.897,ABstudy,2022.1.4,60.01792138997098,
AB,Lag1_T1P_T2P,1,P,P,8,9,7,5,14,giraffe,Did you see the giraffe?,0.12,0.016,JPG\,pencil01,foosballtable,banana01,lipstick02a,toaster01,grape01,key01,giraffe,stapler03b,pineapple01a,strawberry,teabag,dandelion,paintbrush01,blankImage,blankImage,blankImage,giraffe,,,,,,,,,,,,0,125,125,0,,,,,,,,,,,,,,,,,,,,,,,,,,,,,,,,,,,770.4368050999474,771.4431084999815,771.4275260999566,772.1006424999796,772.0253679000307,None,773.6968860999914,None,left,0.23799709999002516,773.6968860999914,None,773.961660800036,None,left,0.1732767999637872,773.961660800036,None,,,,,,,,,,,,,,,,,,,,,,,PPT12,001,2022-06-29_13h55.44.897,ABstudy,2022.1.4,60.01792138997098,
AB,Lag5_T1P_T2A,5,P,A,5,10,4,3,13,fan,Did you see the fan?,0.12,0.016,JPG\,scissors01,grape01,mushroom01,toiletpaper01a,fanheater,pizza,cigarette,ashtray01,carrot01,pineapple01a,foosballtable,lipstick02a,teabag,blankImage,blankImage,blankImage,blankImage,fanheater,,,,,,,,,,,,0,126,126,220,,,,,,,,,,,,,,,,,,,,,,,,,,,,,,,,,,,774.1647323999787,775.1793779999716,775.1458534999983,775.7228427999653,775.7228427999653,None,777.3504255999578,None,right,0.7447122000157833,777.3504255999578,None,778.1154498000396,None,left,1.2673406000249088,778.1154498000396,None,,,,,,,,,,,,,,,,,,,,,,,PPT12,001,2022-06-29_13h55.44.897,ABstudy,2022.1.4,60.01792138997098,
AB,Lag5_T1A_T2P,5,A,P,7,12,6,4,16,ear,Did you see the ear?,0.12,0.016,JPG\,candle01,shirt02,brick,orange,greenolive,toothbrush03b,pizza,thermometer02b,book01b,toiletpaper01a,sewingmachine01a,stapler01,candy,cymbal,potato02b,plate01b,blankImage,chair,,,,,,,,,,,,0,127,127,257,,,,,,,,,,,,,,,,,,,,,,,,,,,,,,,,,,,779.4022009000182,780.4177243999438,780.3843255999964,780.9536148000043,780.9536148000043,None,782.8794831000268,None,right,1.4953670999966562,782.8794831000268,None,784.4049514000071,None,left,0.2187402000417933,784.4049514000071,None,,,,,,,,,,,,,,,,,,,,,,,PPT12,001,2022-06-29_13h55.44.897,ABstudy,2022.1.4,60.01792138997098,
AB,Lag1_T1P_T2P,1,P,P,7,8,6,5,13,dream catcher,Did you see the dream catcher?,0.12,0.016,JPG\,clock01a,cellphone,toaster01,toothbrush03b,cauliflower01,microscope,dreamcatcher,stapler05,scarf,clock04,sponge01,iron01b,watch02a,blankImage,blankImage,blankImage,blankImage,dreamcatcher,,,,,,,,,,,,0,128,128,81,,,,,,,,,,,,,,,,,,,,,,,,,,,,,,,,,,,784.6578434000257,785.6732262000442,785.656445599976,786.3067771999631,786.2206073000561,None,787.8498804999981,None,right,0.6284986999817193,787.8498804999981,None,788.5093362999614,None,right,0.8978104999987409,788.5093362999614,None,,,,,,,,,,,,,,,,,,,,,,,PPT12,001,2022-06-29_13h55.44.897,ABstudy,2022.1.4,60.01792138997098,
AB,Lag1_T1P_T2P,1,P,P,6,7,5,3,10,windmill,Did you see the windmill?,0.12,0.016,JPG\,pizza,printer02,medal02b,spoon01,grape01,windmill,stapler04b,watermelon01,celery,battery02b,blankImage,blankImage,blankImage,blankImage,blankImage,blankImage,blankImage,windmill,,,,,,,,,,,,0,129,129,75,,,,,,,,,,,,,,,,,,,,,,,,,,,,,,,,,,,789.4310603999766,790.4445758999791,790.4279916000087,791.0044396000449,791.0044396000449,None,792.2651341999881,None,right,1.8387673000106588,792.2651341999881,None,794.1314248000272,None,left,3.2189987000310794,794.1314248000272,None,,,,,,,,,,,,,,,,,,,,,,,PPT12,001,2022-06-29_13h55.44.897,ABstudy,2022.1.4,60.01792138997098,
AB,Lag1_T1P_T2P,1,P,P,7,8,6,3,11,Daddy Long Legs,Did you see the Daddy Long Legs?,0.12,0.016,JPG\,lighter01,hammer01,spoon01,chain01,cymbal,sponge01,daddylonglegs,stapler03b,pig,watermelon01,cauliflower01,blankImage,blankImage,blankImage,blankImage,blankImage,blankImage,daddylonglegs,,,,,,,,,,,,0,130,130,86,,,,,,,,,,,,,,,,,,,,,,,,,,,,,,,,,,,797.369611299946,798.3696192000061,798.3520990000106,798.9152661999688,798.9152661999688,None,800.2683610999957,None,right,0.6978197999997064,800.2683610999957,None,800.9881200999953,None,left,0.250118900090456,800.9881200999953,None,,,,,,,,,,,,,,,,,,,,,,,PPT12,001,2022-06-29_13h55.44.897,ABstudy,2022.1.4,60.01792138997098,
AB,Lag5_T1A_T2A,5,A,A,7,12,6,4,16,Eye,Did you see the Eye?,0.12,0.016,JPG\,rice,watermelon01,tableknife02,scarf,computerkeyboard02,cauliflower01,battery02b,binoculars01b,book01b,sandal,sponge01,microscope,tomato01,fork03c,thermometer02b,apple07,blankImage,scooter,,,,,,,,,,,,0,131,131,302,,,,,,,,,,,,,,,,,,,,,,,,,,,,,,,,,,,801.2572732999688,802.2727300999686,802.2393508000532,802.8116022000322,802.8116022000322,None,804.8077151000034,None,right,0.8869366999715567,804.8077151000034,None,805.7261412000516,None,left,0.21647460001986474,805.7261412000516,None,,,,,,,,,,,,,,,,,,,,,,,PPT12,001,2022-06-29_13h55.44.897,ABstudy,2022.1.4,60.01792138997098,
AB,Lag5_T1P_T2A,5,P,A,8,13,7,4,17,knife,Did you see the knife?,0.12,0.016,JPG\,lighter01,hammer01,spoon01,chain01,cymbal,sponge01,lipstick02a,knife03,pig,watermelon01,cauliflower01,lemon02,broccoli01a,tableknife02,tennisball01b,toothbrush03b,blankImage,knife03,,,,,,,,,,,,0,132,132,214,,,,,,,,,,,,,,,,,,,,,,,,,,,,,,,,,,,805.9629148000386,806.9774239000399,806.9441115000518,807.528293899959,807.528293899959,None,809.4771778000286,None,left,1.1932488000020385,809.4771778000286,None,810.7123188000405,None,left,0.4949231999926269,810.7123188000405,None,,,,,,,,,,,,,,,,,,,,,,,PPT12,001,2022-06-29_13h55.44.897,ABstudy,2022.1.4,60.01792138997098,
AB,Lag5_T1P_T2P,5,P,P,6,11,5,4,15,Witch hat,Did you see the Witch hat?,0.12,0.016,JPG\,pizza,watch02a,greenolive,cucumber,match,witchhat,scissors01,broom01,globe,cherry01,stapler03a,cigarette,microscope,cellphone,speaker04,blankImage,blankImage,witchhat,,,,,,,,,,,,0,133,133,101,,,,,,,,,,,,,,,,,,,,,,,,,,,,,,,,,,,811.2339004999958,812.2493463000283,812.2159277000464,812.8035908000311,812.8035908000311,None,814.674042699975,None,left,0.18806319998111576,814.674042699975,None,814.8851894000545,None,left,0.2098077000118792,814.8851894000545,None,,,,,,,,,,,,,,,,,,,,,,,PPT12,001,2022-06-29_13h55.44.897,ABstudy,2022.1.4,60.01792138997098,
AB,Lag1_T1P_T2A,1,P,A,7,8,6,3,11,Seagull,Did you see the Seagull?,0.12,0.016,JPG\,toiletpaper01a,mushroom01,medal02b,sandal,rice,cd,seagull,pizza,candle08b,garlic01a,toaster01,blankImage,blankImage,blankImage,blankImage,blankImage,blankImage,seagull,,,,,,,,,,,,0,134,134,176,,,,,,,,,,,,,,,,,,,,,,,,,,,,,,,,,,,815.1213428999763,816.1208800999448,816.1053335999604,816.7740810000105,816.690475899959,None,818.0271215999965,None,left,0.715936699998565,818.0271215999965,None,818.772766500013,None,left,0.19336439995095134,818.772766500013,None,,,,,,,,,,,,,,,,,,,,,,,PPT12,001,2022-06-29_13h55.44.897,ABstudy,2022.1.4,60.01792138997098,
AB,Lag5_T1P_T2A,5,P,A,5,10,4,3,13,Totem Pole,Did you see the Totem Pole?,0.12,0.016,JPG\,canoftennisballs,banana01,scissors01,pig,totempole,leaf02a,pear01,sponge01,fork03c,tableknife02,balloon01b,match,toothbrush03b,blankImage,blankImage,blankImage,blankImage,totempole,,,,,,,,,,,,0,135,135,202,,,,,,,,,,,,,,,,,,,,,,,,,,,,,,,,,,,818.9960968999658,820.0071843999904,819.9905063000042,820.604228900047,820.604228900047,None,822.1487308000214,None,left,0.5551910999929532,822.1487308000214,None,822.7263966000173,None,right,0.3438066999660805,822.7263966000173,None,,,,,,,,,,,,,,,,,,,,,,,PPT12,001,2022-06-29_13h55.44.897,ABstudy,2022.1.4,60.01792138997098,
AB,Lag1_T1P_T2P,1,P,P,8,9,7,4,13,Bird House,Did you see the Bird House?,0.12,0.016,JPG\,toiletpaper01a,mushroom01,medal02b,sandal,rice,cd,feather03a,birdhouse,stapler01,garlic01a,toaster01,belt02a,cigarette,blankImage,blankImage,blankImage,blankImage,birdhouse,,,,,,,,,,,,0,136,136,77,,,,,,,,,,,,,,,,,,,,,,,,,,,,,,,,,,,823.0978453999851,824.1111508000176,824.0944702000124,824.6782913999632,824.6782913999632,None,826.2182404999621,None,left,0.48551100003533065,826.2182404999621,None,826.7302523000399,None,left,0.30155940004624426,826.7302523000399,None,,,,,,,,,,,,,,,,,,,,,,,PPT12,001,2022-06-29_13h55.44.897,ABstudy,2022.1.4,60.01792138997098,
AB,Lag5_T1P_T2P,5,P,P,7,12,6,5,17,statue,Did you see the statue?,0.12,0.016,JPG\,pear01,clock01a,cymbal,match,ashtray01,globe,statue,button01,lemon02,pen04b,dice05a,stapler06,toothbrush03b,screwdriver04b,feather03a,key01,blankImage,statue,,,,,,,,,,,,0,137,137,100,,,,,,,,,,,,,,,,,,,,,,,,,,,,,,,,,,,827.0662292999914,828.0817441999679,828.0482823000057,828.6211898999754,828.6211898999754,None,830.5969347000355,None,left,0.36156989994924515,830.5969347000355,None,830.9850442999741,None,left,0.17324949998874217,830.9850442999741,None,,,,,,,,,,,,,,,,,,,,,,,PPT12,001,2022-06-29_13h55.44.897,ABstudy,2022.1.4,60.01792138997098,
