TrialType,CondType,Lag,T1_PA,T2_PA,T1Loc,T2Loc,PreDistractor,PostDistractor,TotalImg,cueWord,T1cue,StimLength,isi,PicFolder,Img1,Img2,Img3,Img4,Img5,Img6,Img7,Img8,Img9,Img10,Img11,Img12,Img13,Img14,Img15,Img16,Img17,T1_Identity,ImageType,T1PA,T2PA,Picture,Image,FullPathName,FilePath,Practice_Trials.thisRepN,Practice_Trials.thisTrialN,Practice_Trials.thisN,Practice_Trials.thisIndex,trials.thisRepN,trials.thisTrialN,trials.thisN,trials.thisIndex,trials_2.thisRepN,trials_2.thisTrialN,trials_2.thisN,trials_2.thisIndex,Practice_Ins.started,Practice_Ins.stopped,End_Prac_Ins.keys,End_Prac_Ins.rt,End_Prac_Ins.started,End_Prac_Ins.stopped,text_2.started,text_2.stopped,Fixation_Cross_2.started,Fixation_Cross_2.stopped,Rapid_Image_Present_2.started,Rapid_Image_Present_2.stopped,key_resp.keys,key_resp.rt,key_resp.started,key_resp.stopped,T1Response_2.started,T1Response_2.stopped,T2Response_2.started,T2Response_2.stopped,key_resp_4.keys,key_resp_4.rt,key_resp_4.started,key_resp_4.stopped,text.started,text.stopped,End_Instructions.keys,End_Instructions.rt,End_Instructions.started,End_Instructions.stopped,text_5.started,text_5.stopped,FC.started,FC.stopped,Rapid_Image_Present.started,Rapid_Image_Present.stopped,T1Response.started,T1Response.stopped,key_resp_2.keys,key_resp_2.rt,key_resp_2.started,key_resp_2.stopped,T2Response.started,T2Response.stopped,key_resp_3.keys,key_resp_3.rt,key_resp_3.started,key_resp_3.stopped,text_6.started,text_6.stopped,Fin_ins.keys,Fin_ins.rt,Fin_ins.started,Fin_ins.stopped,MemTest.started,MemTest.stopped,MemResponse.keys,MemResponse.rt,MemResponse.started,MemResponse.stopped,Display.started,Display.stopped,text_7.started,text_7.stopped,endOfExperiment.started,endOfExperiment.stopped,key_resp_5.keys,key_resp_5.rt,key_resp_5.started,key_resp_5.stopped,participant,session,date,expName,psychopyVersion,frameRate,
,,,,,,,,,,,,,,,,,,,,,,,,,,,,,,,,,,,,,,,,,,,,,,,,,,,,16.736521400045604,None,space,46.81132729991805,16.736521400045604,None,,,,,,,,,,,,,,,,,,,,,,,,,,,,,,,,,,,,,,,,,,,,,,,,,,,,,,,,,,,,,,,,,PPT11,001,2022-06-29_12h25.08.771,ABstudy,2022.1.4,59.95318855686176,
AB_Prac,Lag1_T1P_T2P,1,P,P,8,9,7,5,14,Tennis racket,Did you see the Tennis racket?,0.5,0.016,JPG\,coconut,computermouse06,croissant01,deodorant02a,pillow01a,peanut01,boot02b,tennisracket,stapler03b,crayon,eggplant,marker01a,plant01,radish01,blankImage,blankImage,blankImage,tennisracket,,,,,,,,0,0,0,0,,,,,,,,,,,,,,,63.619664900004864,64.63256209995598,64.61609120003413,65.2612409000285,65.2612409000285,None,left,1.0075798999750987,72.23626230005175,None,72.23626230005175,None,73.27723729994614,None,left,0.973658400005661,73.27723729994614,None,,,,,,,,,,,,,,,,,,,,,,,,,,,,,,,,,,,,,,,,,,,,,,,PPT11,001,2022-06-29_12h25.08.771,ABstudy,2022.1.4,59.95318855686176,
AB_Prac,Lag5_T1A_T2P,5,A,P,6,11,5,3,14,dog,Did you see the dog?,0.5,0.016,JPG\,bucket01a,doorlock,cookiecutter,fireextinguisher01,gluestick,highlighter02b,sportbag,spraybottle01,suitcase,thread02,stapler05,walnut01c,icecubetray01a,vikingmask01b,blankImage,blankImage,blankImage,None,,,,,,,,0,1,1,9,,,,,,,,,,,,,,,74.28863269998692,75.29430279997177,75.26159779995214,75.9569795000134,75.86491450003814,None,right,1.243851099978201,82.8556320000207,None,82.8556320000207,None,84.11929129995406,None,right,2.027683600084856,84.11929129995406,None,,,,,,,,,,,,,,,,,,,,,,,,,,,,,,,,,,,,,,,,,,,,,,,PPT11,001,2022-06-29_12h25.08.771,ABstudy,2022.1.4,59.95318855686176,
AB_Prac,Lag1_T1P_T2P,1,P,P,6,7,5,5,12,triangle,Did you see the triangle?,0.5,0.016,JPG\,ginger,mousetrap,plum01,slipper01b,dropper01,triangle,stapler04b,pants,raspberry01,rope03,scale01a,vase01,blankImage,blankImage,blankImage,blankImage,blankImage,triangle,,,,,,,,0,2,2,1,,,,,,,,,,,,,,,86.17742059996817,87.18854570004623,87.17190650000703,87.75397409999277,87.75397409999277,None,left,0.9843066999455914,93.79590410005767,None,93.79590410005767,None,94.81243070005439,None,left,0.7667758000316098,94.81243070005439,None,,,,,,,,,,,,,,,,,,,,,,,,,,,,,,,,,,,,,,,,,,,,,,,PPT11,001,2022-06-29_12h25.08.771,ABstudy,2022.1.4,59.95318855686176,
AB_Prac,Lag5_T1P_T2P,5,P,P,5,10,4,5,15,washing machine,Did you see the washing machine?,0.5,0.016,JPG\,waterbottle03,wheel01,flashlight02b,zucchini01,washingmachine,headphones02b,nutcracker01,paintroller01,paperclip03,stapler06,ribbon04,electricrazor,bottleofredwine01,pitabread,pot02a,blankImage,blankImage,washingmachine,,,,,,,,0,3,3,4,,,,,,,,,,,,,,,95.60262779996265,96.61426669999491,96.59749620000366,97.175195000018,97.175195000018,None,right,1.3874102999689057,104.68777770001907,None,104.68777770001907,None,106.10677079996094,None,left,0.688680800027214,106.10677079996094,None,,,,,,,,,,,,,,,,,,,,,,,,,,,,,,,,,,,,,,,,,,,,,,,PPT11,001,2022-06-29_12h25.08.771,ABstudy,2022.1.4,59.95318855686176,
AB_Prac,Lag1_T1P_T2A,1,P,A,5,6,4,5,11,Webcam,Did you see the Webcam?,0.5,0.016,JPG\,pictureframe04,binder03b,straw,adjustablewrench01b,webcam,cane,hairdryer02a,icepack,kitchenscale01a,lifejacket,piggybank,blankImage,blankImage,blankImage,blankImage,blankImage,blankImage,webcam,,,,,,,,0,4,4,6,,,,,,,,,,,,,,,106.94217169994954,107.94247180002276,107.9258700000355,108.5377994000446,108.5377994000446,None,left,1.722498800023459,113.96829520002939,None,113.96829520002939,None,115.717021199991,None,right,0.7342222000006586,115.717021199991,None,,,,,,,,,,,,,,,,,,,,,,,,,,,,,,,,,,,,,,,,,,,,,,,PPT11,001,2022-06-29_12h25.08.771,ABstudy,2022.1.4,59.95318855686176,
AB_Prac,Lag1_T1P_T2A,1,P,A,8,9,7,5,14,flower,Did you see the flower?,0.5,0.016,JPG\,razor01,axe01,binder03b,bowl01,kettle01,lettuce,lime,plasticflower01b,mitten04,pencilcase01,plunger02,strawbasket01,toothpick02,wallet02a,blankImage,blankImage,blankImage,plasticflower01b,,,,,,,,0,5,5,5,,,,,,,,,,,,,,,116.57766319997609,117.58507849997841,117.5684894999722,118.15043749997858,118.15043749997858,None,left,0.8816395999165252,125.19347509997897,None,125.19347509997897,None,126.09369090001564,None,right,0.5885207999963313,126.09369090001564,None,,,,,,,,,,,,,,,,,,,,,,,,,,,,,,,,,,,,,,,,,,,,,,,PPT11,001,2022-06-29_12h25.08.771,ABstudy,2022.1.4,59.95318855686176,
AB_Prac,Lag5_T1P_T2P,5,P,P,5,10,4,5,15,Vulture,Did you see the Vulture?,0.5,0.016,JPG\,shorts01,toast,ramekin01,bib,vulture,cracker02,date,glasses01a,hat03b,stapler01,measuringtape01,nail,pill,drum01,starfish01,blankImage,blankImage,vulture,,,,,,,,0,6,6,3,,,,,,,,,,,,,,,126.71711349999532,127.72855680005159,127.71190849994309,128.29388400004245,128.29388400004245,None,left,8.427774699986912,135.7840255999472,None,135.7840255999472,None,144.22834699996747,None,left,1.0541364999953657,144.22834699996747,None,,,,,,,,,,,,,,,,,,,,,,,,,,,,,,,,,,,,,,,,,,,,,,,PPT11,001,2022-06-29_12h25.08.771,ABstudy,2022.1.4,59.95318855686176,
AB_Prac,Lag5_T1A_T2A,5,A,A,6,11,5,5,16,castle,Did you see the castle?,0.5,0.016,JPG\,tape02a,englishmuffin,flask,ladle02a,monitor,peach01,keychain,squeegee01b,telephone01b,whisk,walkman,syringe02,baguette01,coaster,box01a,coffeepot03a,blankImage,None,,,,,,,,0,7,7,11,,,,,,,,,,,,,,,145.31511560000945,146.33036859997083,146.29703330004122,146.88910280005075,146.88910280005075,None,right,6.061796499998309,154.9405671999557,None,154.9405671999557,None,161.02894129999913,None,right,0.5979380999924615,161.02894129999913,None,,,,,,,,,,,,,,,,,,,,,,,,,,,,,,,,,,,,,,,,,,,,,,,PPT11,001,2022-06-29_12h25.08.771,ABstudy,2022.1.4,59.95318855686176,
AB_Prac,Lag1_T1A_T2A,1,A,A,8,9,7,3,12,Moose,Did you see the Moose?,0.5,0.016,JPG\,clothespin03b,corkscrew03a,drillbit03a,fusilli03a,needlenosepliers01,perfume01a,pistachio,scrubbingbrush05b,spatula03,toothpastetube,hinge,toydinosaur,blankImage,blankImage,blankImage,blankImage,blankImage,None,,,,,,,,0,8,8,10,,,,,,,,,,,,,,,161.7575643999735,162.7635300999973,162.7469205999514,163.3436036000494,163.3436036000494,None,right,10.987873199977912,169.375145399943,None,169.375145399943,None,180.38083409995306,None,right,0.43782530003227293,180.38083409995306,None,,,,,,,,,,,,,,,,,,,,,,,,,,,,,,,,,,,,,,,,,,,,,,,PPT11,001,2022-06-29_12h25.08.771,ABstudy,2022.1.4,59.95318855686176,
AB_Prac,Lag5_T1P_T2A,5,P,A,6,11,5,5,16,Wheat,Did you see the Wheat?,0.5,0.016,JPG\,bottleopener01,dentalfloss03b,cooler01,icecreamcone01a,paperclip01b,wheat,pencilsharpener02a,plasticbasket01a,toycar04,apricot,hairclip02,rock01a,honeydewmelon,antenna,blackberry,cardboardbox,blankImage,wheat,,,,,,,,0,9,9,7,,,,,,,,,,,,,,,180.8523549999809,181.8660544999875,181.84944340004586,182.4725877000019,182.4017896000296,None,left,1.0237198000540957,190.4279423999833,None,190.4279423999833,None,191.47573319997173,None,right,0.4640069000888616,191.47573319997173,None,,,,,,,,,,,,,,,,,,,,,,,,,,,,,,,,,,,,,,,,,,,,,,,PPT11,001,2022-06-29_12h25.08.771,ABstudy,2022.1.4,59.95318855686176,
AB_Prac,Lag5_T1P_T2A,5,P,A,6,11,5,5,16,bread,Did you see the bread?,0.5,0.016,JPG\,cleaver01,clipboard,dustpan,hikingshoe01,notebook03a,baguette01,playingcard,pliers02b,styrofoamcup,rollingpin01a,swimgoggles,wineglass01,fryingpan02a,safetypin,syringe01,thimble,blankImage,baguette01,,,,,,,,0,10,10,8,,,,,,,,,,,,,,,191.96344500000123,192.97685520001687,192.96043410000857,193.54281799995806,193.54281799995806,None,left,0.778064800077118,201.52783499995712,None,201.52783499995712,None,202.33639539999422,None,right,0.29784859996289015,202.33639539999422,None,,,,,,,,,,,,,,,,,,,,,,,,,,,,,,,,,,,,,,,,,,,,,,,PPT11,001,2022-06-29_12h25.08.771,ABstudy,2022.1.4,59.95318855686176,
AB_Prac,Lag5_T1P_T2P,5,P,P,7,12,6,3,15,vacuum,Did you see the vacuum?,0.5,0.016,JPG\,fork07b,lightbulb01,manshoe,saw02b,shoelace,soap03a,vacuumcleaner01,floortile01,necklace,doll,cabbage,stapler03a,hanger02a,laptop01a,nailpolish03b,blankImage,blankImage,vacuumcleaner01,,,,,,,,0,11,11,2,,,,,,,,,,,,,,,202.66197959997226,203.67079390003346,203.65411869995296,204.22574919997714,204.22574919997714,None,left,0.8251986000686884,211.83335249999072,None,211.83335249999072,None,212.68117350002285,None,left,0.72928770002909,212.68117350002285,None,,,,,,,,,,,,,,,,,,,,,,,,,,,,,,,,,,,,,,,,,,,,,,,PPT11,001,2022-06-29_12h25.08.771,ABstudy,2022.1.4,59.95318855686176,
,,,,,,,,,,,,,,,,,,,,,,,,,,,,,,,,,,,,,,,,,,,,,,,,,,,,,,,,,,,,,,,,,,,,,,,,,,,,213.43307250004727,None,space,14.809471200103872,213.43307250004727,None,,,,,,,,,,,,,,,,,,,,,,,,,,,,,,,,,,,,,,,,,PPT11,001,2022-06-29_12h25.08.771,ABstudy,2022.1.4,59.95318855686176,
AB,Lag1_T1A_T2P,1,A,P,5,6,4,3,9,Spider,Did you see the Spider?,0.12,0.016,JPG\,pen04b,speaker04,lighter01,cherry01,8ball,stapler04b,sock01a,toothbrush03b,broom01,blankImage,blankImage,blankImage,blankImage,blankImage,blankImage,blankImage,blankImage,bridge,,,,,,,,,,,,0,0,0,250,,,,,,,,,,,,,,,,,,,,,,,,,,,,,,,,,,,228.9451358000515,229.9469254000578,229.93010670004878,230.55365040001925,230.55365040001925,None,231.63652759999968,None,right,1.56563530000858,231.63652759999968,None,233.2358706999803,None,right,2.150927499984391,233.2358706999803,None,,,,,,,,,,,,,,,,,,,,,,,PPT11,001,2022-06-29_12h25.08.771,ABstudy,2022.1.4,59.95318855686176,
AB,Lag5_T1A_T2P,5,A,P,7,12,6,3,15,hockey puck,Did you see the hockey puck?,0.12,0.016,JPG\,toiletpaper01a,lipstick02a,potato02b,speaker04,globe,strawberry,carrot01,plate01b,sock01a,candle08b,pen04b,stapler04b,foosballtable,brick,pear01,blankImage,blankImage,frisbee,,,,,,,,,,,,0,1,1,260,,,,,,,,,,,,,,,,,,,,,,,,,,,,,,,,,,,235.42713780002668,236.4369791999925,236.4203682000516,237.00402079999913,237.00402079999913,None,238.85708979994524,None,right,1.6979313999181613,238.85708979994524,None,240.57393029995728,None,left,0.38010419998317957,240.57393029995728,None,,,,,,,,,,,,,,,,,,,,,,,PPT11,001,2022-06-29_12h25.08.771,ABstudy,2022.1.4,59.95318855686176,
AB,Lag1_T1P_T2P,1,P,P,5,6,4,5,11,Light switch,Did you see the Light switch?,0.12,0.016,JPG\,iron01b,orange,birthdaycandle,potato02b,lightswitch01,stapler03b,key01,candle08b,celery,tableknife02,pen04b,blankImage,blankImage,blankImage,blankImage,blankImage,blankImage,lightswitch01,,,,,,,,,,,,0,2,2,18,,,,,,,,,,,,,,,,,,,,,,,,,,,,,,,,,,,240.97838390001561,241.99194269999862,241.97530629998073,242.560754599981,242.560754599981,None,243.9019196999725,None,left,0.8120701999869198,243.9019196999725,None,244.74808549997397,None,right,0.3174430999206379,244.74808549997397,None,,,,,,,,,,,,,,,,,,,,,,,PPT11,001,2022-06-29_12h25.08.771,ABstudy,2022.1.4,59.95318855686176,
AB,Lag5_T1P_T2A,5,P,A,5,10,4,4,14,Ship in a bottle,Did you see the Ship in a bottle?,0.12,0.016,JPG\,sewingmachine01a,thermometer02b,sponge01,eraser,shipinabottle,fork03c,pizza,violin,belt02a,medal02b,pineapple01a,tennisball01b,dandelion,cauliflower01,blankImage,blankImage,blankImage,shipinabottle,,,,,,,,,,,,0,3,3,208,,,,,,,,,,,,,,,,,,,,,,,,,,,,,,,,,,,245.1439499000553,246.146240400034,246.1296412999509,246.7128340000054,246.7128340000054,None,248.3982740000356,None,left,0.9402997000142932,248.3982740000356,None,249.36686219996773,None,right,0.5394426999846473,249.36686219996773,None,,,,,,,,,,,,,,,,,,,,,,,PPT11,001,2022-06-29_12h25.08.771,ABstudy,2022.1.4,59.95318855686176,
AB,Lag5_T1P_T2P,5,P,P,6,11,5,5,16,keys,Did you see the keys?,0.12,0.016,JPG\,toiletpaper01a,mushroom01,medal02b,sandal,rice,foldingchair,feather03a,pizza,candle08b,garlic01a,stapler01,belt02a,cigarette,violin,lemon02,fork03c,blankImage,foldingchair,,,,,,,,,,,,0,4,4,125,,,,,,,,,,,,,,,,,,,,,,,,,,,,,,,,,,,249.9370641000569,250.951329399948,250.91818619996775,251.49912930000573,251.49912930000573,None,253.52509130002,None,left,1.5330174999544397,253.52509130002,None,255.08883400005288,None,left,0.5774019999662414,255.08883400005288,None,,,,,,,,,,,,,,,,,,,,,,,PPT11,001,2022-06-29_12h25.08.771,ABstudy,2022.1.4,59.95318855686176,
AB,Lag5_T1A_T2P,5,A,P,5,10,4,5,15,parachute,Did you see the parachute?,0.12,0.016,JPG\,binoculars01b,speaker04,sandal,envelope03a,plate01b,comb02a,battery02b,chain01,measuringcup01,stapler03b,medal02b,lamp04a,tennisball01b,pizza,cigarette,blankImage,blankImage,knee,,,,,,,,,,,,0,5,5,264,,,,,,,,,,,,,,,,,,,,,,,,,,,,,,,,,,,255.69586189999245,256.7076105000451,256.6923720999621,257.40168100001756,257.3210944000166,None,259.1177468999522,None,right,1.5480838000075892,259.1177468999522,None,260.69470510003157,None,right,2.2198289999505505,260.69470510003157,None,,,,,,,,,,,,,,,,,,,,,,,PPT11,001,2022-06-29_12h25.08.771,ABstudy,2022.1.4,59.95318855686176,
AB,Lag1_T1P_T2P,1,P,P,8,9,7,4,13,dart board,Did you see the dart board?,0.12,0.016,JPG\,rice,watermelon01,tableknife02,scarf,computerkeyboard02,cauliflower01,battery02b,dartboard,stapler01,sandal,sponge01,microscope,tomato01,blankImage,blankImage,blankImage,blankImage,dartboard,,,,,,,,,,,,0,6,6,80,,,,,,,,,,,,,,,,,,,,,,,,,,,,,,,,,,,262.95142289996147,263.96472869999707,263.9491744999541,264.6033742999425,264.52590410003904,None,266.1745838000206,None,right,1.4356979998992756,266.1745838000206,None,267.634379300056,None,left,0.4879971999907866,267.634379300056,None,,,,,,,,,,,,,,,,,,,,,,,PPT11,001,2022-06-29_12h25.08.771,ABstudy,2022.1.4,59.95318855686176,
AB,Lag1_T1P_T2A,1,P,A,5,6,4,4,10,flower,Did you see the flower?,0.12,0.016,JPG\,broom01,globe,cellphone,tableknife02,daffodil,scissors01,ring01,alligator,rice,toaster01,blankImage,blankImage,blankImage,blankImage,blankImage,blankImage,blankImage,daffodil,,,,,,,,,,,,0,7,7,184,,,,,,,,,,,,,,,,,,,,,,,,,,,,,,,,,,,268.15566179994494,269.15339220000897,269.13799730001483,269.82258060004096,269.7414735000348,None,270.941907600034,None,left,0.9964746999321505,270.941907600034,None,271.9552706000395,None,right,0.3750325000146404,271.9552706000395,None,,,,,,,,,,,,,,,,,,,,,,,PPT11,001,2022-06-29_12h25.08.771,ABstudy,2022.1.4,59.95318855686176,
AB,Lag1_T1A_T2P,1,A,P,6,7,5,3,10,curtain,Did you see the curtain?,0.12,0.016,JPG\,carrot01,greenolive,fork03c,chain01,ashtray01,watermelon01,stapler06,printer02,comb02a,toaster01,blankImage,blankImage,blankImage,blankImage,blankImage,blankImage,blankImage,birdhouse,,,,,,,,,,,,0,8,8,249,,,,,,,,,,,,,,,,,,,,,,,,,,,,,,,,,,,272.3579348999774,273.373956299969,273.34008039999753,273.929899699986,273.929899699986,None,275.2608951999573,None,right,1.9974993000505492,275.2608951999573,None,277.2773831000086,None,right,0.37211280001793057,277.2773831000086,None,,,,,,,,,,,,,,,,,,,,,,,PPT11,001,2022-06-29_12h25.08.771,ABstudy,2022.1.4,59.95318855686176,
AB,Lag1_T1P_T2P,1,P,P,6,7,5,3,10,cupcake,Did you see the cupcake?,0.12,0.016,JPG\,printer02,leaf02a,cauliflower01,sock01a,brownsugar,cupcake,stapler01,orange,belt02a,shirt02,blankImage,blankImage,blankImage,blankImage,blankImage,blankImage,blankImage,cupcake,,,,,,,,,,,,0,9,9,38,,,,,,,,,,,,,,,,,,,,,,,,,,,,,,,,,,,277.6809447000269,278.6956775999861,278.66230590001214,279.27277399995364,279.27277399995364,None,280.4934217999689,None,left,0.8683753000805154,280.4934217999689,None,281.38195700000506,None,left,0.35567970003467053,281.38195700000506,None,,,,,,,,,,,,,,,,,,,,,,,PPT11,001,2022-06-29_12h25.08.771,ABstudy,2022.1.4,59.95318855686176,
AB,Lag1_T1P_T2P,1,P,P,5,6,4,5,11,shark,Did you see the shark?,0.12,0.016,JPG\,cucumber,sponge01,alligator,pear01,greatwhiteshark,stapler06,clock04,battery02b,fork03c,binoculars01b,mushroom01,blankImage,blankImage,blankImage,blankImage,blankImage,blankImage,greatwhiteshark,,,,,,,,,,,,0,10,10,84,,,,,,,,,,,,,,,,,,,,,,,,,,,,,,,,,,,281.7690791999921,282.78293049999047,282.7661884999834,283.34862059995066,283.34862059995066,None,284.7011511999881,None,left,0.9968924999702722,284.7011511999881,None,285.7197011000244,None,left,0.37844520004000515,285.7197011000244,None,,,,,,,,,,,,,,,,,,,,,,,PPT11,001,2022-06-29_12h25.08.771,ABstudy,2022.1.4,59.95318855686176,
AB,Lag1_T1P_T2A,1,P,A,6,7,5,4,11,bird,Did you see the bird?,0.12,0.016,JPG\,foosballtable,candy,envelope03a,microscope,pencil01,cedarwaxwing,scissors01,watermelon01,grape01,dandelion,pineapple01a,blankImage,blankImage,blankImage,blankImage,blankImage,blankImage,cedarwaxwing,,,,,,,,,,,,0,11,11,182,,,,,,,,,,,,,,,,,,,,,,,,,,,,,,,,,,,286.12346819997765,287.13727309997194,287.1206551999785,287.62437890004367,287.6075000000419,None,289.06072399998084,None,left,1.5494674000656232,289.06072399998084,None,290.6409016000107,None,right,0.40155970002524555,290.6409016000107,None,,,,,,,,,,,,,,,,,,,,,,,PPT11,001,2022-06-29_12h25.08.771,ABstudy,2022.1.4,59.95318855686176,
AB,Lag1_T1P_T2P,1,P,P,6,7,5,5,12,owl,Did you see the owl?,0.12,0.016,JPG\,paintbrush01,eraser,medal02b,hammer01,speaker04,greathornowl,stapler01,comb02a,plate01b,clock01a,button01,globe,blankImage,blankImage,blankImage,blankImage,blankImage,greathornowl,,,,,,,,,,,,0,12,12,1,,,,,,,,,,,,,,,,,,,,,,,,,,,,,,,,,,,291.07761929999106,292.0922299999511,292.05876829999033,292.6516419999534,292.6516419999534,None,294.1190220999997,None,left,0.8427112000063062,294.1190220999997,None,294.9789616999915,None,left,0.33454760001040995,294.9789616999915,None,,,,,,,,,,,,,,,,,,,,,,,PPT11,001,2022-06-29_12h25.08.771,ABstudy,2022.1.4,59.95318855686176,
AB,Lag1_T1P_T2A,1,P,A,5,6,4,4,10,paper airplane,Did you see the paper airplane?,0.12,0.016,JPG\,thermometer02b,avocado01,scissors01,tennisball01b,paperairplane,banana01,strawberry,cigarette,potato02b,pineapple01a,blankImage,blankImage,blankImage,blankImage,blankImage,blankImage,blankImage,paperairplane,,,,,,,,,,,,0,13,13,191,,,,,,,,,,,,,,,,,,,,,,,,,,,,,,,,,,,295.3528231000528,296.36403820000123,296.34861550002825,296.99477999994997,296.92123450001236,None,298.1610042999964,None,right,1.7290101000107825,298.1610042999964,None,299.9168920000084,None,right,1.3653879000339657,299.9168920000084,None,,,,,,,,,,,,,,,,,,,,,,,PPT11,001,2022-06-29_12h25.08.771,ABstudy,2022.1.4,59.95318855686176,
AB,Lag5_T1A_T2P,5,A,P,7,12,6,4,16,ear,Did you see the ear?,0.12,0.016,JPG\,candle01,shirt02,brick,orange,greenolive,toothbrush03b,pizza,thermometer02b,book01b,toiletpaper01a,sewingmachine01a,stapler01,candy,cymbal,potato02b,plate01b,blankImage,chair,,,,,,,,,,,,0,14,14,257,,,,,,,,,,,,,,,,,,,,,,,,,,,,,,,,,,,301.3037197999656,302.3191844000248,302.2858813999919,302.877645200002,302.877645200002,None,304.7988883999642,None,right,0.9953175000846386,304.7988883999642,None,305.8222734000301,None,left,0.3317382000386715,305.8222734000301,None,,,,,,,,,,,,,,,,,,,,,,,PPT11,001,2022-06-29_12h25.08.771,ABstudy,2022.1.4,59.95318855686176,
AB,Lag5_T1P_T2P,5,P,P,5,10,4,5,15,sword fish,Did you see the sword fish?,0.12,0.016,JPG\,scissors01,balloon01b,eraser,feather03a,swordfish,candle01,measuringcup01,calculator01,thermometer02b,stapler04b,pear01,carrot01,globe,baseball01a,leaf02a,blankImage,blankImage,swordfish,,,,,,,,,,,,0,15,15,160,,,,,,,,,,,,,,,,,,,,,,,,,,,,,,,,,,,306.1760429999558,307.1902810999891,307.1736312999856,307.7974247999955,307.726429500035,None,309.5925757000223,None,left,0.8417119999649003,309.5925757000223,None,310.46076349995565,None,left,0.3094556999858469,310.46076349995565,None,,,,,,,,,,,,,,,,,,,,,,,PPT11,001,2022-06-29_12h25.08.771,ABstudy,2022.1.4,59.95318855686176,
AB,Lag1_T1P_T2P,1,P,P,8,9,7,5,14,finger print,Did you see the finger print?,0.12,0.016,JPG\,chain01,pen04b,birthdaycandle,watermelon01,broom01,scissors01,measuringcup01,fingerprint,stapler01,calculator01,ashtray01,feather03a,sewingmachine01a,thermometer02b,blankImage,blankImage,blankImage,fingerprint,,,,,,,,,,,,0,16,16,62,,,,,,,,,,,,,,,,,,,,,,,,,,,,,,,,,,,310.8015119000338,311.81246339995414,311.7970091999741,312.3840175999794,312.3840175999794,None,314.09706619998906,None,left,0.7535026000114158,314.09706619998906,None,314.88138539996,None,left,0.24811539996881038,314.88138539996,None,,,,,,,,,,,,,,,,,,,,,,,PPT11,001,2022-06-29_12h25.08.771,ABstudy,2022.1.4,59.95318855686176,
AB,Lag5_T1P_T2A,5,P,A,7,12,6,5,17,flower,Did you see the flower?,0.12,0.016,JPG\,cellphone,tomato01,comb02a,candy,celery,cucumber,craneflower,fan,feather03a,pen04b,lemon02,blueberry01,plate01b,cherry01,baseball01a,candle08b,blankImage,craneflower,,,,,,,,,,,,0,17,17,211,,,,,,,,,,,,,,,,,,,,,,,,,,,,,,,,,,,315.15046599996276,316.1658834000118,316.1326156000141,316.7186365999514,316.7186365999514,None,318.66137290000916,None,left,1.2365938000148162,318.66137290000916,None,319.91968349996023,None,right,0.3783816999057308,319.91968349996023,None,,,,,,,,,,,,,,,,,,,,,,,PPT11,001,2022-06-29_12h25.08.771,ABstudy,2022.1.4,59.95318855686176,
AB,Lag5_T1P_T2P,5,P,P,5,10,4,5,15,scorpion,Did you see the scorpion?,0.12,0.016,JPG\,fan,tomato01,candy,screwdriver04b,scorpion,cd,thermometer02b,apple07,button01,stapler01,brownsugar,lighter01,clock01a,envelope03a,clock04,blankImage,blankImage,scorpion,,,,,,,,,,,,0,18,18,97,,,,,,,,,,,,,,,,,,,,,,,,,,,,,,,,,,,320.38353939994704,321.3876847999636,321.3710278000217,321.95688209997024,321.95688209997024,None,323.72535149997566,None,left,0.628694000071846,323.72535149997566,None,324.3746935999952,None,left,0.31542560004163533,324.3746935999952,None,,,,,,,,,,,,,,,,,,,,,,,PPT11,001,2022-06-29_12h25.08.771,ABstudy,2022.1.4,59.95318855686176,
AB,Lag1_T1P_T2P,1,P,P,5,6,4,3,9,camel,Did you see the camel?,0.12,0.016,JPG\,iron01b,brick,broccoli01a,balloon01b,dromedary,stapler05,sandal,teabag,scissors01,blankImage,blankImage,blankImage,blankImage,blankImage,blankImage,blankImage,blankImage,dromedary,,,,,,,,,,,,0,19,19,11,,,,,,,,,,,,,,,,,,,,,,,,,,,,,,,,,,,324.7121102999663,325.72567830001935,325.7089167999802,326.3204581999453,326.3204581999453,None,327.3889743000036,None,left,0.6048634999897331,327.3889743000036,None,328.010974099976,None,left,0.3034944999963045,328.010974099976,None,,,,,,,,,,,,,,,,,,,,,,,PPT11,001,2022-06-29_12h25.08.771,ABstudy,2022.1.4,59.95318855686176,
AB,Lag5_T1P_T2A,5,P,A,8,13,7,4,17,fountain,Did you see the fountain?,0.12,0.016,JPG\,printer02,envelope03a,potato02b,calculator01,tableknife02,cigarette,ashtray01,parkfountain,broom01,greenolive,candle08b,battery02b,strawberry,candle01,foosballtable,tennisball01b,blankImage,parkfountain,,,,,,,,,,,,0,20,20,219,,,,,,,,,,,,,,,,,,,,,,,,,,,,,,,,,,,328.34793289995287,329.3633865000447,329.3479490999598,330.06598329998087,329.98788529995363,None,331.8991857999936,None,left,0.8142131000058725,331.8991857999936,None,332.7323672999628,None,right,0.3330100999446586,332.7323672999628,None,,,,,,,,,,,,,,,,,,,,,,,PPT11,001,2022-06-29_12h25.08.771,ABstudy,2022.1.4,59.95318855686176,
AB,Lag1_T1A_T2A,1,A,A,6,7,5,5,12,Safe,Did you see the Safe?,0.12,0.016,JPG\,hammer01,sponge01,toaster01,cherry01,feather03a,mushroom01,measuringcup01,pencil01,tennisball01b,brick,clock04,medal02b,blankImage,blankImage,blankImage,blankImage,blankImage,downhillski,,,,,,,,,,,,0,21,21,294,,,,,,,,,,,,,,,,,,,,,,,,,,,,,,,,,,,333.0852407000493,334.10041519999504,334.06744360004086,334.63606299995445,334.63606299995445,None,336.1226385999471,None,left,1.9431875000009313,336.1226385999471,None,338.0876946999924,None,right,0.3139765999512747,338.0876946999924,None,,,,,,,,,,,,,,,,,,,,,,,PPT11,001,2022-06-29_12h25.08.771,ABstudy,2022.1.4,59.95318855686176,
AB,Lag1_T1P_T2P,1,P,P,6,7,5,5,12,snowman,Did you see the snowman?,0.12,0.016,JPG\,comb02a,watch02a,scissors01,dice05a,tableknife02,snowman,stapler03a,printer02,dandelion,spoon01,ashtray01,battery02b,blankImage,blankImage,blankImage,blankImage,blankImage,snowman,,,,,,,,,,,,0,22,22,4,,,,,,,,,,,,,,,,,,,,,,,,,,,,,,,,,,,338.4237059999723,339.4390200000489,339.4056921999436,339.9810594000155,339.9810594000155,None,341.4633526999969,None,left,0.8022880000062287,341.4633526999969,None,342.2919282000512,None,right,0.3016688999487087,342.2919282000512,None,,,,,,,,,,,,,,,,,,,,,,,PPT11,001,2022-06-29_12h25.08.771,ABstudy,2022.1.4,59.95318855686176,
AB,Lag1_T1P_T2P,1,P,P,8,9,7,4,13,mattress,Did you see the mattress?,0.12,0.016,JPG\,button01,celery,birthdaycandle,apple07,avocado01,tennisball01b,dice05a,mattress,stapler01,feather03a,tomato01,scarf,orange,blankImage,blankImage,blankImage,blankImage,mattress,,,,,,,,,,,,0,23,23,22,,,,,,,,,,,,,,,,,,,,,,,,,,,,,,,,,,,342.6279079000233,343.6436479999684,343.6102058000397,344.20475669996813,344.20475669996813,None,345.83168389997445,None,left,0.7299391999840736,345.83168389997445,None,346.58012149995193,None,right,0.39832159993238747,346.58012149995193,None,,,,,,,,,,,,,,,,,,,,,,,PPT11,001,2022-06-29_12h25.08.771,ABstudy,2022.1.4,59.95318855686176,
AB,Lag5_T1A_T2P,5,A,P,7,12,6,5,17,funnel,Did you see the funnel?,0.12,0.016,JPG\,iron01b,orange,birthdaycandle,potato02b,cauliflower01,pencil01,key01,candle08b,celery,tableknife02,pen04b,stapler04b,ring01,rice,lemon02,tomato01,blankImage,englishcucumber,,,,,,,,,,,,0,24,24,259,,,,,,,,,,,,,,,,,,,,,,,,,,,,,,,,,,,347.0034189999569,348.01449450000655,347.9978370999452,348.58493140002247,348.58493140002247,None,350.5629929000279,None,right,8.90262199996505,350.5629929000279,None,359.49235740001313,None,left,1.8208451999817044,359.49235740001313,None,,,,,,,,,,,,,,,,,,,,,,,PPT11,001,2022-06-29_12h25.08.771,ABstudy,2022.1.4,59.95318855686176,
AB,Lag1_T1P_T2P,1,P,P,8,9,7,4,13,kite,Did you see the kite?,0.12,0.016,JPG\,scissors01,balloon01b,eraser,feather03a,banana01,candle01,measuringcup01,kite,stapler04b,strawberry,pear01,carrot01,globe,blankImage,blankImage,blankImage,blankImage,kite,,,,,,,,,,,,0,25,25,17,,,,,,,,,,,,,,,,,,,,,,,,,,,,,,,,,,,361.346438699984,362.36216110002715,362.32858069997746,362.9090912999818,362.9090912999818,None,364.48685710004065,None,left,5.867443399969488,364.48685710004065,None,370.38711679994594,None,left,0.4235640000551939,370.38711679994594,None,,,,,,,,,,,,,,,,,,,,,,,PPT11,001,2022-06-29_12h25.08.771,ABstudy,2022.1.4,59.95318855686176,
AB,Lag1_T1A_T2P,1,A,P,7,8,6,5,13,Horseshoe,Did you see the Horseshoe?,0.12,0.016,JPG\,leaf02a,apple07,cd,pineapple01a,envelope03a,paintbrush01,pig,stapler06,rice,feather03a,lemon02,balloon01b,avocado01,blankImage,blankImage,blankImage,blankImage,rooster,,,,,,,,,,,,0,26,26,241,,,,,,,,,,,,,,,,,,,,,,,,,,,,,,,,,,,370.83955000003334,371.8386274999939,371.8233618000522,372.41163500002585,372.41163500002585,None,373.9662900000112,None,right,3.1234604000346735,373.9662900000112,None,377.1102401999524,None,right,0.47655489994212985,377.1102401999524,None,,,,,,,,,,,,,,,,,,,,,,,PPT11,001,2022-06-29_12h25.08.771,ABstudy,2022.1.4,59.95318855686176,
AB,Lag1_T1P_T2A,1,P,A,6,7,5,4,11,Road,Did you see the Road?,0.12,0.016,JPG\,pizza,printer02,medal02b,spoon01,grape01,road02,belt02a,watermelon01,celery,battery02b,screw02,blankImage,blankImage,blankImage,blankImage,blankImage,blankImage,road02,,,,,,,,,,,,0,27,27,174,,,,,,,,,,,,,,,,,,,,,,,,,,,,,,,,,,,377.6677349000238,378.67814670002554,378.6615423000185,379.2560502999695,379.2560502999695,None,380.56776729994453,None,left,0.825661199982278,380.56776729994453,None,381.4169792999746,None,right,0.5922938999719918,381.4169792999746,None,,,,,,,,,,,,,,,,,,,,,,,PPT11,001,2022-06-29_12h25.08.771,ABstudy,2022.1.4,59.95318855686176,
AB,Lag5_T1A_T2P,5,A,P,5,10,4,4,14,duck,Did you see the duck?,0.12,0.016,JPG\,brick,eraser,cucumber,ashtray01,thermometer02b,binoculars01b,lipstick02a,screwdriver04b,grape01,stapler04b,battery02b,iron01b,dice05a,avocado01,blankImage,blankImage,blankImage,barrel01,,,,,,,,,,,,0,28,28,280,,,,,,,,,,,,,,,,,,,,,,,,,,,,,,,,,,,382.04082400002517,383.0498172000516,383.034230499994,383.7081493999576,383.7081493999576,None,385.34214399999473,None,right,1.1553640000056475,385.34214399999473,None,386.51954999996815,None,left,0.362040700041689,386.51954999996815,None,,,,,,,,,,,,,,,,,,,,,,,PPT11,001,2022-06-29_12h25.08.771,ABstudy,2022.1.4,59.95318855686176,
AB,Lag1_T1P_T2P,1,P,P,8,9,7,4,13,bowling ball,Did you see the bowling ball?,0.12,0.016,JPG\,dandelion,pineapple01a,broom01,pen04b,sock01a,sandal,foosballtable,bowlingball,stapler01,toothbrush03b,celery,candle08b,tennisball01b,blankImage,blankImage,blankImage,blankImage,bowlingball,,,,,,,,,,,,0,29,29,7,,,,,,,,,,,,,,,,,,,,,,,,,,,,,,,,,,,386.9056705000112,387.92097219999414,387.88757370004896,388.3881284999661,388.3881284999661,None,390.04725469998084,None,right,1.0987018999876454,390.04725469998084,None,391.17385490005836,None,left,0.5170787000097334,391.17385490005836,None,,,,,,,,,,,,,,,,,,,,,,,PPT11,001,2022-06-29_12h25.08.771,ABstudy,2022.1.4,59.95318855686176,
AB,Lag1_T1P_T2P,1,P,P,7,8,6,4,12,Christmas Tree,Did you see the Christmas Tree?,0.12,0.016,JPG\,sandal,fan,printer02,cellphone,mushroom01,candle08b,firtree,stapler03a,lamp04a,hammer01,teabag,aceofdiamond,blankImage,blankImage,blankImage,blankImage,blankImage,firtree,,,,,,,,,,,,0,30,30,6,,,,,,,,,,,,,,,,,,,,,,,,,,,,,,,,,,,391.71446899999864,392.7255111000268,392.70899409998674,393.3023351000156,393.3023351000156,None,394.77413100004196,None,left,1.0914110000012442,394.77413100004196,None,395.8953237000387,None,right,0.4103993000462651,395.8953237000387,None,,,,,,,,,,,,,,,,,,,,,,,PPT11,001,2022-06-29_12h25.08.771,ABstudy,2022.1.4,59.95318855686176,
AB,Lag5_T1P_T2A,5,P,A,6,11,5,4,15,Spear,Did you see the Spear?,0.12,0.016,JPG\,belt02a,measuringcup01,spoon01,chain01,greenolive,spear02,computerkeyboard02,onion,fan,strawberry,candle01,broom01,binoculars01b,ashtray01,pingpongpaddle01c,blankImage,blankImage,spear02,,,,,,,,,,,,0,31,31,227,,,,,,,,,,,,,,,,,,,,,,,,,,,,,,,,,,,396.3322311999509,397.3469095999608,397.3137080000015,397.8880684999749,397.8880684999749,None,399.7297543999739,None,left,10.951845900039189,399.7297543999739,None,410.709963100031,None,right,0.30776460003107786,410.709963100031,None,,,,,,,,,,,,,,,,,,,,,,,PPT11,001,2022-06-29_12h25.08.771,ABstudy,2022.1.4,59.95318855686176,
AB,Lag5_T1P_T2A,5,P,A,6,11,5,5,16,World map,Did you see the World map?,0.12,0.016,JPG\,cigarette,pig,banana01,strawberry,clock01a,worldmap,spoon01,blueberry01,battery02b,pineapple01a,chain01,paintbrush01,candy,pen04b,teabag,birthdaycandle,blankImage,worldmap,,,,,,,,,,,,0,32,32,205,,,,,,,,,,,,,,,,,,,,,,,,,,,,,,,,,,,411.04790919995867,412.06134719995316,412.0446698999731,412.6325316999573,412.6325316999573,None,414.48183810000774,None,left,0.7762230000225827,414.48183810000774,None,415.2815981999738,None,right,0.27214580005966127,415.2815981999738,None,,,,,,,,,,,,,,,,,,,,,,,PPT11,001,2022-06-29_12h25.08.771,ABstudy,2022.1.4,59.95318855686176,
AB,Lag1_T1P_T2P,1,P,P,5,6,4,5,11,squirrel,Did you see the squirrel?,0.12,0.016,JPG\,pencil01,orange,clock01a,sponge01,squirrel,stapler05,lipstick02a,strawberry,book01b,mushroom01,envelope03a,blankImage,blankImage,blankImage,blankImage,blankImage,blankImage,squirrel,,,,,,,,,,,,0,33,33,5,,,,,,,,,,,,,,,,,,,,,,,,,,,,,,,,,,,415.5993072000565,416.59916680003516,416.5824248000281,417.1540169999935,417.1540169999935,None,418.54417660005856,None,left,0.7375962999649346,418.54417660005856,None,419.3019235000247,None,left,0.2668747999705374,419.3019235000247,None,,,,,,,,,,,,,,,,,,,,,,,PPT11,001,2022-06-29_12h25.08.771,ABstudy,2022.1.4,59.95318855686176,
AB,Lag5_T1P_T2A,5,P,A,8,13,7,3,16,Shelves,Did you see the Shelves?,0.12,0.016,JPG\,pineapple01a,leaf02a,grape01,toiletpaper01a,match,tennisball01b,spoon01,shelves,pig,measuringcup01,ring01,lemon02,dice05a,pizza,potato02b,eraser,blankImage,shelves,,,,,,,,,,,,0,34,34,222,,,,,,,,,,,,,,,,,,,,,,,,,,,,,,,,,,,419.6327185999835,420.63672900001984,420.6200086999452,421.2018975999672,421.2018975999672,None,423.12210240005516,None,left,1.070905499975197,423.12210240005516,None,424.2237830000231,None,right,0.9131959000369534,424.2237830000231,None,,,,,,,,,,,,,,,,,,,,,,,PPT11,001,2022-06-29_12h25.08.771,ABstudy,2022.1.4,59.95318855686176,
AB,Lag5_T1P_T2P,5,P,P,7,12,6,5,17,truck,Did you see the truck?,0.12,0.016,JPG\,binoculars01b,speaker04,sandal,envelope03a,plate01b,comb02a,boxtruck,chain01,measuringcup01,key01,medal02b,stapler05,tennisball01b,pizza,cigarette,sunglasses04,blankImage,boxtruck,,,,,,,,,,,,0,35,35,166,,,,,,,,,,,,,,,,,,,,,,,,,,,,,,,,,,,425.16177030000836,426.17593170003965,426.15904589998536,426.8579913000576,426.77292819996364,None,428.7420237000333,None,left,0.859280199976638,428.7420237000333,None,429.6291974999476,None,left,0.28415450011380017,429.6291974999476,None,,,,,,,,,,,,,,,,,,,,,,,PPT11,001,2022-06-29_12h25.08.771,ABstudy,2022.1.4,59.95318855686176,
AB,Lag1_T1P_T2P,1,P,P,6,7,5,3,10,drum sticks,Did you see the drum sticks?,0.12,0.016,JPG\,pineapple01a,tennisball01b,computerkeyboard02,feather03a,belt02a,drumstick,stapler03b,blueberry01,medal02b,alligator,blankImage,blankImage,blankImage,blankImage,blankImage,blankImage,blankImage,drumstick,,,,,,,,,,,,0,36,36,61,,,,,,,,,,,,,,,,,,,,,,,,,,,,,,,,,,,429.9503342000535,430.9636340000434,430.9469111999497,431.54119400004856,431.54119400004856,None,432.6665158000542,None,right,2.4957649999996647,432.6665158000542,None,435.184729999979,None,left,0.536654100054875,435.184729999979,None,,,,,,,,,,,,,,,,,,,,,,,PPT11,001,2022-06-29_12h25.08.771,ABstudy,2022.1.4,59.95318855686176,
AB,Lag1_T1P_T2P,1,P,P,8,9,7,3,12,Sheep,Did you see the Sheep?,0.12,0.016,JPG\,celery,orange,scissors01,balloon01b,avocado01,printer02,mushroom01,sheep,stapler03b,dice05a,ashtray01,fan,blankImage,blankImage,blankImage,blankImage,blankImage,sheep,,,,,,,,,,,,0,37,37,71,,,,,,,,,,,,,,,,,,,,,,,,,,,,,,,,,,,435.7568484999938,436.7692435999634,436.75462230003905,437.40479890001006,437.33100969996303,None,438.80576879996806,None,left,0.6595364999957383,438.80576879996806,None,439.488831799943,None,left,0.2482103001093492,439.488831799943,None,,,,,,,,,,,,,,,,,,,,,,,PPT11,001,2022-06-29_12h25.08.771,ABstudy,2022.1.4,59.95318855686176,
AB,Lag5_T1P_T2A,5,P,A,7,12,6,5,17,corn,Did you see the corn?,0.12,0.016,JPG\,avocado01,pingpongpaddle01c,match,cauliflower01,paintbrush01,clock01a,corn02,cd,balloon01b,cellphone,watch02a,pear01,toaster01,sponge01,orange,blueberry01,blankImage,corn02,,,,,,,,,,,,0,38,38,210,,,,,,,,,,,,,,,,,,,,,,,,,,,,,,,,,,,439.75944619998336,440.7734627999598,440.74005000002217,441.33219590003137,441.33219590003137,None,443.3393087000586,None,left,2.0855395001126453,443.3393087000586,None,445.4449527000543,None,right,1.7558957999572158,445.4449527000543,None,,,,,,,,,,,,,,,,,,,,,,,PPT11,001,2022-06-29_12h25.08.771,ABstudy,2022.1.4,59.95318855686176,
AB,Lag5_T1P_T2A,5,P,A,8,13,7,4,17,Tarantula,Did you see the Tarantula?,0.12,0.016,JPG\,binoculars01b,speaker04,sandal,envelope03a,plate01b,comb02a,battery02b,tarantula,measuringcup01,key01,medal02b,lamp04a,tennisball01b,pizza,cigarette,sunglasses04,blankImage,tarantula,,,,,,,,,,,,0,39,39,201,,,,,,,,,,,,,,,,,,,,,,,,,,,,,,,,,,,447.23400489997584,448.24760360002983,448.2307709000306,448.8224146000575,448.8224146000575,None,450.80005830002483,None,left,1.6011213000165299,450.80005830002483,None,452.41819530003704,None,right,0.534942000056617,452.41819530003704,None,,,,,,,,,,,,,,,,,,,,,,,PPT11,001,2022-06-29_12h25.08.771,ABstudy,2022.1.4,59.95318855686176,
AB,Lag5_T1P_T2P,5,P,P,8,13,7,3,16,church,Did you see the church?,0.12,0.016,JPG\,clock01a,cellphone,toaster01,toothbrush03b,cauliflower01,microscope,comb02a,church,scarf,clock04,sponge01,iron01b,stapler06,celery,ring01,ashtray01,blankImage,church,,,,,,,,,,,,0,40,40,129,,,,,,,,,,,,,,,,,,,,,,,,,,,,,,,,,,,452.9876189000206,454.00305469997693,453.9697519999463,454.5572500999551,454.5572500999551,None,456.4788340999512,None,left,1.5140358998905867,456.4788340999512,None,458.02375739999115,None,left,0.40109420008957386,458.02375739999115,None,,,,,,,,,,,,,,,,,,,,,,,PPT11,001,2022-06-29_12h25.08.771,ABstudy,2022.1.4,59.95318855686176,
AB,Lag1_T1P_T2P,1,P,P,7,8,6,3,11,tree,Did you see the tree?,0.12,0.016,JPG\,pear01,clock01a,cymbal,match,ashtray01,globe,tree,stapler03b,lemon02,pen04b,dice05a,blankImage,blankImage,blankImage,blankImage,blankImage,blankImage,tree,,,,,,,,,,,,0,41,41,51,,,,,,,,,,,,,,,,,,,,,,,,,,,,,,,,,,,458.45966289995704,459.4751714000013,459.4417848000303,460.01625410001725,460.01625410001725,None,461.4111996999709,None,left,0.9590594000183046,461.4111996999709,None,462.39753600000404,None,right,1.0117574000032619,462.39753600000404,None,,,,,,,,,,,,,,,,,,,,,,,PPT11,001,2022-06-29_12h25.08.771,ABstudy,2022.1.4,59.95318855686176,
AB,Lag5_T1P_T2P,5,P,P,7,12,6,3,15,lips,Did you see the lips?,0.12,0.016,JPG\,cigarette,fork03c,greenolive,broccoli01a,avocado01,tennisball01b,lip,leaf02a,pig,fan,clock01a,stapler03a,envelope03a,birthdaycandle,teabag,blankImage,blankImage,lip,,,,,,,,,,,,0,42,42,95,,,,,,,,,,,,,,,,,,,,,,,,,,,,,,,,,,,463.43226170004345,464.430770499981,464.4153652000241,465.0923691999633,465.0923691999633,None,466.8226692000171,None,left,1.898647499969229,466.8226692000171,None,468.7513401999604,None,left,0.26627390005160123,468.7513401999604,None,,,,,,,,,,,,,,,,,,,,,,,PPT11,001,2022-06-29_12h25.08.771,ABstudy,2022.1.4,59.95318855686176,
AB,Lag5_T1A_T2P,5,A,P,6,11,5,3,14,saxophone,Did you see the saxophone?,0.12,0.016,JPG\,globe,belt02a,sponge01,violin,fork03c,tomato01,clock01a,microscope,balloon01b,scarf,stapler03b,pen04b,brick,brownsugar,blankImage,blankImage,blankImage,microphone01,,,,,,,,,,,,0,43,43,267,,,,,,,,,,,,,,,,,,,,,,,,,,,,,,,,,,,469.0438039000146,470.05254900001455,470.0357772000134,470.639556500013,470.639556500013,None,472.22788939997554,None,right,0.8535184999927878,472.22788939997554,None,473.1053141000448,None,right,0.519852300058119,473.1053141000448,None,,,,,,,,,,,,,,,,,,,,,,,PPT11,001,2022-06-29_12h25.08.771,ABstudy,2022.1.4,59.95318855686176,
AB,Lag1_T1P_T2A,1,P,A,7,8,6,3,11,fish,Did you see the fish?,0.12,0.016,JPG\,rice,watermelon01,tableknife02,scarf,computerkeyboard02,cauliflower01,salmon,binoculars01b,book01b,sandal,sponge01,blankImage,blankImage,blankImage,blankImage,blankImage,blankImage,salmon,,,,,,,,,,,,0,44,44,179,,,,,,,,,,,,,,,,,,,,,,,,,,,,,,,,,,,473.65813190001063,474.6736031000037,474.6402710999828,475.21536829997785,475.21536829997785,None,476.5787784999702,None,right,1.4379520000657067,476.5787784999702,None,478.0448679999681,None,right,0.4277063000481576,478.0448679999681,None,,,,,,,,,,,,,,,,,,,,,,,PPT11,001,2022-06-29_12h25.08.771,ABstudy,2022.1.4,59.95318855686176,
AB,Lag1_T1A_T2P,1,A,P,5,6,4,3,9,Stool,Did you see the Stool?,0.12,0.016,JPG\,cherry01,cymbal,envelope03a,foosballtable,shirt02,stapler01,sewingmachine01a,candle08b,battery02b,blankImage,blankImage,blankImage,blankImage,blankImage,blankImage,blankImage,blankImage,hulahoop,,,,,,,,,,,,0,45,45,236,,,,,,,,,,,,,,,,,,,,,,,,,,,,,,,,,,,478.4960853999946,479.51154550001957,479.47820789995603,480.0503220000537,480.0503220000537,None,481.2017624999862,None,left,12.199716000002809,481.2017624999862,None,493.4261845999863,None,right,0.3102936999639496,493.4261845999863,None,,,,,,,,,,,,,,,,,,,,,,,PPT11,001,2022-06-29_12h25.08.771,ABstudy,2022.1.4,59.95318855686176,
AB,Lag1_T1P_T2P,1,P,P,7,8,6,3,11,swing,Did you see the swing?,0.12,0.016,JPG\,sewingmachine01a,thermometer02b,sponge01,eraser,broccoli01a,fork03c,swing,stapler03b,belt02a,medal02b,pineapple01a,blankImage,blankImage,blankImage,blankImage,blankImage,blankImage,swing,,,,,,,,,,,,0,46,46,30,,,,,,,,,,,,,,,,,,,,,,,,,,,,,,,,,,,493.76418970001396,494.7771323999623,494.7603424000554,495.3592799999751,495.3592799999751,None,496.6540919999825,None,left,9.898704700055532,496.6540919999825,None,506.57205049996264,None,left,0.3886674999957904,506.57205049996264,None,,,,,,,,,,,,,,,,,,,,,,,PPT11,001,2022-06-29_12h25.08.771,ABstudy,2022.1.4,59.95318855686176,
AB,Lag1_T1P_T2P,1,P,P,5,6,4,5,11,Basketball,Did you see the Basketball?,0.12,0.016,JPG\,pencil01,microscope,banana01,computerkeyboard02,basketball01,stapler04b,scissors01,sock01a,book01b,onion,dice05a,blankImage,blankImage,blankImage,blankImage,blankImage,blankImage,basketball01,,,,,,,,,,,,0,47,47,34,,,,,,,,,,,,,,,,,,,,,,,,,,,,,,,,,,,506.9958994999761,508.0067239999771,507.99011240003165,508.5604792999802,508.5604792999802,None,509.95381670002826,None,left,1.039937499910593,509.95381670002826,None,511.01030099997297,None,left,0.2628529000794515,511.01030099997297,None,,,,,,,,,,,,,,,,,,,,,,,PPT11,001,2022-06-29_12h25.08.771,ABstudy,2022.1.4,59.95318855686176,
AB,Lag5_T1P_T2P,5,P,P,6,11,5,5,16,Parking meter,Did you see the Parking meter?,0.12,0.016,JPG\,dice05a,watch02a,pig,lighter01,button01,parkingmeter,paintbrush01,microscope,plate01b,pen04b,stapler03b,weight04a,carrot01,shirt02,globe,garlic01a,blankImage,parkingmeter,,,,,,,,,,,,0,48,48,172,,,,,,,,,,,,,,,,,,,,,,,,,,,,,,,,,,,511.30040800001007,512.3109834999777,512.2943607999478,512.8720244000433,512.8720244000433,None,514.8835553999525,None,left,0.5983678000047803,514.8835553999525,None,515.5141587000107,None,left,0.2068305000429973,515.5141587000107,None,,,,,,,,,,,,,,,,,,,,,,,PPT11,001,2022-06-29_12h25.08.771,ABstudy,2022.1.4,59.95318855686176,
AB,Lag1_T1P_T2P,1,P,P,5,6,4,4,10,skateboard,Did you see the skateboard?,0.12,0.016,JPG\,binoculars01b,cymbal,pizza,candy,skateboard,stapler05,grape01,thermometer02b,speaker04,lemon02,blankImage,blankImage,blankImage,blankImage,blankImage,blankImage,blankImage,skateboard,,,,,,,,,,,,0,49,49,25,,,,,,,,,,,,,,,,,,,,,,,,,,,,,,,,,,,515.7500429999782,516.7654391999822,516.7321306000231,517.3151501000393,517.3151501000393,None,518.5553803000366,None,left,0.5410081000300124,518.5553803000366,None,519.1177714000223,None,left,0.25997929996810853,519.1177714000223,None,,,,,,,,,,,,,,,,,,,,,,,PPT11,001,2022-06-29_12h25.08.771,ABstudy,2022.1.4,59.95318855686176,
AB,Lag1_T1P_T2P,1,P,P,5,6,4,5,11,golf ball,Did you see the golf ball?,0.12,0.016,JPG\,foosballtable,cigarette,pen04b,birthdaycandle,golfball,stapler05,binoculars01b,chain01,potato02b,cauliflower01,paintbrush01,blankImage,blankImage,blankImage,blankImage,blankImage,blankImage,golfball,,,,,,,,,,,,0,50,50,13,,,,,,,,,,,,,,,,,,,,,,,,,,,,,,,,,,,519.4046557999682,520.419071399956,520.385735000018,520.8863281999948,520.8863281999948,None,522.3644670000067,None,left,0.812707900069654,522.3644670000067,None,523.2067143999739,None,right,0.23360060004051775,523.2067143999739,None,,,,,,,,,,,,,,,,,,,,,,,PPT11,001,2022-06-29_12h25.08.771,ABstudy,2022.1.4,59.95318855686176,
AB,Lag1_T1P_T2P,1,P,P,8,9,7,3,12,zebra,Did you see the zebra?,0.12,0.016,JPG\,apple07,toiletpaper01a,pizza,dandelion,greenolive,eraser,microscope,zebra,stapler03b,lipstick02a,balloon01b,sandal,blankImage,blankImage,blankImage,blankImage,blankImage,zebra,,,,,,,,,,,,0,51,51,28,,,,,,,,,,,,,,,,,,,,,,,,,,,,,,,,,,,523.4748287999537,524.4898125999607,524.4564468000317,525.0464261999587,525.0464261999587,None,526.5339784000535,None,left,0.5550618000561371,526.5339784000535,None,527.1098139999667,None,left,0.24297180003486574,527.1098139999667,None,,,,,,,,,,,,,,,,,,,,,,,PPT11,001,2022-06-29_12h25.08.771,ABstudy,2022.1.4,59.95318855686176,
AB,Lag1_T1P_T2P,1,P,P,7,8,6,4,12,rooster,Did you see the rooster?,0.12,0.016,JPG\,pizza,strawberry,potato02b,speaker04,battery02b,iron01b,rooster,stapler03b,globe,banana01,medal02b,baseball01a,blankImage,blankImage,blankImage,blankImage,blankImage,rooster,,,,,,,,,,,,0,52,52,69,,,,,,,,,,,,,,,,,,,,,,,,,,,,,,,,,,,527.4220706999768,528.4272036999464,528.4105583999772,529.0057266999502,529.0057266999502,None,530.4723298000172,None,right,0.9287122000241652,530.4723298000172,None,531.4304290999426,None,left,0.32291919994167984,531.4304290999426,None,,,,,,,,,,,,,,,,,,,,,,,PPT11,001,2022-06-29_12h25.08.771,ABstudy,2022.1.4,59.95318855686176,
AB,Lag1_T1P_T2P,1,P,P,7,8,6,3,11,harmonica,Did you see the harmonica?,0.12,0.016,JPG\,cucumber,ring01,lipstick02a,microscope,violin,garlic01a,harmonica,stapler03b,cherry01,sewingmachine01a,belt02a,blankImage,blankImage,blankImage,blankImage,blankImage,blankImage,harmonica,,,,,,,,,,,,0,53,53,43,,,,,,,,,,,,,,,,,,,,,,,,,,,,,,,,,,,531.7851318999892,532.7986456999788,532.7819517999887,533.3483991000103,533.3483991000103,None,534.677683899994,None,left,1.0192307999823242,534.677683899994,None,535.7180302999914,None,left,0.19474890001583844,535.7180302999914,None,,,,,,,,,,,,,,,,,,,,,,,PPT11,001,2022-06-29_12h25.08.771,ABstudy,2022.1.4,59.95318855686176,
AB,Lag5_T1P_T2P,5,P,P,8,13,7,4,17,surf board,Did you see the surf board?,0.12,0.016,JPG\,candy,brownsugar,dice05a,cd,sock01a,blueberry01,button01,surfboard,feather03a,grape01,dandelion,scissors01,stapler03b,candle08b,book01b,globe,blankImage,surfboard,,,,,,,,,,,,0,54,54,142,,,,,,,,,,,,,,,,,,,,,,,,,,,,,,,,,,,536.000697099953,537.002455699956,536.9857241000282,537.567341899965,537.567341899965,None,539.4636819999432,None,right,1.5859011000720784,539.4636819999432,None,541.0733992999885,None,left,0.295023399987258,541.0733992999885,None,,,,,,,,,,,,,,,,,,,,,,,PPT11,001,2022-06-29_12h25.08.771,ABstudy,2022.1.4,59.95318855686176,
AB,Lag1_T1A_T2P,1,A,P,6,7,5,5,12,Piano,Did you see the Piano?,0.12,0.016,JPG\,toiletpaper01a,mushroom01,medal02b,sandal,rice,cd,stapler01,pizza,candle08b,garlic01a,toaster01,belt02a,blankImage,blankImage,blankImage,blankImage,blankImage,moose,,,,,,,,,,,,0,55,55,239,,,,,,,,,,,,,,,,,,,,,,,,,,,,,,,,,,,541.3957297999877,542.407774399966,542.3911361000501,542.9937421999639,542.9937421999639,None,544.4984333999455,None,right,1.1182716001057997,544.4984333999455,None,545.6440731999464,None,left,0.2284601000137627,545.6440731999464,None,,,,,,,,,,,,,,,,,,,,,,,PPT11,001,2022-06-29_12h25.08.771,ABstudy,2022.1.4,59.95318855686176,
AB,Lag5_T1A_T2A,5,A,A,5,10,4,5,15,sword,Did you see the sword?,0.12,0.016,JPG\,pencil01,broccoli01a,button01,sponge01,watermelon01,lipstick02a,comb02a,fan,lighter01,sock01a,spoon01,blueberry01,belt02a,onion,grape01,blankImage,blankImage,parachute,,,,,,,,,,,,0,56,56,298,,,,,,,,,,,,,,,,,,,,,,,,,,,,,,,,,,,545.896692099981,546.9120717999758,546.8787624000106,547.457704499946,547.457704499946,None,549.3375976999523,None,right,0.8313820000039414,549.3375976999523,None,550.1990182000445,None,right,0.25011030002497137,550.1990182000445,None,,,,,,,,,,,,,,,,,,,,,,,PPT11,001,2022-06-29_12h25.08.771,ABstudy,2022.1.4,59.95318855686176,
AB,Lag1_T1P_T2A,1,P,A,7,8,6,4,12,bird,Did you see the bird?,0.12,0.016,JPG\,speaker04,sewingmachine01a,eraser,violin,globe,belt02a,tern,cymbal,cd,greenolive,alligator,pear01,blankImage,blankImage,blankImage,blankImage,blankImage,tern,,,,,,,,,,,,0,57,57,177,,,,,,,,,,,,,,,,,,,,,,,,,,,,,,,,,,,550.469856700045,551.4835372000234,551.4668009999441,552.054233700037,552.054233700037,None,553.5643970000092,None,left,1.092721899971366,553.5643970000092,None,554.686467200052,None,right,0.4025215000147,554.686467200052,None,,,,,,,,,,,,,,,,,,,,,,,PPT11,001,2022-06-29_12h25.08.771,ABstudy,2022.1.4,59.95318855686176,
AB,Lag1_T1P_T2P,1,P,P,7,8,6,3,11,Moose,Did you see the Moose?,0.12,0.016,JPG\,sock01a,spoon01,alligator,comb02a,printer02,medal02b,moose,stapler03a,greenolive,computerkeyboard02,cauliflower01,blankImage,blankImage,blankImage,blankImage,blankImage,blankImage,moose,,,,,,,,,,,,0,58,58,67,,,,,,,,,,,,,,,,,,,,,,,,,,,,,,,,,,,555.1225297000492,556.1379110000562,556.1045356000541,556.6938768000109,556.6938768000109,None,558.0817805000115,None,left,9.102508199983276,558.0817805000115,None,567.215638200054,None,right,4.240800000028685,567.215638200054,None,,,,,,,,,,,,,,,,,,,,,,,PPT11,001,2022-06-29_12h25.08.771,ABstudy,2022.1.4,59.95318855686176,
AB,Lag1_T1P_T2P,1,P,P,7,8,6,5,13,tiger,Did you see the tiger?,0.12,0.016,JPG\,globe,broccoli01a,binoculars01b,iron01b,avocado01,dandelion,tiger02,stapler03b,fan,pizza,celery,blueberry01,sewingmachine01a,blankImage,blankImage,blankImage,blankImage,tiger02,,,,,,,,,,,,0,59,59,50,,,,,,,,,,,,,,,,,,,,,,,,,,,,,,,,,,,571.4888537999941,572.5043138000183,572.4708568999777,573.0570462000323,573.0570462000323,None,574.6376911000116,None,left,1.0833884000312537,574.6376911000116,None,575.7421101999935,None,right,0.41868020000401884,575.7421101999935,None,,,,,,,,,,,,,,,,,,,,,,,PPT11,001,2022-06-29_12h25.08.771,ABstudy,2022.1.4,59.95318855686176,
AB,Lag5_T1P_T2P,5,P,P,8,13,7,5,18,hand,Did you see the hand?,0.12,0.016,JPG\,foosballtable,candy,envelope03a,microscope,pencil01,leaf02a,scissors01,hand01b,grape01,dandelion,pineapple01a,hammer01,stapler03a,thermometer02b,ring01,sewingmachine01a,blankImage,hand01b,,,,,,,,,,,,0,60,60,131,,,,,,,,,,,,,,,,,,,,,,,,,,,,,,,,,,,576.1954442999559,577.2087236000225,577.1921754999785,577.6925214000512,577.6925214000512,None,579.7679028999992,None,left,0.5686678000492975,579.7679028999992,None,580.3618653999874,None,left,0.23223600001074374,580.3618653999874,None,,,,,,,,,,,,,,,,,,,,,,,PPT11,001,2022-06-29_12h25.08.771,ABstudy,2022.1.4,59.95318855686176,
AB,Lag1_T1P_T2P,1,P,P,6,7,5,3,10,windmill,Did you see the windmill?,0.12,0.016,JPG\,pizza,printer02,medal02b,spoon01,grape01,windmill,stapler04b,watermelon01,celery,battery02b,blankImage,blankImage,blankImage,blankImage,blankImage,blankImage,blankImage,windmill,,,,,,,,,,,,0,61,61,75,,,,,,,,,,,,,,,,,,,,,,,,,,,,,,,,,,,580.6693639999721,581.6801866999594,581.6634473999729,582.2621682999888,582.2621682999888,None,583.3982633999549,None,left,0.7621428000275046,583.3982633999549,None,584.1826672999887,None,right,0.24950939998961985,584.1826672999887,None,,,,,,,,,,,,,,,,,,,,,,,PPT11,001,2022-06-29_12h25.08.771,ABstudy,2022.1.4,59.95318855686176,
AB,Lag5_T1A_T2A,5,A,A,6,11,5,3,14,mirror,Did you see the mirror?,0.12,0.016,JPG\,foosballtable,candy,envelope03a,microscope,pencil01,leaf02a,scissors01,watermelon01,grape01,dandelion,pineapple01a,hammer01,celery,thermometer02b,blankImage,blankImage,blankImage,shower,,,,,,,,,,,,0,62,62,305,,,,,,,,,,,,,,,,,,,,,,,,,,,,,,,,,,,584.4516767000314,585.4670664999867,585.433721599984,585.9342350000516,585.9342350000516,None,587.7485938000027,None,right,0.8917541999835521,587.7485938000027,None,588.6706726000411,None,right,0.22661849996075034,588.6706726000411,None,,,,,,,,,,,,,,,,,,,,,,,PPT11,001,2022-06-29_12h25.08.771,ABstudy,2022.1.4,59.95318855686176,
AB,Lag5_T1P_T2A,5,P,A,5,10,4,4,14,rocket,Did you see the rocket?,0.12,0.016,JPG\,fan,tomato01,candy,screwdriver04b,spacerocket,cd,thermometer02b,apple07,button01,plate01b,brownsugar,lighter01,clock01a,envelope03a,blankImage,blankImage,blankImage,spacerocket,,,,,,,,,,,,0,63,63,226,,,,,,,,,,,,,,,,,,,,,,,,,,,,,,,,,,,588.9248230999801,589.9383656999562,589.9216550999554,590.5143712999998,590.5143712999998,None,592.2109156999504,None,right,1.1019860000815243,592.2109156999504,None,593.3415787999984,None,right,0.28258420003112406,593.3415787999984,None,,,,,,,,,,,,,,,,,,,,,,,PPT11,001,2022-06-29_12h25.08.771,ABstudy,2022.1.4,59.95318855686176,
AB,Lag1_T1P_T2P,1,P,P,8,9,7,3,12,snow globe,Did you see the Snow globe?,0.12,0.016,JPG\,eraser,measuringcup01,chain01,birthdaycandle,ring01,rice,8ball,stapler04b,stapler01,celery,microscope,sunglasses04,blankImage,blankImage,blankImage,blankImage,blankImage,snowglobe,,,,,,,,,,,,0,64,64,56,,,,,,,,,,,,,,,,,,,,,,,,,,,,,,,,,,,593.6450285000028,594.6598608000204,594.6265180000337,595.1968900000211,595.1968900000211,None,596.7025293000042,None,right,1.074489300022833,596.7025293000042,None,597.7959710999858,None,left,0.19605419994331896,597.7959710999858,None,,,,,,,,,,,,,,,,,,,,,,,PPT11,001,2022-06-29_12h25.08.771,ABstudy,2022.1.4,59.95318855686176,
AB,Lag5_T1P_T2P,5,P,P,6,11,5,3,14,shower head,Did you see the shower head?,0.12,0.016,JPG\,belt02a,measuringcup01,spoon01,chain01,greenolive,showerhead01,computerkeyboard02,onion,fan,strawberry,stapler01,broom01,binoculars01b,ashtray01,blankImage,blankImage,blankImage,showerhead01,,,,,,,,,,,,0,65,65,98,,,,,,,,,,,,,,,,,,,,,,,,,,,,,,,,,,,598.0155459999805,599.0305877999635,598.9972418999532,599.5755917000351,599.5755917000351,None,601.338526400039,None,left,1.262252299929969,601.338526400039,None,602.61753519997,None,left,0.4561314999591559,602.61753519997,None,,,,,,,,,,,,,,,,,,,,,,,PPT11,001,2022-06-29_12h25.08.771,ABstudy,2022.1.4,59.95318855686176,
AB,Lag5_T1A_T2P,5,A,P,7,12,6,3,15,Car,Did you see the Car?,0.12,0.016,JPG\,lighter01,hammer01,spoon01,chain01,cymbal,sponge01,lipstick02a,alligator,pig,watermelon01,cauliflower01,stapler03b,broccoli01a,tableknife02,tennisball01b,blankImage,blankImage,wallclock,,,,,,,,,,,,0,66,66,277,,,,,,,,,,,,,,,,,,,,,,,,,,,,,,,,,,,603.1035739999497,604.1190318999579,604.0856477000052,604.6606962999795,604.6606962999795,None,606.4981849000324,None,right,0.6309164999984205,606.4981849000324,None,607.1554431000259,None,left,0.18098760000430048,607.1554431000259,None,,,,,,,,,,,,,,,,,,,,,,,PPT11,001,2022-06-29_12h25.08.771,ABstudy,2022.1.4,59.95318855686176,
AB,Lag5_T1P_T2A,5,P,A,5,10,4,3,13,pin,Did you see the pin?,0.12,0.016,JPG\,candle01,fork03c,plate01b,violin,pin,candy,calculator01,paintbrush01,cherry01,sock01a,teabag,banana01,cd,blankImage,blankImage,blankImage,blankImage,pin,,,,,,,,,,,,0,67,67,215,,,,,,,,,,,,,,,,,,,,,,,,,,,,,,,,,,,607.3658340000547,608.374507999979,608.3588801999576,609.004142699996,608.9362540000584,None,610.4951588000404,None,right,0.8658462999155745,610.4951588000404,None,611.393236199976,None,right,0.8707677000202239,611.393236199976,None,,,,,,,,,,,,,,,,,,,,,,,PPT11,001,2022-06-29_12h25.08.771,ABstudy,2022.1.4,59.95318855686176,
AB,Lag1_T1P_T2P,1,P,P,5,6,4,5,11,owl,Did you see the owl?,0.12,0.016,JPG\,cellphone,tomato01,comb02a,candy,barnowl,stapler03a,toaster01,fan,feather03a,pen04b,lemon02,blankImage,blankImage,blankImage,blankImage,blankImage,blankImage,barnowl,,,,,,,,,,,,0,68,68,33,,,,,,,,,,,,,,,,,,,,,,,,,,,,,,,,,,,612.2970742000034,613.3116647000425,613.2782719000243,613.8581486999756,613.8581486999756,None,615.2560825999826,None,left,0.5443301999475807,615.2560825999826,None,615.8305900000269,None,left,0.20283520000521094,615.8305900000269,None,,,,,,,,,,,,,,,,,,,,,,,PPT11,001,2022-06-29_12h25.08.771,ABstudy,2022.1.4,59.95318855686176,
AB,Lag5_T1P_T2P,5,P,P,7,12,6,4,16,Bird feeder,Did you see the Bird feeder?,0.12,0.016,JPG\,watermelon01,banana01,ring01,pencil01,tomato01,speaker04,birdfeeder,thermometer02b,key01,foosballtable,violin,stapler06,clock04,dice05a,pen04b,mushroom01,blankImage,birdfeeder,,,,,,,,,,,,0,69,69,164,,,,,,,,,,,,,,,,,,,,,,,,,,,,,,,,,,,616.0670660999604,617.0818957999581,617.0484980000183,617.6782535000239,617.6782535000239,None,619.5722940999549,None,left,0.9881542000221089,619.5722940999549,None,620.5851933000376,None,right,0.5112403000239283,620.5851933000376,None,,,,,,,,,,,,,,,,,,,,,,,PPT11,001,2022-06-29_12h25.08.771,ABstudy,2022.1.4,59.95318855686176,
AB,Lag1_T1P_T2A,1,P,A,6,7,5,3,10,Dragon fly,Did you see the Dragon fly?,0.12,0.016,JPG\,leaf02a,pear01,measuringcup01,cigarette,fan,dragonfly01,teabag,tableknife02,ring01,pencil01,blankImage,blankImage,blankImage,blankImage,blankImage,blankImage,blankImage,dragonfly01,,,,,,,,,,,,0,70,70,185,,,,,,,,,,,,,,,,,,,,,,,,,,,,,,,,,,,621.121267199982,622.1367261999985,622.1033963999944,622.6791896000504,622.6791896000504,None,623.9083156000124,None,left,0.8120655999518931,623.9083156000124,None,624.7402653000318,None,right,1.6919838999165222,624.7402653000318,None,,,,,,,,,,,,,,,,,,,,,,,PPT11,001,2022-06-29_12h25.08.771,ABstudy,2022.1.4,59.95318855686176,
AB,Lag1_T1P_T2P,1,P,P,8,9,7,4,13,peacock,Did you see the peacock?,0.12,0.016,JPG\,hammer01,sponge01,toaster01,cherry01,feather03a,mushroom01,measuringcup01,peacock,stapler03a,brick,clock04,medal02b,teabag,blankImage,blankImage,blankImage,blankImage,peacock,,,,,,,,,,,,0,71,71,68,,,,,,,,,,,,,,,,,,,,,,,,,,,,,,,,,,,626.4650091000367,627.4757153999526,627.4590075999731,628.0379210000392,628.0379210000392,None,629.645213300013,None,left,0.939048400032334,629.645213300013,None,630.6123664999614,None,right,0.37972299999091774,630.6123664999614,None,,,,,,,,,,,,,,,,,,,,,,,PPT11,001,2022-06-29_12h25.08.771,ABstudy,2022.1.4,59.95318855686176,
AB,Lag5_T1P_T2P,5,P,P,5,10,4,5,15,hockey puck,Did you see the hockey puck?,0.12,0.016,JPG\,chain01,pen04b,birthdaycandle,watermelon01,hockeypuck,scissors01,measuringcup01,candle01,hammer01,stapler06,ashtray01,feather03a,sewingmachine01a,thermometer02b,alligator,blankImage,blankImage,hockeypuck,,,,,,,,,,,,0,72,72,110,,,,,,,,,,,,,,,,,,,,,,,,,,,,,,,,,,,631.0671575999586,632.0803353999509,632.0636121999705,632.6387059000554,632.6387059000554,None,634.3228096000385,None,right,1.9176402000011876,634.3228096000385,None,636.2676165000303,None,left,0.23677419999148697,636.2676165000303,None,,,,,,,,,,,,,,,,,,,,,,,PPT11,001,2022-06-29_12h25.08.771,ABstudy,2022.1.4,59.95318855686176,
AB,Lag5_T1P_T2P,5,P,P,7,12,6,4,16,flower,Did you see the flower?,0.12,0.016,JPG\,cucumber,sponge01,alligator,pear01,ashtray01,hammer01,hibiscusflower02,battery02b,fork03c,binoculars01b,mushroom01,stapler01,leaf02a,acorn,comb02a,screwdriver04b,blankImage,hibiscusflower02,,,,,,,,,,,,0,73,73,132,,,,,,,,,,,,,,,,,,,,,,,,,,,,,,,,,,,636.5368776000105,637.5524767000461,637.5191208999604,638.0832148999907,638.0832148999907,None,640.0567233000183,None,left,0.7687679999507964,640.0567233000183,None,640.8558161000255,None,left,0.25684929999988526,640.8558161000255,None,,,,,,,,,,,,,,,,,,,,,,,PPT11,001,2022-06-29_12h25.08.771,ABstudy,2022.1.4,59.95318855686176,
AB,Lag5_T1P_T2P,5,P,P,6,11,5,4,15,punching bag,Did you see the punching bag?,0.12,0.016,JPG\,foosballtable,cigarette,pen04b,birthdaycandle,hammer01,punchingbag,binoculars01b,chain01,potato02b,cauliflower01,stapler04b,ashtray01,scarf,cellphone,calculator01,blankImage,blankImage,punchingbag,,,,,,,,,,,,0,74,74,156,,,,,,,,,,,,,,,,,,,,,,,,,,,,,,,,,,,641.1463598000119,642.1571628999664,642.140412400011,642.6410862000193,642.6410862000193,None,644.5660470000003,None,left,0.6903571999864653,644.5660470000003,None,645.2773714000359,None,left,0.25928110000677407,645.2773714000359,None,,,,,,,,,,,,,,,,,,,,,,,PPT11,001,2022-06-29_12h25.08.771,ABstudy,2022.1.4,59.95318855686176,
AB,Lag1_T1A_T2A,1,A,A,8,9,7,4,13,Recycling bin,Did you see the Recycling bin?,0.12,0.016,JPG\,brick,plate01b,pen04b,toaster01,screwdriver04b,candle01,envelope03a,feather03a,pig,ring01,orange,clock01a,lighter01,blankImage,blankImage,blankImage,blankImage,bumpercar,,,,,,,,,,,,0,75,75,292,,,,,,,,,,,,,,,,,,,,,,,,,,,,,,,,,,,645.6089994000504,646.6115908999927,646.595310100005,647.1839613999473,647.1839613999473,None,648.702195800026,None,right,0.9137688999762759,648.702195800026,None,649.661982199992,None,right,0.7945746999466792,649.661982199992,None,,,,,,,,,,,,,,,,,,,,,,,PPT11,001,2022-06-29_12h25.08.771,ABstudy,2022.1.4,59.95318855686176,
AB,Lag5_T1P_T2A,5,P,A,5,10,4,3,13,martini glass,Did you see the martini glass?,0.12,0.016,JPG\,brick,eraser,cucumber,ashtray01,martiniglass01b,binoculars01b,lipstick02a,screwdriver04b,grape01,brownsugar,battery02b,iron01b,dice05a,blankImage,blankImage,blankImage,blankImage,martiniglass01b,,,,,,,,,,,,0,76,76,217,,,,,,,,,,,,,,,,,,,,,,,,,,,,,,,,,,,650.4848618999822,651.4995589000173,651.4827463000547,652.1234967999626,652.0479789000237,None,653.6669956999831,None,left,1.1816199000459164,653.6669956999831,None,654.8707828000188,None,right,0.21781679999548942,654.8707828000188,None,,,,,,,,,,,,,,,,,,,,,,,PPT11,001,2022-06-29_12h25.08.771,ABstudy,2022.1.4,59.95318855686176,
AB,Lag5_T1P_T2P,5,P,P,5,10,4,4,14,Salt shaker,Did you see the Salt shaker?,0.12,0.016,JPG\,fork03c,belt02a,grape01,computerkeyboard02,saltshaker03a,printer02,broom01,toiletpaper01a,toaster01,stapler01,book01b,blueberry01,spoon01,apple07,blankImage,blankImage,blankImage,saltshaker03a,,,,,,,,,,,,0,77,77,96,,,,,,,,,,,,,,,,,,,,,,,,,,,,,,,,,,,655.2011143000564,656.2041317999829,656.1875034000259,656.7624284999911,656.7624284999911,None,658.4216931000119,None,left,0.8590290000429377,658.4216931000119,None,659.3071817000164,None,left,0.24455840000882745,659.3071817000164,None,,,,,,,,,,,,,,,,,,,,,,,PPT11,001,2022-06-29_12h25.08.771,ABstudy,2022.1.4,59.95318855686176,
AB,Lag5_T1A_T2P,5,A,P,7,12,6,4,16,hand,Did you see the hand?,0.12,0.016,JPG\,celery,tennisball01b,calculator01,pear01,screw02,orange,button01,cellphone,onion,apple07,iron01b,stapler05,banana01,paintbrush01,dandelion,toothbrush03b,blankImage,bull,,,,,,,,,,,,0,78,78,281,,,,,,,,,,,,,,,,,,,,,,,,,,,,,,,,,,,659.5784114999697,660.5918877000222,660.5596476000501,661.1364258000394,661.1364258000394,None,663.1573693000246,None,right,0.6673061000183225,663.1573693000246,None,663.8457427000394,None,left,0.17089660000056028,663.8457427000394,None,,,,,,,,,,,,,,,,,,,,,,,PPT11,001,2022-06-29_12h25.08.771,ABstudy,2022.1.4,59.95318855686176,
AB,Lag5_T1P_T2P,5,P,P,8,13,7,5,18,Kiwi,Did you see the Kiwi?,0.12,0.016,JPG\,violin,pizza,toothbrush03b,pineapple01a,banana01,ashtray01,candy,kiwi03,clock04,sock01a,microscope,speaker04,stapler04b,sunglasses04,lipstick02a,blueberry01,blankImage,kiwi03,,,,,,,,,,,,0,79,79,111,,,,,,,,,,,,,,,,,,,,,,,,,,,,,,,,,,,664.054993400001,665.0631733000046,665.0467248000205,665.6551648000022,665.6551648000022,None,667.6040435000323,None,left,0.6597508999984711,667.6040435000323,None,668.2851003999822,None,left,0.235070800059475,668.2851003999822,None,,,,,,,,,,,,,,,,,,,,,,,PPT11,001,2022-06-29_12h25.08.771,ABstudy,2022.1.4,59.95318855686176,
AB,Lag1_T1P_T2P,1,P,P,8,9,7,4,13,Hula hoop,Did you see the Hula hoop?,0.12,0.016,JPG\,brownsugar,candle01,match,printer02,broom01,balloon01b,belt02a,hulahoop,stapler04b,feather03a,rice,mushroom01,pencil01,blankImage,blankImage,blankImage,blankImage,hulahoop,,,,,,,,,,,,0,80,80,64,,,,,,,,,,,,,,,,,,,,,,,,,,,,,,,,,,,668.5632279999554,669.5672416000161,669.5505548999645,670.0511482000584,670.0511482000584,None,671.7021765999962,None,right,0.7778073999797925,671.7021765999962,None,672.5180106000043,None,left,0.2741414000047371,672.5180106000043,None,,,,,,,,,,,,,,,,,,,,,,,PPT11,001,2022-06-29_12h25.08.771,ABstudy,2022.1.4,59.95318855686176,
AB,Lag5_T1P_T2P,5,P,P,7,12,6,5,17,elbow,Did you see the elbow?,0.12,0.016,JPG\,candle01,fork03c,plate01b,violin,computerkeyboard02,candy,elbow,paintbrush01,cherry01,sock01a,teabag,stapler01,cd,lighter01,book01b,tennisball01b,blankImage,elbow,,,,,,,,,,,,0,81,81,87,,,,,,,,,,,,,,,,,,,,,,,,,,,,,,,,,,,672.8280251000542,673.8382764999988,673.8216208999511,674.3968282999704,674.3968282999704,None,676.3688940999564,None,left,0.9831026000902057,676.3688940999564,None,677.3753351999912,None,right,0.2016120000043884,677.3753351999912,None,,,,,,,,,,,,,,,,,,,,,,,PPT11,001,2022-06-29_12h25.08.771,ABstudy,2022.1.4,59.95318855686176,
AB,Lag5_T1P_T2P,5,P,P,5,10,4,3,13,lollipop,Did you see the lollipop?,0.12,0.016,JPG\,brownsugar,candle01,match,printer02,lollipop04,balloon01b,belt02a,potato02b,computerkeyboard02,stapler03a,rice,mushroom01,pencil01,blankImage,blankImage,blankImage,blankImage,lollipop04,,,,,,,,,,,,0,82,82,112,,,,,,,,,,,,,,,,,,,,,,,,,,,,,,,,,,,677.6606039999751,678.6598267999943,678.6598267999943,679.1623704000376,679.1623704000376,None,680.7521920000436,None,left,0.5439965999685228,680.7521920000436,None,681.314953800058,None,left,0.1908890000777319,681.314953800058,None,,,,,,,,,,,,,,,,,,,,,,,PPT11,001,2022-06-29_12h25.08.771,ABstudy,2022.1.4,59.95318855686176,
AB,Lag1_T1P_T2A,1,P,A,7,8,6,3,11,Seagull,Did you see the Seagull?,0.12,0.016,JPG\,toiletpaper01a,mushroom01,medal02b,sandal,rice,cd,seagull,pizza,candle08b,garlic01a,toaster01,blankImage,blankImage,blankImage,blankImage,blankImage,blankImage,seagull,,,,,,,,,,,,0,83,83,176,,,,,,,,,,,,,,,,,,,,,,,,,,,,,,,,,,,681.5352329999441,682.5471764999675,682.5305678000441,683.1244972000131,683.1244972000131,None,684.5060408000136,None,left,1.8143501000013202,684.5060408000136,None,686.3513883999549,None,left,0.16080260009039193,686.3513883999549,None,,,,,,,,,,,,,,,,,,,,,,,PPT11,001,2022-06-29_12h25.08.771,ABstudy,2022.1.4,59.95318855686176,
AB,Lag1_T1P_T2P,1,P,P,6,7,5,5,12,Snowboard,Did you see the Snowboard?,0.12,0.016,JPG\,belt02a,measuringcup01,spoon01,chain01,greenolive,snowboard,stapler01,onion,fan,strawberry,candle01,broom01,blankImage,blankImage,blankImage,blankImage,blankImage,snowboard,,,,,,,,,,,,0,84,84,49,,,,,,,,,,,,,,,,,,,,,,,,,,,,,,,,,,,686.5371838000137,687.5520509999478,687.5194479000056,688.0822246000171,688.0822246000171,None,689.5607904000208,None,left,0.5602307999506593,689.5607904000208,None,690.1378519999562,None,left,0.189642500015907,690.1378519999562,None,,,,,,,,,,,,,,,,,,,,,,,PPT11,001,2022-06-29_12h25.08.771,ABstudy,2022.1.4,59.95318855686176,
AB,Lag1_T1P_T2P,1,P,P,6,7,5,4,11,cash register,Did you see the cash register?,0.12,0.016,JPG\,leaf02a,apple07,cd,pineapple01a,envelope03a,cashregister01,stapler03b,8ball,rice,feather03a,lemon02,blankImage,blankImage,blankImage,blankImage,blankImage,blankImage,cashregister01,,,,,,,,,,,,0,85,85,79,,,,,,,,,,,,,,,,,,,,,,,,,,,,,,,,,,,690.3591952000279,691.3728067999473,691.3560087999795,691.944647999946,691.944647999946,None,693.3628276999807,None,left,0.40518860006704926,693.3628276999807,None,693.7918649000349,None,left,0.21594639995601028,693.7918649000349,None,,,,,,,,,,,,,,,,,,,,,,,PPT11,001,2022-06-29_12h25.08.771,ABstudy,2022.1.4,59.95318855686176,
AB,Lag1_T1A_T2P,1,A,P,8,9,7,5,14,Wolf,Did you see the Wolf?,0.12,0.016,JPG\,carrot01,watch02a,clock04,microscope,toiletpaper01a,potato02b,alligator,ring01,stapler03b,watermelon01,cd,pencil01,measuringcup01,balloon01b,blankImage,blankImage,blankImage,dreamcatcher,,,,,,,,,,,,0,86,86,253,,,,,,,,,,,,,,,,,,,,,,,,,,,,,,,,,,,694.0304645999568,695.0429165000096,695.0262567000464,695.6050043000141,695.6050043000141,None,697.3333374999929,None,right,1.0983826000010595,697.3333374999929,None,698.4631509999745,None,left,0.1694413999794051,698.4631509999745,None,,,,,,,,,,,,,,,,,,,,,,,PPT11,001,2022-06-29_12h25.08.771,ABstudy,2022.1.4,59.95318855686176,
AB,Lag5_T1P_T2P,5,P,P,7,12,6,3,15,marble,Did you see the marble?,0.12,0.016,JPG\,cigarette,ashtray01,envelope03a,sandal,chain01,cucumber,marble,tomato01,dandelion,candle01,lemon02,stapler03b,potato02b,cymbal,clock01a,blankImage,blankImage,marble,,,,,,,,,,,,0,87,87,146,,,,,,,,,,,,,,,,,,,,,,,,,,,,,,,,,,,698.6671035999898,699.680979100056,699.6644030000316,700.2320864000358,700.2320864000358,None,702.0734290999826,None,left,1.006519200047478,702.0734290999826,None,703.1012449000264,None,right,0.2346252000425011,703.1012449000264,None,,,,,,,,,,,,,,,,,,,,,,,PPT11,001,2022-06-29_12h25.08.771,ABstudy,2022.1.4,59.95318855686176,
AB,Lag5_T1P_T2P,5,P,P,8,13,7,5,18,bed,Did you see the bed?,0.12,0.016,JPG\,pencil01,broccoli01a,button01,sponge01,watermelon01,lipstick02a,comb02a,bed,lighter01,sock01a,spoon01,blueberry01,stapler04b,onion,grape01,avocado01,blankImage,bed,,,,,,,,,,,,0,88,88,124,,,,,,,,,,,,,,,,,,,,,,,,,,,,,,,,,,,703.3704645000398,704.3693378999596,704.3538539999863,704.9382909999695,704.9382909999695,None,706.8774887999753,None,left,0.5621566000627354,706.8774887999753,None,707.4719275999814,None,left,0.21660939999856055,707.4719275999814,None,,,,,,,,,,,,,,,,,,,,,,,PPT11,001,2022-06-29_12h25.08.771,ABstudy,2022.1.4,59.95318855686176,
AB,Lag5_T1P_T2P,5,P,P,7,12,6,5,17,flamingo,Did you see the flamingo?,0.12,0.016,JPG\,pig,belt02a,rice,screwdriver04b,candle01,apple07,flamingo,pear01,feather03a,match,thermometer02b,stapler06,lemon02,violin,medal02b,pineapple01a,blankImage,flamingo,,,,,,,,,,,,0,89,89,153,,,,,,,,,,,,,,,,,,,,,,,,,,,,,,,,,,,707.7085106000304,708.723097100039,708.6896860999987,709.190325899981,709.190325899981,None,711.2553631999763,None,left,0.6729168000165373,711.2553631999763,None,711.9601525999606,None,left,0.176325700012967,711.9601525999606,None,,,,,,,,,,,,,,,,,,,,,,,PPT11,001,2022-06-29_12h25.08.771,ABstudy,2022.1.4,59.95318855686176,
AB,Lag1_T1A_T2P,1,A,P,8,9,7,3,12,elbow,Did you see the elbow?,0.12,0.016,JPG\,watermelon01,cigarette,faucet,cymbal,cauliflower01,feather03a,cherry01,broom01,stapler01,key01,baseball01a,iron01b,blankImage,blankImage,blankImage,blankImage,blankImage,cashregister01,,,,,,,,,,,,0,90,90,251,,,,,,,,,,,,,,,,,,,,,,,,,,,,,,,,,,,712.1643433000427,713.1776683999924,713.1609382999595,713.7570296999766,713.7570296999766,None,715.2284781000344,None,right,1.2356229999568313,715.2284781000344,None,716.4813472999958,None,left,0.2228108000708744,716.4813472999958,None,,,,,,,,,,,,,,,,,,,,,,,PPT11,001,2022-06-29_12h25.08.771,ABstudy,2022.1.4,59.95318855686176,
AB,Lag1_T1P_T2A,1,P,A,7,8,6,3,11,Snowshoe,Did you see the Snowshoe?,0.12,0.016,JPG\,birthdaycandle,mushroom01,strawberry,match,cherry01,eraser,snowshoe,thermometer02b,sock01a,ring01,feather03a,blankImage,blankImage,blankImage,blankImage,blankImage,blankImage,snowshoe,,,,,,,,,,,,0,91,91,194,,,,,,,,,,,,,,,,,,,,,,,,,,,,,,,,,,,716.7996951000532,717.7991405000212,717.7991405000212,718.3023762999801,718.3023762999801,None,719.6204417999834,None,right,3.467053100001067,719.6204417999834,None,723.1046654999955,None,left,0.5366879000794142,723.1046654999955,None,,,,,,,,,,,,,,,,,,,,,,,PPT11,001,2022-06-29_12h25.08.771,ABstudy,2022.1.4,59.95318855686176,
AB,Lag5_T1P_T2P,5,P,P,5,10,4,3,13,Rabbit,Did you see the Rabbit?,0.12,0.016,JPG\,celery,tennisball01b,calculator01,pear01,jackrabbit,orange,button01,cellphone,onion,stapler06,iron01b,brownsugar,banana01,blankImage,blankImage,blankImage,blankImage,jackrabbit,,,,,,,,,,,,0,92,92,90,,,,,,,,,,,,,,,,,,,,,,,,,,,,,,,,,,,723.6764232000569,724.6892538999673,724.672585500055,725.2510948999552,725.2510948999552,None,726.901397199952,None,left,0.747229800093919,726.901397199952,None,727.6758854000363,None,left,0.16477969998959452,727.6758854000363,None,,,,,,,,,,,,,,,,,,,,,,,PPT11,001,2022-06-29_12h25.08.771,ABstudy,2022.1.4,59.95318855686176,
AB,Lag5_T1P_T2P,5,P,P,7,12,6,5,17,American football helmet,Did you see the American football helmet?,0.12,0.016,JPG\,alligator,banana01,apple07,tomato01,button01,spoon01,footballhelmet,fork03c,slipper03b,potato02b,grape01,stapler03b,teabag,screwdriver04b,hammer01,tennisball01b,blankImage,footballhelmet,,,,,,,,,,,,0,93,93,148,,,,,,,,,,,,,,,,,,,,,,,,,,,,,,,,,,,727.8717415999854,728.8767547999742,728.8434754000045,729.3458914000075,729.3458914000075,None,731.4454708000412,None,left,0.4345661000115797,731.4454708000412,None,731.9128152000485,None,left,1.1909752000356093,731.9128152000485,None,,,,,,,,,,,,,,,,,,,,,,,PPT11,001,2022-06-29_12h25.08.771,ABstudy,2022.1.4,59.95318855686176,
AB,Lag1_T1A_T2A,1,A,A,8,9,7,4,13,sword fish,Did you see the sword fish?,0.12,0.016,JPG\,pizza,strawberry,potato02b,speaker04,battery02b,iron01b,dice05a,cellphone,globe,banana01,medal02b,baseball01a,toaster01,blankImage,blankImage,blankImage,blankImage,ear,,,,,,,,,,,,0,94,94,295,,,,,,,,,,,,,,,,,,,,,,,,,,,,,,,,,,,733.1900587000418,734.1985663999803,734.1818952000467,734.7940103999572,734.7940103999572,None,736.3482525000582,None,right,0.9711287000682205,736.3482525000582,None,737.3514453000389,None,right,0.7041935999877751,737.3514453000389,None,,,,,,,,,,,,,,,,,,,,,,,PPT11,001,2022-06-29_12h25.08.771,ABstudy,2022.1.4,59.95318855686176,
AB,Lag1_T1P_T2P,1,P,P,6,7,5,3,10,spider web,Did you see the spider web?,0.12,0.016,JPG\,toaster01,chain01,sponge01,baseball01a,carrot01,spiderweb,stapler03b,iron01b,grape01,brick,blankImage,blankImage,blankImage,blankImage,blankImage,blankImage,blankImage,spiderweb,,,,,,,,,,,,0,95,95,72,,,,,,,,,,,,,,,,,,,,,,,,,,,,,,,,,,,738.0882596999872,739.1034027000424,739.0700434000464,739.6631535999477,739.6631535999477,None,740.8620682000183,None,left,0.9781458999495953,740.8620682000183,None,741.872694300022,None,right,0.5112626000773162,741.872694300022,None,,,,,,,,,,,,,,,,,,,,,,,PPT11,001,2022-06-29_12h25.08.771,ABstudy,2022.1.4,59.95318855686176,
AB,Lag1_T1P_T2P,1,P,P,5,6,4,3,9,mail box,Did you see the mail box?,0.12,0.016,JPG\,watermelon01,banana01,ring01,pencil01,mailbox02,stapler04b,cucumber,thermometer02b,key01,blankImage,blankImage,blankImage,blankImage,blankImage,blankImage,blankImage,blankImage,mailbox02,,,,,,,,,,,,0,96,96,21,,,,,,,,,,,,,,,,,,,,,,,,,,,,,,,,,,,742.4587462999625,743.4751453000354,743.4592293000314,744.0759809999727,744.0759809999727,None,745.1053856000071,None,right,1.102834100020118,745.1053856000071,None,746.2270113000413,None,left,1.2209475999698043,746.2270113000413,None,,,,,,,,,,,,,,,,,,,,,,,PPT11,001,2022-06-29_12h25.08.771,ABstudy,2022.1.4,59.95318855686176,
AB,Lag5_T1P_T2A,5,P,A,5,10,4,3,13,cork,Did you see the cork?,0.12,0.016,JPG\,clock01a,grape01,plate01b,key01,cork02,feather03a,pineapple01a,iron01b,toothbrush03b,comb02a,broom01,toaster01,pizza,blankImage,blankImage,blankImage,blankImage,cork02,,,,,,,,,,,,0,97,97,209,,,,,,,,,,,,,,,,,,,,,,,,,,,,,,,,,,,747.480501199956,748.4960042999592,748.4625799000496,749.0439237999963,749.0439237999963,None,750.6840723999776,None,right,2.548101000022143,750.6840723999776,None,753.2512774999486,None,right,0.2698014999041334,753.2512774999486,None,,,,,,,,,,,,,,,,,,,,,,,PPT11,001,2022-06-29_12h25.08.771,ABstudy,2022.1.4,59.95318855686176,
AB,Lag1_T1P_T2P,1,P,P,7,8,6,3,11,Sand castle,Did you see the Sand castle?,0.12,0.016,JPG\,thermometer02b,candle08b,comb02a,toothbrush03b,brick,computerkeyboard02,sandcastle,stapler06,candy,birthdaycandle,clock04,blankImage,blankImage,blankImage,blankImage,blankImage,blankImage,sandcastle,,,,,,,,,,,,0,98,98,70,,,,,,,,,,,,,,,,,,,,,,,,,,,,,,,,,,,753.606533800019,754.6188478999538,754.6021259999834,755.2258115999866,755.2258115999866,None,756.4645706999581,None,left,1.5036987999919802,756.4645706999581,None,757.9887410999509,None,left,0.20276100002229214,757.9887410999509,None,,,,,,,,,,,,,,,,,,,,,,,PPT11,001,2022-06-29_12h25.08.771,ABstudy,2022.1.4,59.95318855686176,
AB,Lag1_T1P_T2P,1,P,P,8,9,7,3,12,Wheelchair,Did you see the Wheelchair?,0.12,0.016,JPG\,cigarette,pig,banana01,strawberry,clock01a,plate01b,spoon01,wheelchair,stapler03b,pineapple01a,chain01,paintbrush01,blankImage,blankImage,blankImage,blankImage,blankImage,wheelchair,,,,,,,,,,,,0,99,99,27,,,,,,,,,,,,,,,,,,,,,,,,,,,,,,,,,,,758.224614399951,759.2399565000087,759.2065531000262,759.781402099994,759.781402099994,None,761.3361501999898,None,left,1.0637923999456689,761.3361501999898,None,762.4268012000248,None,right,0.9574604999506846,762.4268012000248,None,,,,,,,,,,,,,,,,,,,,,,,PPT11,001,2022-06-29_12h25.08.771,ABstudy,2022.1.4,59.95318855686176,
AB,Lag1_T1A_T2P,1,A,P,8,9,7,4,13,Fireplace,Did you see the Fireplace?,0.12,0.016,JPG\,scissors01,ashtray01,garlic01a,medal02b,cigarette,candle08b,leaf02a,envelope03a,stapler06,rice,toiletpaper01a,greenolive,cymbal,blankImage,blankImage,blankImage,blankImage,dartboard,,,,,,,,,,,,0,100,100,252,,,,,,,,,,,,,,,,,,,,,,,,,,,,,,,,,,,763.4148595000152,764.4284703000449,764.4117799999658,764.9856660000514,764.9856660000514,None,766.4826371000381,None,right,1.1253835000097752,766.4826371000381,None,767.6315149000147,None,left,0.24035550002008677,767.6315149000147,None,,,,,,,,,,,,,,,,,,,,,,,PPT11,001,2022-06-29_12h25.08.771,ABstudy,2022.1.4,59.95318855686176,
AB,Lag1_T1P_T2P,1,P,P,8,9,7,3,12,mail box,Did you see the mail box?,0.12,0.016,JPG\,paintbrush01,dice05a,watermelon01,broccoli01a,hammer01,leaf02a,match,mailbox01,stapler05,fan,lipstick02a,grape01,blankImage,blankImage,blankImage,blankImage,blankImage,mailbox01,,,,,,,,,,,,0,101,101,20,,,,,,,,,,,,,,,,,,,,,,,,,,,,,,,,,,,767.9016588999657,768.9161627000431,768.8828362999484,769.4743103999645,769.4743103999645,None,771.0141625000397,None,right,2.4257522999541834,771.0141625000397,None,773.4706151999999,None,right,0.27321629994548857,773.4706151999999,None,,,,,,,,,,,,,,,,,,,,,,,PPT11,001,2022-06-29_12h25.08.771,ABstudy,2022.1.4,59.95318855686176,
AB,Lag1_T1P_T2P,1,P,P,6,7,5,5,12,bat,Did you see the bat?,0.12,0.016,JPG\,comb02a,key01,medal02b,battery02b,lighter01,bat,stapler05,sandal,pig,cellphone,computerkeyboard02,calculator01,blankImage,blankImage,blankImage,blankImage,blankImage,bat,,,,,,,,,,,,0,102,102,35,,,,,,,,,,,,,,,,,,,,,,,,,,,,,,,,,,,773.7734919999493,774.7885244999779,774.7552411999786,775.3316761000315,775.3316761000315,None,776.8236332000233,None,left,0.8974236999638379,776.8236332000233,None,777.7420297999633,None,right,0.5141200000653043,777.7420297999633,None,,,,,,,,,,,,,,,,,,,,,,,PPT11,001,2022-06-29_12h25.08.771,ABstudy,2022.1.4,59.95318855686176,
AB,Lag5_T1P_T2P,5,P,P,7,12,6,5,17,flower,Did you see the flower?,0.12,0.016,JPG\,leaf02a,pear01,measuringcup01,cigarette,fan,lemon02,lily,tableknife02,ring01,pencil01,cellphone,stapler01,carrot01,binoculars01b,sock01a,book01b,blankImage,lily,,,,,,,,,,,,0,103,103,134,,,,,,,,,,,,,,,,,,,,,,,,,,,,,,,,,,,778.2820280999877,779.2933762000175,779.2767317000544,779.8619986999547,779.8619986999547,None,781.8248655999778,None,left,0.5504023000830784,781.8248655999778,None,782.3985851999605,None,left,0.24069540004711598,782.3985851999605,None,,,,,,,,,,,,,,,,,,,,,,,PPT11,001,2022-06-29_12h25.08.771,ABstudy,2022.1.4,59.95318855686176,
AB,Lag5_T1P_T2P,5,P,P,8,13,7,4,17,cruise ship,Did you see the cruise ship?,0.12,0.016,JPG\,measuringcup01,dice05a,greenolive,lipstick02a,feather03a,balloon01b,lighter01,cruiseship,carrot01,plate01b,microscope,brick,stapler05,screw02,speaker04,spoon01,blankImage,cruiseship,,,,,,,,,,,,0,104,104,105,,,,,,,,,,,,,,,,,,,,,,,,,,,,,,,,,,,782.6722556999885,783.6813252000138,783.6645094000269,784.2416158999549,784.2416158999549,None,786.1814223000547,None,left,0.5709592999191955,786.1814223000547,None,786.783911400009,None,left,0.17660660005640239,786.783911400009,None,,,,,,,,,,,,,,,,,,,,,,,PPT11,001,2022-06-29_12h25.08.771,ABstudy,2022.1.4,59.95318855686176,
AB,Lag1_T1P_T2P,1,P,P,7,8,6,4,12,Dog House,Did you see the Dog House?,0.12,0.016,JPG\,pineapple01a,leaf02a,grape01,toiletpaper01a,match,tennisball01b,doghouse,stapler03b,pig,measuringcup01,ring01,lemon02,blankImage,blankImage,blankImage,blankImage,blankImage,doghouse,,,,,,,,,,,,0,105,105,44,,,,,,,,,,,,,,,,,,,,,,,,,,,,,,,,,,,786.9870920999674,788.0018703000387,787.9685307999607,788.5604495999869,788.5604495999869,None,790.0195227999939,None,right,2.2357591000618413,790.0195227999939,None,792.2729266999522,None,right,0.31038829998578876,792.2729266999522,None,,,,,,,,,,,,,,,,,,,,,,,PPT11,001,2022-06-29_12h25.08.771,ABstudy,2022.1.4,59.95318855686176,
AB,Lag1_T1P_T2P,1,P,P,7,8,6,3,11,locker,Did you see the locker?,0.12,0.016,JPG\,toiletpaper01a,lipstick02a,potato02b,speaker04,globe,strawberry,locker,stapler04b,sock01a,candle08b,pen04b,blankImage,blankImage,blankImage,blankImage,blankImage,blankImage,locker,,,,,,,,,,,,0,106,106,19,,,,,,,,,,,,,,,,,,,,,,,,,,,,,,,,,,,792.6087592999684,793.6241505000507,793.5909614999546,794.1752051999792,794.1752051999792,None,795.498369500041,None,right,1.1011178999906406,795.498369500041,None,796.6283864000579,None,left,0.2029042000649497,796.6283864000579,None,,,,,,,,,,,,,,,,,,,,,,,PPT11,001,2022-06-29_12h25.08.771,ABstudy,2022.1.4,59.95318855686176,
AB,Lag5_T1A_T2P,5,A,P,8,13,7,5,18,fish,Did you see the fish?,0.12,0.016,JPG\,scissors01,grape01,mushroom01,toiletpaper01a,greenolive,pizza,cigarette,ashtray01,carrot01,pineapple01a,foosballtable,lipstick02a,stapler04b,tambourine02,potato02b,violin,blankImage,chimney,,,,,,,,,,,,0,107,107,283,,,,,,,,,,,,,,,,,,,,,,,,,,,,,,,,,,,796.8663073000498,797.8783775999909,797.8616873000283,798.4313948999625,798.4313948999625,None,800.3706206999486,None,right,0.6607591999927536,800.3706206999486,None,801.0487466000486,None,left,0.27145789994392544,801.0487466000486,None,,,,,,,,,,,,,,,,,,,,,,,PPT11,001,2022-06-29_12h25.08.771,ABstudy,2022.1.4,59.95318855686176,
AB,Lag1_T1P_T2P,1,P,P,7,8,6,5,13,dream catcher,Did you see the dream catcher?,0.12,0.016,JPG\,clock01a,cellphone,toaster01,toothbrush03b,cauliflower01,microscope,dreamcatcher,stapler05,scarf,clock04,sponge01,iron01b,watch02a,blankImage,blankImage,blankImage,blankImage,dreamcatcher,,,,,,,,,,,,0,108,108,81,,,,,,,,,,,,,,,,,,,,,,,,,,,,,,,,,,,801.353689200012,802.3663075000513,802.3496550000273,802.9394180000527,802.9394180000527,None,804.4958448000252,None,right,4.19969569996465,804.4958448000252,None,808.7224950999953,None,left,0.28606200008653104,808.7224950999953,None,,,,,,,,,,,,,,,,,,,,,,,PPT11,001,2022-06-29_12h25.08.771,ABstudy,2022.1.4,59.95318855686176,
AB,Lag5_T1P_T2A,5,P,A,8,13,7,5,18,telescope,Did you see the telescope?,0.12,0.016,JPG\,globe,broccoli01a,binoculars01b,iron01b,avocado01,dandelion,pineapple01a,handheldtelescope,fan,pizza,celery,blueberry01,sewingmachine01a,dice05a,watermelon01,candy,blankImage,handheldtelescope,,,,,,,,,,,,0,109,109,228,,,,,,,,,,,,,,,,,,,,,,,,,,,,,,,,,,,809.0419935999671,810.0571542000398,810.0237735999981,810.6230359999463,810.6230359999463,None,812.5681385999778,None,left,0.78342380002141,812.5681385999778,None,813.3767759000184,None,right,0.6238704000134021,813.3767759000184,None,,,,,,,,,,,,,,,,,,,,,,,PPT11,001,2022-06-29_12h25.08.771,ABstudy,2022.1.4,59.95318855686176,
AB,Lag5_T1P_T2P,5,P,P,7,12,6,5,17,Badminton Racket,Did you see the Badminton Racket?,0.12,0.016,JPG\,paintbrush01,dice05a,watermelon01,broccoli01a,hammer01,leaf02a,badmintonracket,tennisball01b,lemon02,fan,lipstick02a,stapler04b,envelope03a,sponge01,foosballtable,orange,blankImage,badmintonracket,,,,,,,,,,,,0,110,110,163,,,,,,,,,,,,,,,,,,,,,,,,,,,,,,,,,,,814.0350749000208,815.0457725999877,815.029138199985,815.6013033000054,815.6013033000054,None,817.5720458000433,None,left,0.7871326999738812,817.5720458000433,None,818.3817453000229,None,left,0.23391160008031875,818.3817453000229,None,,,,,,,,,,,,,,,,,,,,,,,PPT11,001,2022-06-29_12h25.08.771,ABstudy,2022.1.4,59.95318855686176,
AB,Lag5_T1P_T2P,5,P,P,5,10,4,5,15,baseball bat,Did you see the baseball bat?,0.12,0.016,JPG\,pizza,printer02,medal02b,spoon01,baseballbat,lighter01,belt02a,watermelon01,celery,stapler04b,screw02,comb02a,cauliflower01,lipstick02a,potato02b,blankImage,blankImage,baseballbat,,,,,,,,,,,,0,111,111,123,,,,,,,,,,,,,,,,,,,,,,,,,,,,,,,,,,,818.6882177999942,819.7000496999826,819.6833649999462,820.2758416000288,820.2758416000288,None,822.0624199999729,None,right,0.8740367999998853,822.0624199999729,None,822.9534016000107,None,right,0.5827716999920085,822.9534016000107,None,,,,,,,,,,,,,,,,,,,,,,,PPT11,001,2022-06-29_12h25.08.771,ABstudy,2022.1.4,59.95318855686176,
AB,Lag5_T1A_T2P,5,A,P,5,10,4,5,15,Eye patch,Did you see the Eye patch?,0.12,0.016,JPG\,scissors01,balloon01b,eraser,feather03a,banana01,candle01,measuringcup01,calculator01,thermometer02b,stapler03b,pear01,carrot01,globe,baseball01a,leaf02a,blankImage,blankImage,cross01,,,,,,,,,,,,0,112,112,258,,,,,,,,,,,,,,,,,,,,,,,,,,,,,,,,,,,823.5623370000394,824.5715819000034,824.5548607000383,825.1332748000277,825.1332748000277,None,827.0089807000477,None,right,1.1266231999034062,827.0089807000477,None,828.158513900009,None,left,0.17702890001237392,828.158513900009,None,,,,,,,,,,,,,,,,,,,,,,,PPT11,001,2022-06-29_12h25.08.771,ABstudy,2022.1.4,59.95318855686176,
AB,Lag1_T1P_T2P,1,P,P,5,6,4,5,11,Guitar case,Did you see the Guitar case?,0.12,0.016,JPG\,broccoli01a,scissors01,toothbrush03b,foosballtable,guitarcase,stapler05,hammer01,toiletpaper01a,cd,garlic01a,carrot01,blankImage,blankImage,blankImage,blankImage,blankImage,blankImage,guitarcase,,,,,,,,,,,,0,113,113,14,,,,,,,,,,,,,,,,,,,,,,,,,,,,,,,,,,,828.366017500055,829.3763145999983,829.3598685000325,829.9394876000006,829.9394876000006,None,831.3026465999428,None,left,0.962018100079149,831.3026465999428,None,832.2963038999587,None,right,0.2795292000519112,832.2963038999587,None,,,,,,,,,,,,,,,,,,,,,,,PPT11,001,2022-06-29_12h25.08.771,ABstudy,2022.1.4,59.95318855686176,
AB,Lag1_T1P_T2A,1,P,A,5,6,4,5,11,Sailboat,Did you see the Sailboat?,0.12,0.016,JPG\,chain01,speaker04,avocado01,watermelon01,sailboat,comb02a,lamp04a,fork03c,toaster01,slipper03b,scissors01,blankImage,blankImage,blankImage,blankImage,blankImage,blankImage,sailboat,,,,,,,,,,,,0,114,114,193,,,,,,,,,,,,,,,,,,,,,,,,,,,,,,,,,,,832.5990001000464,833.6142204999924,833.5808180000167,834.1447043999797,834.1447043999797,None,835.5414860999444,None,right,0.9219713000347838,835.5414860999444,None,836.4840314999456,None,right,0.29940849996637553,836.4840314999456,None,,,,,,,,,,,,,,,,,,,,,,,PPT11,001,2022-06-29_12h25.08.771,ABstudy,2022.1.4,59.95318855686176,
AB,Lag1_T1P_T2P,1,P,P,8,9,7,4,13,crab,Did you see the crab?,0.12,0.016,JPG\,candle01,fork03c,plate01b,violin,computerkeyboard02,candy,calculator01,crab01,stapler04b,sock01a,teabag,banana01,cd,blankImage,blankImage,blankImage,blankImage,crab01,,,,,,,,,,,,0,115,115,37,,,,,,,,,,,,,,,,,,,,,,,,,,,,,,,,,,,836.8041956999805,837.8182952000061,837.784814100014,838.360472499975,838.360472499975,None,840.001728400006,None,left,0.5018054000101984,840.001728400006,None,840.520920000039,None,left,0.23803739994764328,840.520920000039,None,,,,,,,,,,,,,,,,,,,,,,,PPT11,001,2022-06-29_12h25.08.771,ABstudy,2022.1.4,59.95318855686176,
AB,Lag1_T1P_T2A,1,P,A,7,8,6,5,13,Well,Did you see the Well?,0.12,0.016,JPG\,leaf02a,apple07,cd,pineapple01a,envelope03a,paintbrush01,well,acorn,rice,feather03a,lemon02,balloon01b,avocado01,blankImage,blankImage,blankImage,blankImage,well,,,,,,,,,,,,0,116,116,178,,,,,,,,,,,,,,,,,,,,,,,,,,,,,,,,,,,840.7899220000254,841.8054776999634,841.7720352000324,842.3471668000566,842.3471668000566,None,844.0310995000182,None,right,7.712486800039187,844.0310995000182,None,851.7796824000543,None,right,0.3076794999651611,851.7796824000543,None,,,,,,,,,,,,,,,,,,,,,,,PPT11,001,2022-06-29_12h25.08.771,ABstudy,2022.1.4,59.95318855686176,
AB,Lag1_T1P_T2P,1,P,P,6,7,5,4,11,bowling pin,Did you see the bowling pin?,0.12,0.016,JPG\,strawberry,leaf02a,clock04,candle01,avocado01,bowlingpin,stapler03a,brownsugar,ring01,lemon02,fork03c,blankImage,blankImage,blankImage,blankImage,blankImage,blankImage,bowlingpin,,,,,,,,,,,,0,117,117,8,,,,,,,,,,,,,,,,,,,,,,,,,,,,,,,,,,,852.127328600036,853.133516300004,853.1168369000079,853.6937629999593,853.6937629999593,None,855.0466058000457,None,left,1.2895001000724733,855.0466058000457,None,856.3534693999682,None,left,0.9975377999944612,856.3534693999682,None,,,,,,,,,,,,,,,,,,,,,,,PPT11,001,2022-06-29_12h25.08.771,ABstudy,2022.1.4,59.95318855686176,
AB,Lag1_T1A_T2P,1,A,P,5,6,4,3,9,barrel,Did you see the barrel?,0.12,0.016,JPG\,clock01a,cellphone,toaster01,toothbrush03b,cauliflower01,stapler01,comb02a,paintbrush01,scarf,blankImage,blankImage,blankImage,blankImage,blankImage,blankImage,blankImage,blankImage,sheep,,,,,,,,,,,,0,118,118,243,,,,,,,,,,,,,,,,,,,,,,,,,,,,,,,,,,,857.3715468000155,858.3768104000483,858.3553787999554,858.9228890000377,858.9228890000377,None,860.1339884999907,None,right,6.689578199991956,860.1339884999907,None,866.8469512000447,None,right,0.3364619000349194,866.8469512000447,None,,,,,,,,,,,,,,,,,,,,,,,PPT11,001,2022-06-29_12h25.08.771,ABstudy,2022.1.4,59.95318855686176,
AB,Lag1_T1A_T2P,1,A,P,7,8,6,3,11,lion,Did you see the lion?,0.12,0.016,JPG\,sock01a,spoon01,alligator,comb02a,printer02,medal02b,lamp04a,stapler01,greenolive,computerkeyboard02,cauliflower01,blankImage,blankImage,blankImage,blankImage,blankImage,blankImage,bullet,,,,,,,,,,,,0,119,119,229,,,,,,,,,,,,,,,,,,,,,,,,,,,,,,,,,,,867.2161655999953,868.2316106000217,868.1982207000256,868.7816029000096,868.7816029000096,None,870.1640372000402,None,right,0.6355066999094561,870.1640372000402,None,870.8175469000125,None,left,0.1900712000206113,870.8175469000125,None,,,,,,,,,,,,,,,,,,,,,,,PPT11,001,2022-06-29_12h25.08.771,ABstudy,2022.1.4,59.95318855686176,
AB,Lag1_T1P_T2A,1,P,A,7,8,6,4,12,Steering wheel,Did you see the Steering wheel?,0.12,0.016,JPG\,alligator,banana01,apple07,tomato01,button01,spoon01,steeringwheel,fork03c,canoftennisballs,potato02b,grape01,leaf02a,blankImage,blankImage,blankImage,blankImage,blankImage,steeringwheel,,,,,,,,,,,,0,120,120,198,,,,,,,,,,,,,,,,,,,,,,,,,,,,,,,,,,,871.0378301000455,872.0520885000005,872.0354449000442,872.5361034000525,872.5201192999957,None,874.1107185999863,None,left,0.9131123999832198,874.1107185999863,None,875.0696847999934,None,right,0.25798659992869943,875.0696847999934,None,,,,,,,,,,,,,,,,,,,,,,,PPT11,001,2022-06-29_12h25.08.771,ABstudy,2022.1.4,59.95318855686176,
AB,Lag5_T1P_T2P,5,P,P,8,13,7,5,18,skis,Did you see the skis?,0.12,0.016,JPG\,tennisball01b,paintbrush01,medal02b,apple07,speaker04,iron01b,avocado01,downhillski,belt02a,toiletpaper01a,watermelon01,candle01,stapler01,cymbal,ashtray01,screwdriver04b,blankImage,downhillski,,,,,,,,,,,,0,121,121,106,,,,,,,,,,,,,,,,,,,,,,,,,,,,,,,,,,,875.3639478000114,876.3730686999625,876.3563862999436,876.9485045999754,876.9485045999754,None,878.8542176999617,None,right,6.025006300071254,878.8542176999617,None,884.8991487999447,None,left,0.30003789998590946,884.8991487999447,None,,,,,,,,,,,,,,,,,,,,,,,PPT11,001,2022-06-29_12h25.08.771,ABstudy,2022.1.4,59.95318855686176,
AB,Lag1_T1P_T2P,1,P,P,6,7,5,3,10,fortune cookie,Did you see the fortune cookie?,0.12,0.016,JPG\,scissors01,grape01,mushroom01,toiletpaper01a,greenolive,fortunecookie,stapler03b,ashtray01,carrot01,pineapple01a,blankImage,blankImage,blankImage,blankImage,blankImage,blankImage,blankImage,fortunecookie,,,,,,,,,,,,0,122,122,42,,,,,,,,,,,,,,,,,,,,,,,,,,,,,,,,,,,885.2225148000289,886.2330821000505,886.2164362999611,886.7936557000503,886.7936557000503,None,888.1142691000132,None,right,9.956880799960345,888.1142691000132,None,898.0949643000495,None,left,0.29628580005373806,898.0949643000495,None,,,,,,,,,,,,,,,,,,,,,,,PPT11,001,2022-06-29_12h25.08.771,ABstudy,2022.1.4,59.95318855686176,
AB,Lag5_T1A_T2P,5,A,P,7,12,6,4,16,church,Did you see the church?,0.12,0.016,JPG\,printer02,leaf02a,cauliflower01,sock01a,brownsugar,paintbrush01,pig,orange,belt02a,shirt02,key01,stapler06,cigarette,scissors01,envelope03a,blueberry01,blankImage,ant,,,,,,,,,,,,0,123,123,279,,,,,,,,,,,,,,,,,,,,,,,,,,,,,,,,,,,898.416207900038,899.429560599965,899.4128013999434,900.0008596000262,900.0008596000262,None,901.944372399943,None,right,1.015388899948448,901.944372399943,None,902.9828989000525,None,left,0.19988790003117174,902.9828989000525,None,,,,,,,,,,,,,,,,,,,,,,,PPT11,001,2022-06-29_12h25.08.771,ABstudy,2022.1.4,59.95318855686176,
AB,Lag1_T1P_T2A,1,P,A,5,6,4,4,10,bird,Did you see the bird?,0.12,0.016,JPG\,toaster01,scarf,toiletpaper01a,calculator01,swallow,sewingmachine01a,fan,teabag,strawberry,balloon01b,blankImage,blankImage,blankImage,blankImage,blankImage,blankImage,blankImage,swallow,,,,,,,,,,,,0,124,124,195,,,,,,,,,,,,,,,,,,,,,,,,,,,,,,,,,,,903.2021239999449,904.2174572000513,904.1842697999673,904.7672438999871,904.7672438999871,None,906.0617496999912,None,left,0.8817864999873564,906.0617496999912,None,906.9701419000048,None,right,0.2764700000407174,906.9701419000048,None,,,,,,,,,,,,,,,,,,,,,,,PPT11,001,2022-06-29_12h25.08.771,ABstudy,2022.1.4,59.95318855686176,
AB,Lag5_T1P_T2P,5,P,P,5,10,4,5,15,Bee,Did you see the Bee?,0.12,0.016,JPG\,fork03c,dandelion,dice05a,belt02a,honeybee,watch02a,key01,globe,eraser,stapler03a,greenolive,shirt02,candle08b,cigarette,garlic01a,blankImage,blankImage,honeybee,,,,,,,,,,,,0,125,125,149,,,,,,,,,,,,,,,,,,,,,,,,,,,,,,,,,,,907.2727020999882,908.2883821000578,908.2547167999437,908.8321216000477,908.8321216000477,None,910.6928652999923,None,left,0.6585466000251472,910.6928652999923,None,911.375520600006,None,left,0.19978909997735173,911.375520600006,None,,,,,,,,,,,,,,,,,,,,,,,PPT11,001,2022-06-29_12h25.08.771,ABstudy,2022.1.4,59.95318855686176,
AB,Lag1_T1A_T2P,1,A,P,5,6,4,4,10,Bull,Did you see the Bull?,0.12,0.016,JPG\,celery,pencil01,fan,foosballtable,iron01b,stapler01,potato02b,fork03c,button01,pineapple01a,blankImage,blankImage,blankImage,blankImage,blankImage,blankImage,blankImage,spiderweb,,,,,,,,,,,,0,126,126,244,,,,,,,,,,,,,,,,,,,,,,,,,,,,,,,,,,,911.5975112000015,912.609337599948,912.5925839999691,913.1691367999883,913.1691367999883,None,914.408068699995,None,right,1.0717472999822348,914.408068699995,None,915.5122671000427,None,left,0.22259060002397746,915.5122671000427,None,,,,,,,,,,,,,,,,,,,,,,,PPT11,001,2022-06-29_12h25.08.771,ABstudy,2022.1.4,59.95318855686176,
AB,Lag1_T1P_T2P,1,P,P,8,9,7,5,14,Waterfall,Did you see the Waterfall?,0.12,0.016,JPG\,pizza,watch02a,greenolive,cucumber,match,violin,scissors01,waterfall,stapler03a,cherry01,ring01,cigarette,microscope,cellphone,blankImage,blankImage,blankImage,waterfall,,,,,,,,,,,,0,127,127,52,,,,,,,,,,,,,,,,,,,,,,,,,,,,,,,,,,,915.7677335999906,916.7802744000219,916.7637393999612,917.3556032000342,917.3556032000342,None,919.0898149999557,None,left,0.6214195000939071,919.0898149999557,None,919.7334334000479,None,left,0.24270940001588315,919.7334334000479,None,,,,,,,,,,,,,,,,,,,,,,,PPT11,001,2022-06-29_12h25.08.771,ABstudy,2022.1.4,59.95318855686176,
AB,Lag1_T1P_T2A,1,P,A,7,8,6,3,11,Armadillo,Did you see the Armadillo?,0.12,0.016,JPG\,clock01a,cellphone,toaster01,toothbrush03b,cauliflower01,microscope,armadillo,paintbrush01,scarf,clock04,sponge01,blankImage,blankImage,blankImage,blankImage,blankImage,blankImage,armadillo,,,,,,,,,,,,0,128,128,180,,,,,,,,,,,,,,,,,,,,,,,,,,,,,,,,,,,920.0058172000572,921.0176860999782,921.0010036999593,921.5940670999698,921.5940670999698,None,922.9240489000222,None,left,0.7394652999937534,922.9240489000222,None,923.686872899998,None,right,0.24957059998996556,923.686872899998,None,,,,,,,,,,,,,,,,,,,,,,,PPT11,001,2022-06-29_12h25.08.771,ABstudy,2022.1.4,59.95318855686176,
AB,Lag5_T1P_T2P,5,P,P,6,11,5,5,16,sword,Did you see the sword?,0.12,0.016,JPG\,chain01,speaker04,avocado01,watermelon01,scarf,sword01,lamp04a,fork03c,toaster01,slipper03b,stapler03a,cucumber,teabag,ashtray01,computerkeyboard02,book01b,blankImage,sword01,,,,,,,,,,,,0,129,129,143,,,,,,,,,,,,,,,,,,,,,,,,,,,,,,,,,,,923.9559996000025,924.9714607000351,924.9380720000481,925.5110751000466,925.5110751000466,None,927.4504714000504,None,left,0.5893772999988869,927.4504714000504,None,928.072701600031,None,left,0.23804030008614063,928.072701600031,None,,,,,,,,,,,,,,,,,,,,,,,PPT11,001,2022-06-29_12h25.08.771,ABstudy,2022.1.4,59.95318855686176,
AB,Lag5_T1P_T2P,5,P,P,6,11,5,3,14,wrench,Did you see the wrench?,0.12,0.016,JPG\,cherry01,cymbal,envelope03a,foosballtable,shirt02,stubbywrench01a,sewingmachine01a,candle08b,battery02b,apple07,stapler03b,screwdriver04b,strawberry,sunglasses04,blankImage,blankImage,blankImage,stubbywrench01a,,,,,,,,,,,,0,130,130,122,,,,,,,,,,,,,,,,,,,,,,,,,,,,,,,,,,,928.3437633999856,929.3592717000283,929.3258869999554,929.9058297999436,929.9058297999436,None,931.6281967000104,None,left,6.835243799956515,931.6281967000104,None,938.4854057000484,None,left,0.3699223999865353,938.4854057000484,None,,,,,,,,,,,,,,,,,,,,,,,PPT11,001,2022-06-29_12h25.08.771,ABstudy,2022.1.4,59.95318855686176,
AB,Lag5_T1A_T2P,5,A,P,7,12,6,4,16,scooter,Did you see the scooter?,0.12,0.016,JPG\,cigarette,pig,banana01,strawberry,clock01a,plate01b,spoon01,blueberry01,battery02b,pineapple01a,chain01,stapler05,candy,pen04b,teabag,birthdaycandle,blankImage,1nose,,,,,,,,,,,,0,131,131,268,,,,,,,,,,,,,,,,,,,,,,,,,,,,,,,,,,,938.8890810000012,939.9030275000259,939.8865903000114,940.4733713000314,940.4733713000314,None,942.3229225999676,None,right,0.7878085999982432,942.3229225999676,None,943.1394986000378,None,left,0.1950945999706164,943.1394986000378,None,,,,,,,,,,,,,,,,,,,,,,,PPT11,001,2022-06-29_12h25.08.771,ABstudy,2022.1.4,59.95318855686176,
AB,Lag1_T1P_T2P,1,P,P,5,6,4,5,11,candy cane,Did you see the candy cane?,0.12,0.016,JPG\,shirt02,match,screw02,foosballtable,candycane01a,stapler04b,sewingmachine01a,watch02a,button01,comb02a,dice05a,blankImage,blankImage,blankImage,blankImage,blankImage,blankImage,candycane01a,,,,,,,,,,,,0,132,132,9,,,,,,,,,,,,,,,,,,,,,,,,,,,,,,,,,,,943.4160301999655,944.4245290999534,944.4077176999999,945.0477678000461,945.0477678000461,None,946.3124381999951,None,left,0.9026566999964416,946.3124381999951,None,947.2435455999803,None,right,0.21951259998604655,947.2435455999803,None,,,,,,,,,,,,,,,,,,,,,,,PPT11,001,2022-06-29_12h25.08.771,ABstudy,2022.1.4,59.95318855686176,
AB,Lag1_T1P_T2P,1,P,P,6,7,5,3,10,jelly beans,Did you see the jelly beans?,0.12,0.016,JPG\,lipstick02a,cucumber,candle08b,printer02,grape01,jellybean,stapler01,lighter01,belt02a,balloon01b,blankImage,blankImage,blankImage,blankImage,blankImage,blankImage,blankImage,jellybean,,,,,,,,,,,,0,133,133,15,,,,,,,,,,,,,,,,,,,,,,,,,,,,,,,,,,,947.4997042999603,948.5123647999717,948.4971307000378,949.1708212000085,949.0984944000375,None,950.3107364999596,None,left,0.8246545000001788,950.3107364999596,None,951.1641202999745,None,right,0.25208509992808104,951.1641202999745,None,,,,,,,,,,,,,,,,,,,,,,,PPT11,001,2022-06-29_12h25.08.771,ABstudy,2022.1.4,59.95318855686176,
AB,Lag5_T1A_T2P,5,A,P,6,11,5,3,14,keys,Did you see the keys?,0.12,0.016,JPG\,pencil01,microscope,banana01,computerkeyboard02,celery,cellphone,scissors01,sock01a,book01b,onion,stapler03a,binoculars01b,baseball01a,iron01b,blankImage,blankImage,blankImage,treadmill,,,,,,,,,,,,0,134,134,275,,,,,,,,,,,,,,,,,,,,,,,,,,,,,,,,,,,951.4500048999907,952.4653929000488,952.4320415999973,953.0106453000335,953.0106453000335,None,954.7232748999959,None,right,0.699875200050883,954.7232748999959,None,955.452247899957,None,left,0.29040200007148087,955.452247899957,None,,,,,,,,,,,,,,,,,,,,,,,PPT11,001,2022-06-29_12h25.08.771,ABstudy,2022.1.4,59.95318855686176,
AB,Lag5_T1A_T2A,5,A,A,5,10,4,5,15,window,Did you see the window?,0.12,0.016,JPG\,leaf02a,apple07,cd,pineapple01a,envelope03a,paintbrush01,pig,canoftennisballs,rice,feather03a,lemon02,balloon01b,avocado01,calculator01,watermelon01,blankImage,blankImage,saxophone,,,,,,,,,,,,0,135,135,301,,,,,,,,,,,,,,,,,,,,,,,,,,,,,,,,,,,955.7727054000134,956.7871896000579,956.7715868999949,957.4474927999545,957.3611473999918,None,959.2730956999585,None,right,1.0935437000589445,959.2730956999585,None,960.3899958999828,None,right,0.28941220010165125,960.3899958999828,None,,,,,,,,,,,,,,,,,,,,,,,PPT11,001,2022-06-29_12h25.08.771,ABstudy,2022.1.4,59.95318855686176,
AB,Lag1_T1P_T2A,1,P,A,8,9,7,4,13,boat,Did you see the boat?,0.12,0.016,JPG\,fork03c,dandelion,dice05a,belt02a,onion,watch02a,key01,boat,eraser,medal02b,greenolive,shirt02,candle08b,blankImage,blankImage,blankImage,blankImage,boat,,,,,,,,,,,,0,136,136,199,,,,,,,,,,,,,,,,,,,,,,,,,,,,,,,,,,,960.709279499948,961.7246573000448,961.6913066999987,962.2609127999749,962.2609127999749,None,963.8844419999514,None,left,0.6905056000687182,963.8844419999514,None,964.594839700032,None,right,0.27607060002628714,964.594839700032,None,,,,,,,,,,,,,,,,,,,,,,,PPT11,001,2022-06-29_12h25.08.771,ABstudy,2022.1.4,59.95318855686176,
AB,Lag1_T1P_T2A,1,P,A,5,6,4,5,11,Toaster oven,Did you see the Toaster oven?,0.12,0.016,JPG\,fork03c,toothbrush03b,cellphone,fan,toasteroven,clock01a,ring01,eraser,sunglasses04,thermometer02b,violin,blankImage,blankImage,blankImage,blankImage,blankImage,blankImage,toasteroven,,,,,,,,,,,,0,137,137,200,,,,,,,,,,,,,,,,,,,,,,,,,,,,,,,,,,,964.9017495999578,965.9123208000092,965.8956460000481,966.4714411000023,966.4714411000023,None,967.858341800049,None,left,0.7405330999754369,967.858341800049,None,968.6144934999757,None,right,0.21783560002222657,968.6144934999757,None,,,,,,,,,,,,,,,,,,,,,,,PPT11,001,2022-06-29_12h25.08.771,ABstudy,2022.1.4,59.95318855686176,
