TrialType,CondType,Lag,T1_PA,T2_PA,T1Loc,T2Loc,PreDistractor,PostDistractor,TotalImg,cueWord,T1cue,StimLength,isi,PicFolder,Img1,Img2,Img3,Img4,Img5,Img6,Img7,Img8,Img9,Img10,Img11,Img12,Img13,Img14,Img15,Img16,Img17,T1_Identity,ImageType,T1PA,T2PA,Picture,Image,FullPathName,FilePath,Practice_Trials.thisRepN,Practice_Trials.thisTrialN,Practice_Trials.thisN,Practice_Trials.thisIndex,trials.thisRepN,trials.thisTrialN,trials.thisN,trials.thisIndex,trials_2.thisRepN,trials_2.thisTrialN,trials_2.thisN,trials_2.thisIndex,Practice_Ins.started,Practice_Ins.stopped,End_Prac_Ins.keys,End_Prac_Ins.rt,End_Prac_Ins.started,End_Prac_Ins.stopped,text_2.started,text_2.stopped,Fixation_Cross_2.started,Fixation_Cross_2.stopped,Rapid_Image_Present_2.started,Rapid_Image_Present_2.stopped,key_resp.keys,key_resp.rt,key_resp.started,key_resp.stopped,T1Response_2.started,T1Response_2.stopped,T2Response_2.started,T2Response_2.stopped,key_resp_4.keys,key_resp_4.rt,key_resp_4.started,key_resp_4.stopped,text.started,text.stopped,End_Instructions.keys,End_Instructions.rt,End_Instructions.started,End_Instructions.stopped,text_5.started,text_5.stopped,FC.started,FC.stopped,Rapid_Image_Present.started,Rapid_Image_Present.stopped,T1Response.started,T1Response.stopped,key_resp_2.keys,key_resp_2.rt,key_resp_2.started,key_resp_2.stopped,T2Response.started,T2Response.stopped,key_resp_3.keys,key_resp_3.rt,key_resp_3.started,key_resp_3.stopped,text_6.started,text_6.stopped,Fin_ins.keys,Fin_ins.rt,Fin_ins.started,Fin_ins.stopped,MemTest.started,MemTest.stopped,MemResponse.keys,MemResponse.rt,MemResponse.started,MemResponse.stopped,Display.started,Display.stopped,text_7.started,text_7.stopped,endOfExperiment.started,endOfExperiment.stopped,key_resp_5.keys,key_resp_5.rt,key_resp_5.started,key_resp_5.stopped,participant,session,date,expName,psychopyVersion,frameRate,
,,,,,,,,,,,,,,,,,,,,,,,,,,,,,,,,,,,,,,,,,,,,,,,,,,,,29.34616920001281,None,space,30.810107799989055,29.34616920001281,None,,,,,,,,,,,,,,,,,,,,,,,,,,,,,,,,,,,,,,,,,,,,,,,,,,,,,,,,,,,,,,,,,PPT20,001,2022-06-30_16h08.59.712,ABstudy,2022.1.4,59.95347610075481,
AB_Prac,Lag5_T1A_T2P,5,A,P,6,11,5,3,14,dog,Did you see the dog?,0.5,0.016,JPG\,bucket01a,doorlock,cookiecutter,fireextinguisher01,gluestick,highlighter02b,sportbag,spraybottle01,suitcase,thread02,stapler05,walnut01c,icecubetray01a,vikingmask01b,blankImage,blankImage,blankImage,None,,,,,,,,0,0,0,9,,,,,,,,,,,,,,,60.230304600001546,61.24467560001358,61.22854150000785,61.87301290000323,61.87301290000323,None,right,2.816516299993964,68.9074796000059,None,68.9074796000059,None,71.74311820000003,None,left,0.9172615999850677,71.74311820000003,None,,,,,,,,,,,,,,,,,,,,,,,,,,,,,,,,,,,,,,,,,,,,,,,PPT20,001,2022-06-30_16h08.59.712,ABstudy,2022.1.4,59.95347610075481,
AB_Prac,Lag1_T1P_T2A,1,P,A,8,9,7,5,14,flower,Did you see the flower?,0.5,0.016,JPG\,razor01,axe01,binder03b,bowl01,kettle01,lettuce,lime,plasticflower01b,mitten04,pencilcase01,plunger02,strawbasket01,toothpick02,wallet02a,blankImage,blankImage,blankImage,plasticflower01b,,,,,,,,0,1,1,5,,,,,,,,,,,,,,,72.69130040000891,73.70650090000709,73.67360960000951,74.23062590000336,74.23062590000336,None,left,1.1141387999959989,81.2981174000015,None,81.2981174000015,None,82.4329613000009,None,right,0.7871999999915715,82.4329613000009,None,,,,,,,,,,,,,,,,,,,,,,,,,,,,,,,,,,,,,,,,,,,,,,,PPT20,001,2022-06-30_16h08.59.712,ABstudy,2022.1.4,59.95347610075481,
AB_Prac,Lag1_T1P_T2P,1,P,P,6,7,5,5,12,triangle,Did you see the triangle?,0.5,0.016,JPG\,ginger,mousetrap,plum01,slipper01b,dropper01,triangle,stapler04b,pants,raspberry01,rope03,scale01a,vase01,blankImage,blankImage,blankImage,blankImage,blankImage,triangle,,,,,,,,0,2,2,1,,,,,,,,,,,,,,,83.26495370001066,84.26712500001304,84.25049960000615,84.84381580000627,84.84381580000627,None,left,0.6851717999961693,90.87922950000211,None,90.87922950000211,None,91.59158020000905,None,right,0.82024439999077,91.59158020000905,None,,,,,,,,,,,,,,,,,,,,,,,,,,,,,,,,,,,,,,,,,,,,,,,PPT20,001,2022-06-30_16h08.59.712,ABstudy,2022.1.4,59.95347610075481,
AB_Prac,Lag5_T1P_T2A,5,P,A,6,11,5,5,16,Wheat,Did you see the Wheat?,0.5,0.016,JPG\,bottleopener01,dentalfloss03b,cooler01,icecreamcone01a,paperclip01b,wheat,pencilsharpener02a,plasticbasket01a,toycar04,apricot,hairclip02,rock01a,honeydewmelon,antenna,blackberry,cardboardbox,blankImage,wheat,,,,,,,,0,3,3,7,,,,,,,,,,,,,,,92.44609440000204,93.4600044000108,93.44327950000297,94.02211689999967,94.02211689999967,None,left,0.7276278999925125,102.10881520000112,None,102.10881520000112,None,102.86917700000049,None,right,0.44670589998713695,102.86917700000049,None,,,,,,,,,,,,,,,,,,,,,,,,,,,,,,,,,,,,,,,,,,,,,,,PPT20,001,2022-06-30_16h08.59.712,ABstudy,2022.1.4,59.95347610075481,
AB_Prac,Lag5_T1P_T2P,5,P,P,7,12,6,3,15,vacuum,Did you see the vacuum?,0.5,0.016,JPG\,fork07b,lightbulb01,manshoe,saw02b,shoelace,soap03a,vacuumcleaner01,floortile01,necklace,doll,cabbage,stapler03a,hanger02a,laptop01a,nailpolish03b,blankImage,blankImage,vacuumcleaner01,,,,,,,,0,4,4,2,,,,,,,,,,,,,,,103.44249580000178,104.4542594000086,104.43756220000796,105.02123570001277,105.02123570001277,None,left,1.2448357999965083,112.44722880001063,None,112.44722880001063,None,113.71335960000579,None,left,1.1949365999898873,113.71335960000579,None,,,,,,,,,,,,,,,,,,,,,,,,,,,,,,,,,,,,,,,,,,,,,,,PPT20,001,2022-06-30_16h08.59.712,ABstudy,2022.1.4,59.95347610075481,
AB_Prac,Lag1_T1P_T2A,1,P,A,5,6,4,5,11,Webcam,Did you see the Webcam?,0.5,0.016,JPG\,pictureframe04,binder03b,straw,adjustablewrench01b,webcam,cane,hairdryer02a,icepack,kitchenscale01a,lifejacket,piggybank,blankImage,blankImage,blankImage,blankImage,blankImage,blankImage,webcam,,,,,,,,0,5,5,6,,,,,,,,,,,,,,,114.93628780001018,115.94916930000181,115.93255310000677,116.52407340001082,116.52407340001082,None,left,0.7839761999930488,122.03569730000163,None,122.03569730000163,None,122.83974650000164,None,right,0.452685999989626,122.83974650000164,None,,,,,,,,,,,,,,,,,,,,,,,,,,,,,,,,,,,,,,,,,,,,,,,PPT20,001,2022-06-30_16h08.59.712,ABstudy,2022.1.4,59.95347610075481,
AB_Prac,Lag5_T1P_T2P,5,P,P,5,10,4,5,15,washing machine,Did you see the washing machine?,0.5,0.016,JPG\,waterbottle03,wheel01,flashlight02b,zucchini01,washingmachine,headphones02b,nutcracker01,paintroller01,paperclip03,stapler06,ribbon04,electricrazor,bottleofredwine01,pitabread,pot02a,blankImage,blankImage,washingmachine,,,,,,,,0,6,6,4,,,,,,,,,,,,,,,123.32854650000809,124.34080540000286,124.32402900001034,124.91258950000338,124.91258950000338,None,left,0.5720242999814218,132.41637060001085,None,132.41637060001085,None,133.01794950000476,None,left,0.3620251999964239,133.01794950000476,None,,,,,,,,,,,,,,,,,,,,,,,,,,,,,,,,,,,,,,,,,,,,,,,PPT20,001,2022-06-30_16h08.59.712,ABstudy,2022.1.4,59.95347610075481,
AB_Prac,Lag1_T1A_T2A,1,A,A,8,9,7,3,12,Moose,Did you see the Moose?,0.5,0.016,JPG\,clothespin03b,corkscrew03a,drillbit03a,fusilli03a,needlenosepliers01,perfume01a,pistachio,scrubbingbrush05b,spatula03,toothpastetube,hinge,toydinosaur,blankImage,blankImage,blankImage,blankImage,blankImage,None,,,,,,,,0,7,7,10,,,,,,,,,,,,,,,133.4133773000067,134.41736960000708,134.40080200000375,134.97678210001322,134.97678210001322,None,right,0.8610773999826051,141.03961780000827,None,141.03961780000827,None,141.92519620001258,None,right,0.446693799996865,141.92519620001258,None,,,,,,,,,,,,,,,,,,,,,,,,,,,,,,,,,,,,,,,,,,,,,,,PPT20,001,2022-06-30_16h08.59.712,ABstudy,2022.1.4,59.95347610075481,
AB_Prac,Lag1_T1P_T2P,1,P,P,8,9,7,5,14,Tennis racket,Did you see the Tennis racket?,0.5,0.016,JPG\,coconut,computermouse06,croissant01,deodorant02a,pillow01a,peanut01,boot02b,tennisracket,stapler03b,crayon,eggplant,marker01a,plant01,radish01,blankImage,blankImage,blankImage,tennisracket,,,,,,,,0,8,8,0,,,,,,,,,,,,,,,142.3963022000098,143.40987420000602,143.39308570000867,143.99033660000714,143.99033660000714,None,left,0.5671930999815231,150.9723098000104,None,150.9723098000104,None,151.56768080001348,None,left,0.3484547999978531,151.56768080001348,None,,,,,,,,,,,,,,,,,,,,,,,,,,,,,,,,,,,,,,,,,,,,,,,PPT20,001,2022-06-30_16h08.59.712,ABstudy,2022.1.4,59.95347610075481,
AB_Prac,Lag5_T1P_T2P,5,P,P,5,10,4,5,15,Vulture,Did you see the Vulture?,0.5,0.016,JPG\,shorts01,toast,ramekin01,bib,vulture,cracker02,date,glasses01a,hat03b,stapler01,measuringtape01,nail,pill,drum01,starfish01,blankImage,blankImage,vulture,,,,,,,,0,9,9,3,,,,,,,,,,,,,,,151.94175660000474,152.95259430000442,152.9358426000108,153.5193985000078,153.5193985000078,None,left,0.5698072999803117,161.08237000000372,None,161.08237000000372,None,161.67809359999956,None,left,0.3418060999974841,161.67809359999956,None,,,,,,,,,,,,,,,,,,,,,,,,,,,,,,,,,,,,,,,,,,,,,,,PPT20,001,2022-06-30_16h08.59.712,ABstudy,2022.1.4,59.95347610075481,
AB_Prac,Lag5_T1A_T2A,5,A,A,6,11,5,5,16,castle,Did you see the castle?,0.5,0.016,JPG\,tape02a,englishmuffin,flask,ladle02a,monitor,peach01,keychain,squeegee01b,telephone01b,whisk,walkman,syringe02,baguette01,coaster,box01a,coffeepot03a,blankImage,None,,,,,,,,0,10,10,11,,,,,,,,,,,,,,,162.04459270001098,163.04541920000338,163.02935050000087,163.62025960000756,163.62025960000756,None,right,0.9825994999991963,171.6693368000124,None,171.6693368000124,None,172.6719632000022,None,right,0.4117792999895755,172.6719632000022,None,,,,,,,,,,,,,,,,,,,,,,,,,,,,,,,,,,,,,,,,,,,,,,,PPT20,001,2022-06-30_16h08.59.712,ABstudy,2022.1.4,59.95347610075481,
AB_Prac,Lag5_T1P_T2A,5,P,A,6,11,5,5,16,bread,Did you see the bread?,0.5,0.016,JPG\,cleaver01,clipboard,dustpan,hikingshoe01,notebook03a,baguette01,playingcard,pliers02b,styrofoamcup,rollingpin01a,swimgoggles,wineglass01,fryingpan02a,safetypin,syringe01,thimble,blankImage,baguette01,,,,,,,,0,11,11,8,,,,,,,,,,,,,,,173.19875800001319,174.20790080000006,174.1759904000064,174.8354754000029,174.76457520000986,None,left,0.6679712999903131,182.6961188000132,None,182.6961188000132,None,183.3829945000034,None,right,0.3884397999790963,183.3829945000034,None,,,,,,,,,,,,,,,,,,,,,,,,,,,,,,,,,,,,,,,,,,,,,,,PPT20,001,2022-06-30_16h08.59.712,ABstudy,2022.1.4,59.95347610075481,
,,,,,,,,,,,,,,,,,,,,,,,,,,,,,,,,,,,,,,,,,,,,,,,,,,,,,,,,,,,,,,,,,,,,,,,,,,,,183.80011310000555,None,space,20.660072999991826,183.80011310000555,None,,,,,,,,,,,,,,,,,,,,,,,,,,,,,,,,,,,,,,,,,PPT20,001,2022-06-30_16h08.59.712,ABstudy,2022.1.4,59.95347610075481,
AB,Lag1_T1P_T2A,1,P,A,7,8,6,3,11,Seagull,Did you see the Seagull?,0.12,0.016,JPG\,toiletpaper01a,mushroom01,medal02b,sandal,rice,cd,seagull,pizza,candle08b,garlic01a,toaster01,blankImage,blankImage,blankImage,blankImage,blankImage,blankImage,seagull,,,,,,,,,,,,0,0,0,176,,,,,,,,,,,,,,,,,,,,,,,,,,,,,,,,,,,205.07600900001125,206.08881890001066,206.07227720000083,206.70237130000896,206.70237130000896,None,208.00926830001117,None,left,0.7459587999910582,208.00926830001117,None,208.77519500000926,None,right,0.5097688999958336,208.77519500000926,None,,,,,,,,,,,,,,,,,,,,,,,PPT20,001,2022-06-30_16h08.59.712,ABstudy,2022.1.4,59.95347610075481,
AB,Lag5_T1P_T2P,5,P,P,7,12,6,5,17,truck,Did you see the truck?,0.12,0.016,JPG\,binoculars01b,speaker04,sandal,envelope03a,plate01b,comb02a,boxtruck,chain01,measuringcup01,key01,medal02b,stapler05,tennisball01b,pizza,cigarette,sunglasses04,blankImage,boxtruck,,,,,,,,,,,,0,1,1,166,,,,,,,,,,,,,,,,,,,,,,,,,,,,,,,,,,,209.31224060000386,210.32599990000017,210.309253600004,211.0153055000119,210.9273788999999,None,212.83418820000952,None,left,0.5548386000009486,212.83418820000952,None,213.41256200001226,None,left,0.3433187999908114,213.41256200001226,None,,,,,,,,,,,,,,,,,,,,,,,PPT20,001,2022-06-30_16h08.59.712,ABstudy,2022.1.4,59.95347610075481,
AB,Lag1_T1P_T2P,1,P,P,6,7,5,5,12,exit sign,Did you see the exit sign?,0.12,0.016,JPG\,printer02,envelope03a,potato02b,calculator01,tableknife02,exitsign,stapler01,pig,broom01,greenolive,candle08b,battery02b,blankImage,blankImage,blankImage,blankImage,blankImage,exitsign,,,,,,,,,,,,0,2,2,41,,,,,,,,,,,,,,,,,,,,,,,,,,,,,,,,,,,213.78608980000718,214.79731130000437,214.78062870001304,215.40529010001046,215.40529010001046,None,216.83356410000124,None,left,0.8099320999899646,216.83356410000124,None,217.66727340000216,None,right,0.3121682999917539,217.66727340000216,None,,,,,,,,,,,,,,,,,,,,,,,PPT20,001,2022-06-30_16h08.59.712,ABstudy,2022.1.4,59.95347610075481,
AB,Lag5_T1P_T2P,5,P,P,6,11,5,4,15,shovel,Did you see the shovel?,0.12,0.016,JPG\,carrot01,watch02a,clock04,microscope,toiletpaper01a,shovel01,alligator,ring01,brick,watermelon01,stapler03b,pencil01,measuringcup01,balloon01b,computerkeyboard02,blankImage,blankImage,shovel01,,,,,,,,,,,,0,3,3,139,,,,,,,,,,,,,,,,,,,,,,,,,,,,,,,,,,,218.00517100001161,219.01830020001216,219.0016930000129,219.5945967000007,219.5945967000007,None,221.38070740000694,None,right,0.9841625999979442,221.38070740000694,None,222.38816150001367,None,left,0.5198353999876417,222.38816150001367,None,,,,,,,,,,,,,,,,,,,,,,,PPT20,001,2022-06-30_16h08.59.712,ABstudy,2022.1.4,59.95347610075481,
AB,Lag5_T1A_T2A,5,A,A,6,11,5,5,16,shrimp,Did you see the shrimp?,0.12,0.016,JPG\,speaker04,sewingmachine01a,eraser,violin,globe,belt02a,sunglasses04,cymbal,cd,greenolive,alligator,pear01,watch02a,screwdriver04b,banana01,cigarette,blankImage,rollerblade,,,,,,,,,,,,0,4,4,300,,,,,,,,,,,,,,,,,,,,,,,,,,,,,,,,,,,222.9430849000055,223.95640020001156,223.9397972000006,224.5260047000047,224.5260047000047,None,226.46795770000608,None,right,0.8480438999977196,226.46795770000608,None,227.34302949999983,None,right,0.37283409999508876,227.34302949999983,None,,,,,,,,,,,,,,,,,,,,,,,PPT20,001,2022-06-30_16h08.59.712,ABstudy,2022.1.4,59.95347610075481,
AB,Lag5_T1P_T2P,5,P,P,8,13,7,4,17,cruise ship,Did you see the cruise ship?,0.12,0.016,JPG\,measuringcup01,dice05a,greenolive,lipstick02a,feather03a,balloon01b,lighter01,cruiseship,carrot01,plate01b,microscope,brick,stapler05,screw02,speaker04,spoon01,blankImage,cruiseship,,,,,,,,,,,,0,5,5,105,,,,,,,,,,,,,,,,,,,,,,,,,,,,,,,,,,,227.74832009999955,228.761153200001,228.74451030000637,229.32912490000308,229.32912490000308,None,231.31772760000604,None,left,0.5736098999914248,231.31772760000604,None,231.91426910000155,None,left,0.48123899998608977,231.91426910000155,None,,,,,,,,,,,,,,,,,,,,,,,PPT20,001,2022-06-30_16h08.59.712,ABstudy,2022.1.4,59.95347610075481,
AB,Lag1_T1P_T2P,1,P,P,7,8,6,5,13,tiger,Did you see the tiger?,0.12,0.016,JPG\,globe,broccoli01a,binoculars01b,iron01b,avocado01,dandelion,tiger02,stapler03b,fan,pizza,celery,blueberry01,sewingmachine01a,blankImage,blankImage,blankImage,blankImage,tiger02,,,,,,,,,,,,0,6,6,50,,,,,,,,,,,,,,,,,,,,,,,,,,,,,,,,,,,232.41980040000635,233.432822200004,233.41606339999998,234.0196285000129,234.0196285000129,None,235.59751610000967,None,left,0.5818625999963842,235.59751610000967,None,236.2023341000022,None,left,0.31272389998775907,236.2023341000022,None,,,,,,,,,,,,,,,,,,,,,,,PPT20,001,2022-06-30_16h08.59.712,ABstudy,2022.1.4,59.95347610075481,
AB,Lag1_T1A_T2P,1,A,P,6,7,5,3,10,curtain,Did you see the curtain?,0.12,0.016,JPG\,carrot01,greenolive,fork03c,chain01,ashtray01,watermelon01,stapler06,printer02,comb02a,toaster01,blankImage,blankImage,blankImage,blankImage,blankImage,blankImage,blankImage,birdhouse,,,,,,,,,,,,0,7,7,249,,,,,,,,,,,,,,,,,,,,,,,,,,,,,,,,,,,236.53862720000325,237.53723610000452,237.52153800000087,238.14603880001232,238.14603880001232,None,239.3442226000043,None,right,1.1955631999881007,239.3442226000043,None,240.55693299999984,None,left,0.3189482999878237,240.55693299999984,None,,,,,,,,,,,,,,,,,,,,,,,PPT20,001,2022-06-30_16h08.59.712,ABstudy,2022.1.4,59.95347610075481,
AB,Lag1_T1P_T2A,1,P,A,5,6,4,5,11,Toaster oven,Did you see the Toaster oven?,0.12,0.016,JPG\,fork03c,toothbrush03b,cellphone,fan,toasteroven,clock01a,ring01,eraser,sunglasses04,thermometer02b,violin,blankImage,blankImage,blankImage,blankImage,blankImage,blankImage,toasteroven,,,,,,,,,,,,0,8,8,200,,,,,,,,,,,,,,,,,,,,,,,,,,,,,,,,,,,240.96550860001298,241.97459730000992,241.94141320000926,242.53956280001148,242.53956280001148,None,243.86143420000735,None,right,1.102372599983937,243.86143420000735,None,244.99395390000427,None,left,0.3938903999951435,244.99395390000427,None,,,,,,,,,,,,,,,,,,,,,,,PPT20,001,2022-06-30_16h08.59.712,ABstudy,2022.1.4,59.95347610075481,
AB,Lag1_T1P_T2P,1,P,P,7,8,6,5,13,arrow,Did you see the arrow?,0.12,0.016,JPG\,pencil01,broccoli01a,button01,sponge01,watermelon01,lipstick02a,arrow02,stapler04b,lighter01,sock01a,spoon01,blueberry01,belt02a,blankImage,blankImage,blankImage,blankImage,arrow02,,,,,,,,,,,,0,9,9,76,,,,,,,,,,,,,,,,,,,,,,,,,,,,,,,,,,,245.41334760001337,246.42877040000167,246.3956440000038,246.97089770001185,246.97089770001185,None,248.7379135000083,None,left,0.5775324999849545,248.7379135000083,None,249.33223030000227,None,right,0.5999617999914335,249.33223030000227,None,,,,,,,,,,,,,,,,,,,,,,,PPT20,001,2022-06-30_16h08.59.712,ABstudy,2022.1.4,59.95347610075481,
AB,Lag5_T1A_T2P,5,A,P,7,12,6,5,17,funnel,Did you see the funnel?,0.12,0.016,JPG\,iron01b,orange,birthdaycandle,potato02b,cauliflower01,pencil01,key01,candle08b,celery,tableknife02,pen04b,stapler04b,ring01,rice,lemon02,tomato01,blankImage,englishcucumber,,,,,,,,,,,,0,10,10,259,,,,,,,,,,,,,,,,,,,,,,,,,,,,,,,,,,,249.9536638999998,250.96678560000146,250.95009290000598,251.5424170000042,251.5424170000042,None,253.4905454000109,None,right,0.9213763999869116,253.4905454000109,None,254.43721150000056,None,left,0.3098897999880137,254.43721150000056,None,,,,,,,,,,,,,,,,,,,,,,,PPT20,001,2022-06-30_16h08.59.712,ABstudy,2022.1.4,59.95347610075481,
AB,Lag1_T1A_T2P,1,A,P,5,6,4,4,10,Bull,Did you see the Bull?,0.12,0.016,JPG\,celery,pencil01,fan,foosballtable,iron01b,stapler01,potato02b,fork03c,button01,pineapple01a,blankImage,blankImage,blankImage,blankImage,blankImage,blankImage,blankImage,spiderweb,,,,,,,,,,,,0,11,11,244,,,,,,,,,,,,,,,,,,,,,,,,,,,,,,,,,,,254.8191485000134,255.82238820000202,255.80696260000695,256.4573218000005,256.3898765000049,None,257.6117221000022,None,right,0.8162228999863146,257.6117221000022,None,258.4603174000076,None,left,0.28756630000134464,258.4603174000076,None,,,,,,,,,,,,,,,,,,,,,,,PPT20,001,2022-06-30_16h08.59.712,ABstudy,2022.1.4,59.95347610075481,
AB,Lag5_T1P_T2P,5,P,P,8,13,7,3,16,shrimp,Did you see the shrimp?,0.12,0.016,JPG\,globe,belt02a,sponge01,violin,fork03c,tomato01,clock01a,cocktailshrimp02,balloon01b,scarf,teabag,pen04b,stapler03a,brownsugar,speaker04,screwdriver04b,blankImage,cocktailshrimp02,,,,,,,,,,,,0,12,12,169,,,,,,,,,,,,,,,,,,,,,,,,,,,,,,,,,,,258.78805190000276,259.7918597000098,259.77519480000774,260.38133260000905,260.38133260000905,None,262.330294600004,None,left,0.6729908999986947,262.330294600004,None,263.0302989000047,None,right,0.31661179999355227,263.0302989000047,None,,,,,,,,,,,,,,,,,,,,,,,PPT20,001,2022-06-30_16h08.59.712,ABstudy,2022.1.4,59.95347610075481,
AB,Lag5_T1P_T2A,5,P,A,8,13,7,5,18,Nunchuks,Did you see the Nunchuks?,0.12,0.016,JPG\,celery,tennisball01b,calculator01,pear01,screw02,orange,button01,nunchuk,onion,apple07,iron01b,brownsugar,banana01,paintbrush01,dandelion,toothbrush03b,blankImage,nunchuk,,,,,,,,,,,,0,13,13,218,,,,,,,,,,,,,,,,,,,,,,,,,,,,,,,,,,,263.3847036000079,264.39687210001284,264.3802130000113,264.9673279000126,264.9673279000126,None,266.8930448000028,None,left,0.8788515999913216,266.8930448000028,None,267.80001400000765,None,right,0.6526510999829043,267.80001400000765,None,,,,,,,,,,,,,,,,,,,,,,,PPT20,001,2022-06-30_16h08.59.712,ABstudy,2022.1.4,59.95347610075481,
AB,Lag1_T1P_T2P,1,P,P,5,6,4,5,11,Light switch,Did you see the Light switch?,0.12,0.016,JPG\,iron01b,orange,birthdaycandle,potato02b,lightswitch01,stapler03b,key01,candle08b,celery,tableknife02,pen04b,blankImage,blankImage,blankImage,blankImage,blankImage,blankImage,lightswitch01,,,,,,,,,,,,0,14,14,18,,,,,,,,,,,,,,,,,,,,,,,,,,,,,,,,,,,268.5337350000045,269.535412000012,269.51885140000377,270.10778530000243,270.10778530000243,None,271.3626465000125,None,left,1.2483419999771286,271.3626465000125,None,272.6381756000046,None,left,0.3419621999928495,272.6381756000046,None,,,,,,,,,,,,,,,,,,,,,,,PPT20,001,2022-06-30_16h08.59.712,ABstudy,2022.1.4,59.95347610075481,
AB,Lag1_T1P_T2P,1,P,P,7,8,6,4,12,rooster,Did you see the rooster?,0.12,0.016,JPG\,pizza,strawberry,potato02b,speaker04,battery02b,iron01b,rooster,stapler03b,globe,banana01,medal02b,baseball01a,blankImage,blankImage,blankImage,blankImage,blankImage,rooster,,,,,,,,,,,,0,15,15,69,,,,,,,,,,,,,,,,,,,,,,,,,,,,,,,,,,,273.0074128000124,274.0227891000104,273.98953670001356,274.5810463000089,274.5810463000089,None,276.12399460001325,None,left,0.7116401999810478,276.12399460001325,None,276.8592231000075,None,right,0.2974202999903355,276.8592231000075,None,,,,,,,,,,,,,,,,,,,,,,,PPT20,001,2022-06-30_16h08.59.712,ABstudy,2022.1.4,59.95347610075481,
AB,Lag5_T1A_T2P,5,A,P,7,12,6,3,15,Car,Did you see the Car?,0.12,0.016,JPG\,lighter01,hammer01,spoon01,chain01,cymbal,sponge01,lipstick02a,alligator,pig,watermelon01,cauliflower01,stapler03b,broccoli01a,tableknife02,tennisball01b,blankImage,blankImage,wallclock,,,,,,,,,,,,0,16,16,277,,,,,,,,,,,,,,,,,,,,,,,,,,,,,,,,,,,277.1823901000025,278.1937656000082,278.17712370000663,278.7564929000073,278.7564929000073,None,280.5640024000022,None,right,0.7115591999900062,280.5640024000022,None,281.29739840001275,None,left,0.2900846999982605,281.29739840001275,None,,,,,,,,,,,,,,,,,,,,,,,PPT20,001,2022-06-30_16h08.59.712,ABstudy,2022.1.4,59.95347610075481,
AB,Lag5_T1A_T2P,5,A,P,6,11,5,4,15,butterfly,Did you see the butterfly?,0.12,0.016,JPG\,comb02a,key01,medal02b,battery02b,lighter01,microscope,watermelon01,sandal,pig,cellphone,stapler06,calculator01,cymbal,clock04,cucumber,blankImage,blankImage,uprightpiano01,,,,,,,,,,,,0,17,17,276,,,,,,,,,,,,,,,,,,,,,,,,,,,,,,,,,,,281.6186153000017,282.63218190000043,282.61663780000526,283.2708602000057,283.1935443000111,None,284.98177670000587,None,right,0.8374089999852004,284.98177670000587,None,285.85138630001165,None,left,0.6334490999870468,285.85138630001165,None,,,,,,,,,,,,,,,,,,,,,,,PPT20,001,2022-06-30_16h08.59.712,ABstudy,2022.1.4,59.95347610075481,
AB,Lag1_T1A_T2P,1,A,P,8,9,7,4,13,Toolbox,Did you see the Toolbox?,0.12,0.016,JPG\,pizza,printer02,medal02b,spoon01,grape01,lighter01,belt02a,watermelon01,stapler03b,battery02b,screw02,comb02a,cauliflower01,blankImage,blankImage,blankImage,blankImage,ladybug03,,,,,,,,,,,,0,18,18,237,,,,,,,,,,,,,,,,,,,,,,,,,,,,,,,,,,,286.5062087000115,287.5197208000027,287.5030093000096,288.19037650000246,288.1111108000041,None,289.6624220000085,None,right,0.7006063999870094,289.6624220000085,None,290.38917850000144,None,left,0.28594909998355433,290.38917850000144,None,,,,,,,,,,,,,,,,,,,,,,,PPT20,001,2022-06-30_16h08.59.712,ABstudy,2022.1.4,59.95347610075481,
AB,Lag1_T1P_T2P,1,P,P,6,7,5,4,11,bowling pin,Did you see the bowling pin?,0.12,0.016,JPG\,strawberry,leaf02a,clock04,candle01,avocado01,bowlingpin,stapler03a,brownsugar,ring01,lemon02,fork03c,blankImage,blankImage,blankImage,blankImage,blankImage,blankImage,bowlingpin,,,,,,,,,,,,0,19,19,8,,,,,,,,,,,,,,,,,,,,,,,,,,,,,,,,,,,290.75805290001153,291.75777820000076,291.75777820000076,292.35786550000194,292.35786550000194,None,293.60016590000305,None,left,0.8758529999904567,293.60016590000305,None,294.49613950001367,None,right,0.2906543999852147,294.49613950001367,None,,,,,,,,,,,,,,,,,,,,,,,PPT20,001,2022-06-30_16h08.59.712,ABstudy,2022.1.4,59.95347610075481,
AB,Lag5_T1P_T2A,5,P,A,7,12,6,3,15,Toy soldier,Did you see the Toy soldier?,0.12,0.016,JPG\,binoculars01b,cymbal,pizza,candy,paintbrush01,sponge01,toysoldier01b,thermometer02b,speaker04,lemon02,lipstick02a,strawberry,candle01,acorn,plate01b,blankImage,blankImage,toysoldier01b,,,,,,,,,,,,0,20,20,203,,,,,,,,,,,,,,,,,,,,,,,,,,,,,,,,,,,294.815136300007,295.82896370001254,295.813479000004,296.49025470000925,296.40938490000553,None,298.27847250000923,None,left,0.70958349997818,298.27847250000923,None,299.01438690000214,None,right,0.29444229998625815,299.01438690000214,None,,,,,,,,,,,,,,,,,,,,,,,PPT20,001,2022-06-30_16h08.59.712,ABstudy,2022.1.4,59.95347610075481,
AB,Lag5_T1P_T2P,5,P,P,6,11,5,3,14,fish,Did you see the fish?,0.12,0.016,JPG\,broom01,globe,cellphone,tableknife02,cauliflower01,holdfast,ring01,alligator,rice,toaster01,stapler03b,grape01,microscope,cucumber,blankImage,blankImage,blankImage,holdfast,,,,,,,,,,,,0,21,21,133,,,,,,,,,,,,,,,,,,,,,,,,,,,,,,,,,,,299.3396107000008,300.34906890000275,300.3323953000072,300.91930700000376,300.91930700000376,None,302.58411830000114,None,left,0.650871499979985,302.58411830000114,None,303.2523572000064,None,left,0.30319629998120945,303.2523572000064,None,,,,,,,,,,,,,,,,,,,,,,,PPT20,001,2022-06-30_16h08.59.712,ABstudy,2022.1.4,59.95347610075481,
AB,Lag1_T1A_T2P,1,A,P,8,9,7,4,13,nose,Did you see the nose?,0.12,0.016,JPG\,pizza,strawberry,potato02b,speaker04,battery02b,iron01b,dice05a,cellphone,stapler06,banana01,medal02b,baseball01a,toaster01,blankImage,blankImage,blankImage,blankImage,cow,,,,,,,,,,,,0,22,22,231,,,,,,,,,,,,,,,,,,,,,,,,,,,,,,,,,,,303.58651490000193,304.5869160000002,304.57016550000117,305.1688933000114,305.1688933000114,None,306.7923579000053,None,right,0.9790826999815181,306.7923579000053,None,307.7905329000059,None,left,0.9730974999984028,307.7905329000059,None,,,,,,,,,,,,,,,,,,,,,,,PPT20,001,2022-06-30_16h08.59.712,ABstudy,2022.1.4,59.95347610075481,
AB,Lag1_T1P_T2P,1,P,P,8,9,7,3,12,zebra,Did you see the zebra?,0.12,0.016,JPG\,apple07,toiletpaper01a,pizza,dandelion,greenolive,eraser,microscope,zebra,stapler03b,lipstick02a,balloon01b,sandal,blankImage,blankImage,blankImage,blankImage,blankImage,zebra,,,,,,,,,,,,0,23,23,28,,,,,,,,,,,,,,,,,,,,,,,,,,,,,,,,,,,308.7998019000079,309.8085628000117,309.7918204000016,310.3761203000031,310.3761203000031,None,311.8569254000031,None,left,0.8665896999882534,311.8569254000031,None,312.744763300012,None,right,0.33072379998338874,312.744763300012,None,,,,,,,,,,,,,,,,,,,,,,,PPT20,001,2022-06-30_16h08.59.712,ABstudy,2022.1.4,59.95347610075481,
AB,Lag1_T1P_T2A,1,P,A,5,6,4,5,11,Moon,Did you see the Moon?,0.12,0.016,JPG\,lamp04a,broccoli01a,alligator,garlic01a,moon,brownsugar,avocado01,ring01,leaf02a,cellphone,medal02b,blankImage,blankImage,blankImage,blankImage,blankImage,blankImage,moon,,,,,,,,,,,,0,24,24,190,,,,,,,,,,,,,,,,,,,,,,,,,,,,,,,,,,,313.09741070000746,314.11283019999973,314.07938600001216,314.65075060000527,314.65075060000527,None,316.00522010000714,None,right,0.8142969999898924,316.00522010000714,None,316.8492780000088,None,right,0.3703067999886116,316.8492780000088,None,,,,,,,,,,,,,,,,,,,,,,,PPT20,001,2022-06-30_16h08.59.712,ABstudy,2022.1.4,59.95347610075481,
AB,Lag5_T1P_T2P,5,P,P,7,12,6,5,17,flower,Did you see the flower?,0.12,0.016,JPG\,leaf02a,pear01,measuringcup01,cigarette,fan,lemon02,lily,tableknife02,ring01,pencil01,cellphone,stapler01,carrot01,binoculars01b,sock01a,book01b,blankImage,lily,,,,,,,,,,,,0,25,25,134,,,,,,,,,,,,,,,,,,,,,,,,,,,,,,,,,,,317.25357080000686,318.26760180000565,318.2519592000026,318.91083900000376,318.91083900000376,None,320.7413872000034,None,left,0.6386968999868259,320.7413872000034,None,321.4034369000001,None,left,0.3275380999839399,321.4034369000001,None,,,,,,,,,,,,,,,,,,,,,,,PPT20,001,2022-06-30_16h08.59.712,ABstudy,2022.1.4,59.95347610075481,
AB,Lag5_T1P_T2A,5,P,A,7,12,6,3,15,helmet,Did you see the helmet?,0.12,0.016,JPG\,fork03c,belt02a,grape01,computerkeyboard02,lemon02,printer02,skihelmet01,toiletpaper01a,toaster01,lipstick02a,book01b,blueberry01,spoon01,apple07,avocado01,blankImage,blankImage,skihelmet01,,,,,,,,,,,,0,26,26,225,,,,,,,,,,,,,,,,,,,,,,,,,,,,,,,,,,,321.75598739999987,322.77138840001135,322.7381288000033,323.3122779000114,323.3122779000114,None,325.20884790000855,None,right,1.2344243999832543,325.20884790000855,None,326.4754410000023,None,right,0.5602668999927118,326.4754410000023,None,,,,,,,,,,,,,,,,,,,,,,,PPT20,001,2022-06-30_16h08.59.712,ABstudy,2022.1.4,59.95347610075481,
AB,Lag1_T1A_T2P,1,A,P,5,6,4,3,9,barrel,Did you see the barrel?,0.12,0.016,JPG\,clock01a,cellphone,toaster01,toothbrush03b,cauliflower01,stapler01,comb02a,paintbrush01,scarf,blankImage,blankImage,blankImage,blankImage,blankImage,blankImage,blankImage,blankImage,sheep,,,,,,,,,,,,0,27,27,243,,,,,,,,,,,,,,,,,,,,,,,,,,,,,,,,,,,327.0633006999997,328.0767646000022,328.0603049000056,328.65747730000294,328.65747730000294,None,329.7561049000069,None,right,0.7113538999838056,329.7561049000069,None,330.49573610001244,None,left,0.6525073999800952,330.49573610001244,None,,,,,,,,,,,,,,,,,,,,,,,PPT20,001,2022-06-30_16h08.59.712,ABstudy,2022.1.4,59.95347610075481,
AB,Lag1_T1P_T2A,1,P,A,7,8,6,3,11,fish,Did you see the fish?,0.12,0.016,JPG\,rice,watermelon01,tableknife02,scarf,computerkeyboard02,cauliflower01,salmon,binoculars01b,book01b,sandal,sponge01,blankImage,blankImage,blankImage,blankImage,blankImage,blankImage,salmon,,,,,,,,,,,,0,28,28,179,,,,,,,,,,,,,,,,,,,,,,,,,,,,,,,,,,,331.1820230000012,332.19742750001024,332.1641105000017,332.74068940000143,332.74068940000143,None,334.18046630000754,None,left,0.83860159998585,334.18046630000754,None,335.06530100000964,None,right,0.2658719999890309,335.06530100000964,None,,,,,,,,,,,,,,,,,,,,,,,PPT20,001,2022-06-30_16h08.59.712,ABstudy,2022.1.4,59.95347610075481,
AB,Lag5_T1A_T2A,5,A,A,7,12,6,4,16,boxing glove,Did you see the boxing glove?,0.12,0.016,JPG\,cherry01,cymbal,envelope03a,foosballtable,shirt02,cellphone,sewingmachine01a,candle08b,battery02b,apple07,pencil01,screwdriver04b,strawberry,sunglasses04,feather03a,rice,blankImage,lollipop04,,,,,,,,,,,,0,29,29,296,,,,,,,,,,,,,,,,,,,,,,,,,,,,,,,,,,,335.36345450000954,336.3694034000073,336.35388960001,337.01178900001105,336.93951510000625,None,338.8393376000022,None,right,0.6684190999949351,338.8393376000022,None,339.53846560000966,None,left,0.28111849998822436,339.53846560000966,None,,,,,,,,,,,,,,,,,,,,,,,PPT20,001,2022-06-30_16h08.59.712,ABstudy,2022.1.4,59.95347610075481,
AB,Lag5_T1A_T2P,5,A,P,7,12,6,4,16,ear,Did you see the ear?,0.12,0.016,JPG\,candle01,shirt02,brick,orange,greenolive,toothbrush03b,pizza,thermometer02b,book01b,toiletpaper01a,sewingmachine01a,stapler01,candy,cymbal,potato02b,plate01b,blankImage,chair,,,,,,,,,,,,0,30,30,257,,,,,,,,,,,,,,,,,,,,,,,,,,,,,,,,,,,339.84217660001013,340.8564913000009,340.8398190000007,341.46322480001254,341.39456320001045,None,343.3710149000108,None,right,0.833110299994587,343.3710149000108,None,344.22655510000186,None,left,0.29647419998946134,344.22655510000186,None,,,,,,,,,,,,,,,,,,,,,,,PPT20,001,2022-06-30_16h08.59.712,ABstudy,2022.1.4,59.95347610075481,
AB,Lag5_T1P_T2A,5,P,A,8,13,7,4,17,Tarantula,Did you see the Tarantula?,0.12,0.016,JPG\,binoculars01b,speaker04,sandal,envelope03a,plate01b,comb02a,battery02b,tarantula,measuringcup01,key01,medal02b,lamp04a,tennisball01b,pizza,cigarette,sunglasses04,blankImage,tarantula,,,,,,,,,,,,0,31,31,201,,,,,,,,,,,,,,,,,,,,,,,,,,,,,,,,,,,344.5505223000073,345.5610188999999,345.5442679000116,346.1549849000003,346.1549849000003,None,348.05624190000526,None,left,0.627103899983922,348.05624190000526,None,348.71395000000484,None,right,0.2735684999934165,348.71395000000484,None,,,,,,,,,,,,,,,,,,,,,,,PPT20,001,2022-06-30_16h08.59.712,ABstudy,2022.1.4,59.95347610075481,
AB,Lag5_T1P_T2P,5,P,P,8,13,7,5,18,Kiwi,Did you see the Kiwi?,0.12,0.016,JPG\,violin,pizza,toothbrush03b,pineapple01a,banana01,ashtray01,candy,kiwi03,clock04,sock01a,microscope,speaker04,stapler04b,sunglasses04,lipstick02a,blueberry01,blankImage,kiwi03,,,,,,,,,,,,0,32,32,111,,,,,,,,,,,,,,,,,,,,,,,,,,,,,,,,,,,349.068239500004,350.082930900011,350.0675593000051,350.739931300006,350.65549889999966,None,352.57116810001025,None,left,0.4413326999783749,352.57116810001025,None,353.0348840000079,None,left,0.24777399998856708,353.0348840000079,None,,,,,,,,,,,,,,,,,,,,,,,PPT20,001,2022-06-30_16h08.59.712,ABstudy,2022.1.4,59.95347610075481,
AB,Lag1_T1P_T2P,1,P,P,8,9,7,4,13,bowling ball,Did you see the bowling ball?,0.12,0.016,JPG\,dandelion,pineapple01a,broom01,pen04b,sock01a,sandal,foosballtable,bowlingball,stapler01,toothbrush03b,celery,candle08b,tennisball01b,blankImage,blankImage,blankImage,blankImage,bowlingball,,,,,,,,,,,,0,33,33,7,,,,,,,,,,,,,,,,,,,,,,,,,,,,,,,,,,,353.3077895000024,354.3197233000101,354.3030330000038,354.80416450000484,354.80416450000484,None,356.46592780000356,None,right,0.904818199982401,356.46592780000356,None,357.3900818000111,None,right,0.5178409999934956,357.3900818000111,None,,,,,,,,,,,,,,,,,,,,,,,PPT20,001,2022-06-30_16h08.59.712,ABstudy,2022.1.4,59.95347610075481,
AB,Lag1_T1P_T2P,1,P,P,5,6,4,5,11,candy cane,Did you see the candy cane?,0.12,0.016,JPG\,shirt02,match,screw02,foosballtable,candycane01a,stapler04b,sewingmachine01a,watch02a,button01,comb02a,dice05a,blankImage,blankImage,blankImage,blankImage,blankImage,blankImage,candycane01a,,,,,,,,,,,,0,34,34,9,,,,,,,,,,,,,,,,,,,,,,,,,,,,,,,,,,,357.94564440000977,358.9577766000002,358.9411058000114,359.51960900000995,359.51960900000995,None,360.83714640000835,None,left,0.7992797999904724,360.83714640000835,None,361.66018130000157,None,right,0.27910339999652933,361.66018130000157,None,,,,,,,,,,,,,,,,,,,,,,,PPT20,001,2022-06-30_16h08.59.712,ABstudy,2022.1.4,59.95347610075481,
AB,Lag1_T1P_T2A,1,P,A,6,7,5,5,12,foot,Did you see the foot?,0.12,0.016,JPG\,watermelon01,cigarette,weight04a,cymbal,cauliflower01,foot,cherry01,broom01,battery02b,key01,baseball01a,iron01b,blankImage,blankImage,blankImage,blankImage,blankImage,foot,,,,,,,,,,,,0,35,35,188,,,,,,,,,,,,,,,,,,,,,,,,,,,,,,,,,,,361.9629125000065,362.96208170001046,362.9467374000087,363.61764160000894,363.53299289999995,None,365.00457430000824,None,left,1.2946410999866202,365.00457430000824,None,366.33148770000844,None,right,0.3917471999884583,366.33148770000844,None,,,,,,,,,,,,,,,,,,,,,,,PPT20,001,2022-06-30_16h08.59.712,ABstudy,2022.1.4,59.95347610075481,
AB,Lag1_T1P_T2P,1,P,P,8,9,7,3,12,snow globe,Did you see the Snow globe?,0.12,0.016,JPG\,eraser,measuringcup01,chain01,birthdaycandle,ring01,rice,8ball,stapler04b,stapler01,celery,microscope,sunglasses04,blankImage,blankImage,blankImage,blankImage,blankImage,snowglobe,,,,,,,,,,,,0,36,36,56,,,,,,,,,,,,,,,,,,,,,,,,,,,,,,,,,,,366.7511693000124,367.76620730001014,367.7328009000048,368.3080018000037,368.3080018000037,None,369.80360360001214,None,right,0.8233943999803159,369.80360360001214,None,370.6523847000062,None,left,0.3516547999897739,370.6523847000062,None,,,,,,,,,,,,,,,,,,,,,,,PPT20,001,2022-06-30_16h08.59.712,ABstudy,2022.1.4,59.95347610075481,
AB,Lag1_T1P_T2P,1,P,P,6,7,5,5,12,owl,Did you see the owl?,0.12,0.016,JPG\,paintbrush01,eraser,medal02b,hammer01,speaker04,greathornowl,stapler01,comb02a,plate01b,clock01a,button01,globe,blankImage,blankImage,blankImage,blankImage,blankImage,greathornowl,,,,,,,,,,,,0,37,37,1,,,,,,,,,,,,,,,,,,,,,,,,,,,,,,,,,,,371.0383671000018,372.0538363000087,372.0204587000044,372.59142390001216,372.59142390001216,None,374.19867160001013,None,left,0.9248319999751402,374.19867160001013,None,375.1403538000013,None,right,0.2629820999864023,375.1403538000013,None,,,,,,,,,,,,,,,,,,,,,,,PPT20,001,2022-06-30_16h08.59.712,ABstudy,2022.1.4,59.95347610075481,
AB,Lag1_T1P_T2P,1,P,P,8,9,7,3,12,cactus,Did you see the cactus?,0.12,0.016,JPG\,tennisball01b,paintbrush01,medal02b,apple07,speaker04,iron01b,avocado01,cactus,stapler03b,toiletpaper01a,watermelon01,candle01,blankImage,blankImage,blankImage,blankImage,blankImage,cactus,,,,,,,,,,,,0,38,38,58,,,,,,,,,,,,,,,,,,,,,,,,,,,,,,,,,,,375.4257588000037,376.4250744000019,376.4083643000049,377.0328712000046,377.0328712000046,None,378.43820550000237,None,left,0.7814722999901278,378.43820550000237,None,379.245009700011,None,right,0.7100466999836499,379.245009700011,None,,,,,,,,,,,,,,,,,,,,,,,PPT20,001,2022-06-30_16h08.59.712,ABstudy,2022.1.4,59.95347610075481,
AB,Lag5_T1P_T2P,5,P,P,6,11,5,3,14,shower head,Did you see the shower head?,0.12,0.016,JPG\,belt02a,measuringcup01,spoon01,chain01,greenolive,showerhead01,computerkeyboard02,onion,fan,strawberry,stapler01,broom01,binoculars01b,ashtray01,blankImage,blankImage,blankImage,showerhead01,,,,,,,,,,,,0,39,39,98,,,,,,,,,,,,,,,,,,,,,,,,,,,,,,,,,,,379.9842536000069,380.9963076000131,380.97957640000095,381.5839133000118,381.5839133000118,None,383.3724065999995,None,left,0.3745958999788854,383.3724065999995,None,383.7660518000048,None,left,0.2610366999870166,383.7660518000048,None,,,,,,,,,,,,,,,,,,,,,,,PPT20,001,2022-06-30_16h08.59.712,ABstudy,2022.1.4,59.95347610075481,
AB,Lag5_T1P_T2P,5,P,P,7,12,6,4,16,Wolf,Did you see the Wolf?,0.12,0.016,JPG\,brick,eraser,cucumber,ashtray01,thermometer02b,binoculars01b,greywolf,screwdriver04b,grape01,brownsugar,battery02b,stapler03b,dice05a,avocado01,birthdaycandle,watch02a,blankImage,greywolf,,,,,,,,,,,,0,40,40,89,,,,,,,,,,,,,,,,,,,,,,,,,,,,,,,,,,,384.0534590000025,385.0670809000003,385.0504542000126,385.6572171000007,385.6572171000007,None,387.5730353000108,None,left,0.34243949998926837,387.5730353000108,None,387.936910000004,None,left,0.2738362999953097,387.936910000004,None,,,,,,,,,,,,,,,,,,,,,,,PPT20,001,2022-06-30_16h08.59.712,ABstudy,2022.1.4,59.95347610075481,
AB,Lag1_T1P_T2P,1,P,P,5,6,4,3,9,elephant,Did you see the elephant?,0.12,0.016,JPG\,celery,brownsugar,key01,sunglasses04,arugula,stapler04b,dice05a,tennisball01b,scarf,blankImage,blankImage,blankImage,blankImage,blankImage,blankImage,blankImage,blankImage,arugula,,,,,,,,,,,,0,41,41,54,,,,,,,,,,,,,,,,,,,,,,,,,,,,,,,,,,,388.2365320000099,389.23759890001384,389.2208854000055,389.80081240000436,389.80081240000436,None,390.95755410000857,None,right,0.7096633999899495,390.95755410000857,None,391.69059200001357,None,right,0.5206149000005098,391.69059200001357,None,,,,,,,,,,,,,,,,,,,,,,,PPT20,001,2022-06-30_16h08.59.712,ABstudy,2022.1.4,59.95347610075481,
AB,Lag1_T1A_T2A,1,A,A,8,9,7,4,13,Recycling bin,Did you see the Recycling bin?,0.12,0.016,JPG\,brick,plate01b,pen04b,toaster01,screwdriver04b,candle01,envelope03a,feather03a,pig,ring01,orange,clock01a,lighter01,blankImage,blankImage,blankImage,blankImage,bumpercar,,,,,,,,,,,,0,42,42,292,,,,,,,,,,,,,,,,,,,,,,,,,,,,,,,,,,,392.2513626,393.2586721000116,393.24173750000773,393.8204079999996,393.8204079999996,None,395.3788140000106,None,right,0.8717316999827744,395.3788140000106,None,396.2781787000131,None,right,0.24442719998478424,396.2781787000131,None,,,,,,,,,,,,,,,,,,,,,,,PPT20,001,2022-06-30_16h08.59.712,ABstudy,2022.1.4,59.95347610075481,
AB,Lag1_T1A_T2A,1,A,A,6,7,5,5,12,flamingo,Did you see the flamingo?,0.12,0.016,JPG\,chain01,pen04b,birthdaycandle,watermelon01,broom01,scissors01,measuringcup01,candle01,hammer01,calculator01,ashtray01,feather03a,blankImage,blankImage,blankImage,blankImage,blankImage,witchhat,,,,,,,,,,,,0,43,43,288,,,,,,,,,,,,,,,,,,,,,,,,,,,,,,,,,,,396.5496617000026,397.56275710000773,397.5461808000109,398.1086527000007,398.1086527000007,None,399.57478520000586,None,right,0.7335925999941537,399.57478520000586,None,400.33239370000956,None,right,0.5909057999815559,400.33239370000956,None,,,,,,,,,,,,,,,,,,,,,,,PPT20,001,2022-06-30_16h08.59.712,ABstudy,2022.1.4,59.95347610075481,
AB,Lag1_T1P_T2P,1,P,P,6,7,5,4,11,Bow,Did you see the Bow?,0.12,0.016,JPG\,broom01,plate01b,scissors01,garlic01a,paintbrush01,bow,stapler03a,shirt02,speaker04,celery,sandal,blankImage,blankImage,blankImage,blankImage,blankImage,blankImage,bow,,,,,,,,,,,,0,44,44,53,,,,,,,,,,,,,,,,,,,,,,,,,,,,,,,,,,,400.9554642000003,401.96710480000183,401.9505867000116,402.53798030001053,402.53798030001053,None,403.896550400008,None,left,0.6666338999930304,403.896550400008,None,404.58621540000604,None,right,0.4088246000028448,404.58621540000604,None,,,,,,,,,,,,,,,,,,,,,,,PPT20,001,2022-06-30_16h08.59.712,ABstudy,2022.1.4,59.95347610075481,
AB,Lag1_T1A_T2P,1,A,P,5,6,4,3,9,chimney,Did you see the chimney?,0.12,0.016,JPG\,cucumber,sponge01,alligator,pear01,ashtray01,stapler06,clock04,battery02b,fork03c,blankImage,blankImage,blankImage,blankImage,blankImage,blankImage,blankImage,blankImage,trophy01,,,,,,,,,,,,0,45,45,246,,,,,,,,,,,,,,,,,,,,,,,,,,,,,,,,,,,405.0214496000117,406.0209763000021,406.0042417000077,406.57750900000974,406.57750900000974,None,407.7138243000081,None,right,0.7780338999873493,407.7138243000081,None,408.5237558000081,None,right,0.31949389999499545,408.5237558000081,None,,,,,,,,,,,,,,,,,,,,,,,PPT20,001,2022-06-30_16h08.59.712,ABstudy,2022.1.4,59.95347610075481,
AB,Lag1_T1P_T2P,1,P,P,5,6,4,5,11,golf ball,Did you see the golf ball?,0.12,0.016,JPG\,foosballtable,cigarette,pen04b,birthdaycandle,golfball,stapler05,binoculars01b,chain01,potato02b,cauliflower01,paintbrush01,blankImage,blankImage,blankImage,blankImage,blankImage,blankImage,golfball,,,,,,,,,,,,0,46,46,13,,,,,,,,,,,,,,,,,,,,,,,,,,,,,,,,,,,408.87883890001103,409.8918943000026,409.8751597000082,410.37564790000033,410.37564790000033,None,411.82029450000846,None,left,1.014797699986957,411.82029450000846,None,412.8610458000039,None,left,0.2539093999948818,412.8610458000039,None,,,,,,,,,,,,,,,,,,,,,,,PPT20,001,2022-06-30_16h08.59.712,ABstudy,2022.1.4,59.95347610075481,
AB,Lag1_T1A_T2P,1,A,P,7,8,6,3,11,lion,Did you see the lion?,0.12,0.016,JPG\,sock01a,spoon01,alligator,comb02a,printer02,medal02b,lamp04a,stapler01,greenolive,computerkeyboard02,cauliflower01,blankImage,blankImage,blankImage,blankImage,blankImage,blankImage,bullet,,,,,,,,,,,,0,47,47,229,,,,,,,,,,,,,,,,,,,,,,,,,,,,,,,,,,,413.1469877000054,414.16250650001166,414.1290397000121,414.74715190001007,414.74715190001007,None,416.04412770000636,None,right,0.6792696999909822,416.04412770000636,None,416.74830390000716,None,right,0.2870130999945104,416.74830390000716,None,,,,,,,,,,,,,,,,,,,,,,,PPT20,001,2022-06-30_16h08.59.712,ABstudy,2022.1.4,59.95347610075481,
AB,Lag5_T1P_T2P,5,P,P,5,10,4,5,15,ear,Did you see the ear?,0.12,0.016,JPG\,fork03c,plate01b,toiletpaper01a,greenolive,ear,blueberry01,onion,calculator01,envelope03a,stapler06,book01b,pencil01,sewingmachine01a,brick,watermelon01,blankImage,blankImage,ear,,,,,,,,,,,,0,48,48,107,,,,,,,,,,,,,,,,,,,,,,,,,,,,,,,,,,,417.06756910000695,418.0830308000004,418.04966140000033,418.6242576000077,418.6242576000077,None,420.4851245000027,None,left,0.47746809998352546,420.4851245000027,None,420.9864923000132,None,left,0.3046528999839211,420.9864923000132,None,,,,,,,,,,,,,,,,,,,,,,,PPT20,001,2022-06-30_16h08.59.712,ABstudy,2022.1.4,59.95347610075481,
AB,Lag1_T1P_T2P,1,P,P,8,9,7,4,13,Doughnut,Did you see the Doughnut?,0.12,0.016,JPG\,brick,eraser,cucumber,ashtray01,thermometer02b,binoculars01b,lipstick02a,donut,stapler01,brownsugar,battery02b,iron01b,dice05a,blankImage,blankImage,blankImage,blankImage,donut,,,,,,,,,,,,0,49,49,39,,,,,,,,,,,,,,,,,,,,,,,,,,,,,,,,,,,421.3241793000052,422.3375767000107,422.3209130000032,422.9170848000067,422.9170848000067,None,424.4605140000058,None,left,0.685903599995072,424.4605140000058,None,425.17468150000786,None,right,0.2605465999804437,425.17468150000786,None,,,,,,,,,,,,,,,,,,,,,,,PPT20,001,2022-06-30_16h08.59.712,ABstudy,2022.1.4,59.95347610075481,
AB,Lag5_T1A_T2A,5,A,A,5,10,4,5,15,window,Did you see the window?,0.12,0.016,JPG\,leaf02a,apple07,cd,pineapple01a,envelope03a,paintbrush01,pig,canoftennisballs,rice,feather03a,lemon02,balloon01b,avocado01,calculator01,watermelon01,blankImage,blankImage,saxophone,,,,,,,,,,,,0,50,50,301,,,,,,,,,,,,,,,,,,,,,,,,,,,,,,,,,,,425.4622737000027,426.4748208000092,426.45817570001236,427.0620970000018,427.0620970000018,None,428.91692870001134,None,right,0.8465402999863727,428.91692870001134,None,429.8090855000046,None,right,0.19337769999401644,429.8090855000046,None,,,,,,,,,,,,,,,,,,,,,,,PPT20,001,2022-06-30_16h08.59.712,ABstudy,2022.1.4,59.95347610075481,
AB,Lag5_T1P_T2A,5,P,A,8,13,7,4,17,fountain,Did you see the fountain?,0.12,0.016,JPG\,printer02,envelope03a,potato02b,calculator01,tableknife02,cigarette,ashtray01,parkfountain,broom01,greenolive,candle08b,battery02b,strawberry,candle01,foosballtable,tennisball01b,blankImage,parkfountain,,,,,,,,,,,,0,51,51,219,,,,,,,,,,,,,,,,,,,,,,,,,,,,,,,,,,,430.03915690000576,431.0457202000107,431.02906470000744,431.60782460001064,431.60782460001064,None,433.58981330000097,None,left,0.7331447999895317,433.58981330000097,None,434.3491762000049,None,right,0.3819127999886405,434.3491762000049,None,,,,,,,,,,,,,,,,,,,,,,,PPT20,001,2022-06-30_16h08.59.712,ABstudy,2022.1.4,59.95347610075481,
AB,Lag1_T1P_T2P,1,P,P,8,9,7,4,13,Hula hoop,Did you see the Hula hoop?,0.12,0.016,JPG\,brownsugar,candle01,match,printer02,broom01,balloon01b,belt02a,hulahoop,stapler04b,feather03a,rice,mushroom01,pencil01,blankImage,blankImage,blankImage,blankImage,hulahoop,,,,,,,,,,,,0,52,52,64,,,,,,,,,,,,,,,,,,,,,,,,,,,,,,,,,,,434.75740630000655,435.7673286000063,435.75059480000346,436.25127600000997,436.25127600000997,None,437.93682020000415,None,left,0.843462399992859,437.93682020000415,None,438.80411560001085,None,right,0.2304120999906445,438.80411560001085,None,,,,,,,,,,,,,,,,,,,,,,,PPT20,001,2022-06-30_16h08.59.712,ABstudy,2022.1.4,59.95347610075481,
AB,Lag1_T1P_T2P,1,P,P,5,6,4,5,11,Basketball,Did you see the Basketball?,0.12,0.016,JPG\,pencil01,microscope,banana01,computerkeyboard02,basketball01,stapler04b,scissors01,sock01a,book01b,onion,dice05a,blankImage,blankImage,blankImage,blankImage,blankImage,blankImage,basketball01,,,,,,,,,,,,0,53,53,34,,,,,,,,,,,,,,,,,,,,,,,,,,,,,,,,,,,439.05991580001137,440.0716620000021,440.05531700000574,440.61802010000974,440.61802010000974,None,441.93980640001246,None,left,0.6471692999912193,441.93980640001246,None,442.6073703000002,None,left,0.34738649998325855,442.6073703000002,None,,,,,,,,,,,,,,,,,,,,,,,PPT20,001,2022-06-30_16h08.59.712,ABstudy,2022.1.4,59.95347610075481,
AB,Lag5_T1P_T2P,5,P,P,7,12,6,3,15,Rollerblade,Did you see the Rollerblade?,0.12,0.016,JPG\,hammer01,sponge01,toaster01,cherry01,feather03a,mushroom01,rollerblade,pencil01,tennisball01b,brick,clock04,stapler06,teabag,garlic01a,envelope03a,blankImage,blankImage,rollerblade,,,,,,,,,,,,0,54,54,116,,,,,,,,,,,,,,,,,,,,,,,,,,,,,,,,,,,442.9787387000106,443.9920739000081,443.9754939000122,444.54651580000063,444.54651580000063,None,446.4002760000003,None,left,0.346661799994763,446.4002760000003,None,446.7782518000022,None,left,0.24864539998816326,446.7782518000022,None,,,,,,,,,,,,,,,,,,,,,,,PPT20,001,2022-06-30_16h08.59.712,ABstudy,2022.1.4,59.95347610075481,
AB,Lag5_T1P_T2P,5,P,P,5,10,4,5,15,penguin,Did you see the penguin?,0.12,0.016,JPG\,watermelon01,cigarette,pintofbeer,cymbal,penguin,feather03a,cherry01,broom01,battery02b,stapler05,baseball01a,iron01b,garlic01a,computerkeyboard02,pig,blankImage,blankImage,penguin,,,,,,,,,,,,0,55,55,137,,,,,,,,,,,,,,,,,,,,,,,,,,,,,,,,,,,447.0492979000119,448.06307310001284,448.04643800000485,448.69190440000966,448.60828179999953,None,450.39464790000056,None,right,1.3285551999870222,450.39464790000056,None,451.7498470999999,None,right,0.5811651999829337,451.7498470999999,None,,,,,,,,,,,,,,,,,,,,,,,PPT20,001,2022-06-30_16h08.59.712,ABstudy,2022.1.4,59.95347610075481,
AB,Lag5_T1A_T2P,5,A,P,6,11,5,3,14,Kiwi,Did you see the Kiwi?,0.12,0.016,JPG\,paintbrush01,dice05a,watermelon01,broccoli01a,hammer01,leaf02a,match,tennisball01b,lemon02,fan,stapler06,grape01,envelope03a,sponge01,blankImage,blankImage,blankImage,granolabar01,,,,,,,,,,,,0,56,56,261,,,,,,,,,,,,,,,,,,,,,,,,,,,,,,,,,,,452.3526611000125,453.3680936000019,453.3347495000053,453.9167114000011,453.9167114000011,None,455.6411924000131,None,right,1.1933496999845374,455.6411924000131,None,456.8555631000054,None,left,0.2507890999841038,456.8555631000054,None,,,,,,,,,,,,,,,,,,,,,,,PPT20,001,2022-06-30_16h08.59.712,ABstudy,2022.1.4,59.95347610075481,
AB,Lag1_T1A_T2P,1,A,P,5,6,4,3,9,Spider,Did you see the Spider?,0.12,0.016,JPG\,pen04b,speaker04,lighter01,cherry01,8ball,stapler04b,sock01a,toothbrush03b,broom01,blankImage,blankImage,blankImage,blankImage,blankImage,blankImage,blankImage,blankImage,bridge,,,,,,,,,,,,0,57,57,250,,,,,,,,,,,,,,,,,,,,,,,,,,,,,,,,,,,457.14383620000444,458.156510300003,458.1396934000077,458.7020225000015,458.7020225000015,None,459.8687856000033,None,right,0.9496872999879997,459.8687856000033,None,460.8427994000085,None,right,0.48829849998583086,460.8427994000085,None,,,,,,,,,,,,,,,,,,,,,,,PPT20,001,2022-06-30_16h08.59.712,ABstudy,2022.1.4,59.95347610075481,
AB,Lag1_T1P_T2P,1,P,P,7,8,6,3,11,Sand castle,Did you see the Sand castle?,0.12,0.016,JPG\,thermometer02b,candle08b,comb02a,toothbrush03b,brick,computerkeyboard02,sandcastle,stapler06,candy,birthdaycandle,clock04,blankImage,blankImage,blankImage,blankImage,blankImage,blankImage,sandcastle,,,,,,,,,,,,0,58,58,70,,,,,,,,,,,,,,,,,,,,,,,,,,,,,,,,,,,461.36681450001197,462.3773166000028,462.3605784000101,462.9468760000018,462.9468760000018,None,464.33404000000155,None,right,0.7328514999826439,464.33404000000155,None,465.0964731000131,None,left,0.266402899986133,465.0964731000131,None,,,,,,,,,,,,,,,,,,,,,,,PPT20,001,2022-06-30_16h08.59.712,ABstudy,2022.1.4,59.95347610075481,
AB,Lag1_T1A_T2P,1,A,P,8,9,7,3,12,seal,Did you see the seal?,0.12,0.016,JPG\,dice05a,watch02a,pig,lighter01,button01,strawberry,paintbrush01,microscope,stapler03a,pen04b,feather03a,8ball,blankImage,blankImage,blankImage,blankImage,blankImage,hockeystick,,,,,,,,,,,,0,59,59,235,,,,,,,,,,,,,,,,,,,,,,,,,,,,,,,,,,,465.38234250000096,466.3977914999996,466.36438690000796,466.9787165000016,466.9787165000016,None,468.441012700001,None,right,0.769584699999541,468.441012700001,None,469.235903400011,None,right,0.7431647999910638,469.235903400011,None,,,,,,,,,,,,,,,,,,,,,,,PPT20,001,2022-06-30_16h08.59.712,ABstudy,2022.1.4,59.95347610075481,
AB,Lag1_T1A_T2P,1,A,P,7,8,6,5,13,Ant,Did you see the Ant?,0.12,0.016,JPG\,rice,watermelon01,tableknife02,scarf,computerkeyboard02,cauliflower01,battery02b,stapler03b,book01b,sandal,sponge01,microscope,tomato01,blankImage,blankImage,blankImage,blankImage,sandcastle,,,,,,,,,,,,0,60,60,242,,,,,,,,,,,,,,,,,,,,,,,,,,,,,,,,,,,470.01948360000097,471.01922300001024,471.00251720000233,471.65803370000503,471.65803370000503,None,473.14742470000056,None,right,0.6715562999888789,473.14742470000056,None,473.8390255000122,None,right,0.2512581999908434,473.8390255000122,None,,,,,,,,,,,,,,,,,,,,,,,PPT20,001,2022-06-30_16h08.59.712,ABstudy,2022.1.4,59.95347610075481,
AB,Lag1_T1P_T2P,1,P,P,8,9,7,3,12,apron,Did you see the apron?,0.12,0.016,JPG\,avocado01,tambourine02,match,cauliflower01,paintbrush01,clock01a,pig,apron,stapler03a,cellphone,watch02a,pear01,blankImage,blankImage,blankImage,blankImage,blankImage,apron,,,,,,,,,,,,0,61,61,32,,,,,,,,,,,,,,,,,,,,,,,,,,,,,,,,,,,474.12665910000214,475.14006830001017,475.1235766000027,475.697210000013,475.697210000013,None,477.15306840000267,None,left,0.9291387999837752,477.15306840000267,None,478.10941390000517,None,right,0.4527807999838842,478.10941390000517,None,,,,,,,,,,,,,,,,,,,,,,,PPT20,001,2022-06-30_16h08.59.712,ABstudy,2022.1.4,59.95347610075481,
AB,Lag1_T1P_T2P,1,P,P,7,8,6,5,13,disco ball,Did you see the disco ball?,0.12,0.016,JPG\,candle01,paintbrush01,scissors01,fan,microscope,toothbrush03b,discoball,stapler03b,teabag,pencil01,lemon02,ashtray01,shirt02,blankImage,blankImage,blankImage,blankImage,discoball,,,,,,,,,,,,0,62,62,60,,,,,,,,,,,,,,,,,,,,,,,,,,,,,,,,,,,478.5963294000103,479.6109684000112,479.59428540000226,480.1933391000057,480.1933391000057,None,481.72923260000243,None,left,0.7376541999983601,481.72923260000243,None,482.49745450000046,None,right,0.2814584999869112,482.49745450000046,None,,,,,,,,,,,,,,,,,,,,,,,PPT20,001,2022-06-30_16h08.59.712,ABstudy,2022.1.4,59.95347610075481,
AB,Lag1_T1P_T2P,1,P,P,5,6,4,3,9,camel,Did you see the camel?,0.12,0.016,JPG\,iron01b,brick,broccoli01a,balloon01b,dromedary,stapler05,sandal,teabag,scissors01,blankImage,blankImage,blankImage,blankImage,blankImage,blankImage,blankImage,blankImage,dromedary,,,,,,,,,,,,0,63,63,11,,,,,,,,,,,,,,,,,,,,,,,,,,,,,,,,,,,482.802016600006,483.81548110001313,483.79873310000403,484.36714310001116,484.36714310001116,None,485.49354250000033,None,left,0.7646789999853354,485.49354250000033,None,486.2855707000126,None,right,0.24510329999611713,486.2855707000126,None,,,,,,,,,,,,,,,,,,,,,,,PPT20,001,2022-06-30_16h08.59.712,ABstudy,2022.1.4,59.95347610075481,
AB,Lag5_T1A_T2P,5,A,P,7,12,6,4,16,flower,Did you see the flower?,0.12,0.016,JPG\,printer02,envelope03a,potato02b,calculator01,tableknife02,cigarette,ashtray01,pig,broom01,greenolive,candle08b,stapler03a,strawberry,candle01,foosballtable,tennisball01b,blankImage,calendar,,,,,,,,,,,,0,64,64,282,,,,,,,,,,,,,,,,,,,,,,,,,,,,,,,,,,,486.5553724000056,487.56899830000475,487.55231430000276,488.22414879999997,488.22414879999997,None,490.04411170000094,None,right,0.8712716999871191,490.04411170000094,None,490.93931470000825,None,right,0.2080639999912819,490.93931470000825,None,,,,,,,,,,,,,,,,,,,,,,,PPT20,001,2022-06-30_16h08.59.712,ABstudy,2022.1.4,59.95347610075481,
AB,Lag5_T1P_T2P,5,P,P,5,10,4,5,15,hockey puck,Did you see the hockey puck?,0.12,0.016,JPG\,chain01,pen04b,birthdaycandle,watermelon01,hockeypuck,scissors01,measuringcup01,candle01,hammer01,stapler06,ashtray01,feather03a,sewingmachine01a,thermometer02b,alligator,blankImage,blankImage,hockeypuck,,,,,,,,,,,,0,65,65,110,,,,,,,,,,,,,,,,,,,,,,,,,,,,,,,,,,,491.1801575999998,492.1904527000006,492.1737737000076,492.7433288000029,492.7433288000029,None,494.4941465000011,None,left,0.6129380999918794,494.4941465000011,None,495.12646500000847,None,left,0.1884693000029074,495.12646500000847,None,,,,,,,,,,,,,,,,,,,,,,,PPT20,001,2022-06-30_16h08.59.712,ABstudy,2022.1.4,59.95347610075481,
AB,Lag5_T1P_T2P,5,P,P,5,10,4,5,15,funnel,Did you see the funnel?,0.12,0.016,JPG\,pineapple01a,tennisball01b,computerkeyboard02,feather03a,funnel,acorn,violin,blueberry01,medal02b,stapler01,greenolive,screwdriver04b,potato02b,fork03c,cymbal,blankImage,blankImage,funnel,,,,,,,,,,,,0,66,66,109,,,,,,,,,,,,,,,,,,,,,,,,,,,,,,,,,,,495.3457058000058,496.36093300000357,496.3275649000134,496.90898770000786,496.90898770000786,None,498.7004827000055,None,right,0.9579982999857748,498.7004827000055,None,499.6808394000109,None,right,0.28943879998405464,499.6808394000109,None,,,,,,,,,,,,,,,,,,,,,,,PPT20,001,2022-06-30_16h08.59.712,ABstudy,2022.1.4,59.95347610075481,
AB,Lag5_T1P_T2A,5,P,A,7,12,6,5,17,corn,Did you see the corn?,0.12,0.016,JPG\,avocado01,pingpongpaddle01c,match,cauliflower01,paintbrush01,clock01a,corn02,cd,balloon01b,cellphone,watch02a,pear01,toaster01,sponge01,orange,blueberry01,blankImage,corn02,,,,,,,,,,,,0,67,67,210,,,,,,,,,,,,,,,,,,,,,,,,,,,,,,,,,,,500.00008420000086,501.0155081000121,500.9821191000083,501.6039302999998,501.6039302999998,None,503.54278570000315,None,left,0.7401035999937449,503.54278570000315,None,504.3023593000107,None,right,0.19653429999016225,504.3023593000107,None,,,,,,,,,,,,,,,,,,,,,,,PPT20,001,2022-06-30_16h08.59.712,ABstudy,2022.1.4,59.95347610075481,
AB,Lag1_T1P_T2A,1,P,A,6,7,5,5,12,Tombstone,Did you see the Tombstone?,0.12,0.016,JPG\,cigarette,ashtray01,envelope03a,sandal,chain01,tombstone,broccoli01a,tomato01,dandelion,candle01,lemon02,button01,blankImage,blankImage,blankImage,blankImage,blankImage,tombstone,,,,,,,,,,,,0,68,68,196,,,,,,,,,,,,,,,,,,,,,,,,,,,,,,,,,,,504.52172319999954,505.53707230000873,505.503746900009,506.07078470000124,506.07078470000124,None,507.62286490001134,None,left,0.6839472999854479,507.62286490001134,None,508.3236823000043,None,right,0.23088789999019355,508.3236823000043,None,,,,,,,,,,,,,,,,,,,,,,,PPT20,001,2022-06-30_16h08.59.712,ABstudy,2022.1.4,59.95347610075481,
AB,Lag5_T1P_T2P,5,P,P,6,11,5,5,16,scooter,Did you see the scooter?,0.12,0.016,JPG\,thermometer02b,candle08b,comb02a,toothbrush03b,brick,scooter,key01,pineapple01a,candy,birthdaycandle,stapler04b,canoftennisballs,teabag,medal02b,balloon01b,banana01,blankImage,scooter,,,,,,,,,,,,0,69,69,118,,,,,,,,,,,,,,,,,,,,,,,,,,,,,,,,,,,508.5753148000076,509.57396550000703,509.5576732000045,510.139156300007,510.139156300007,None,512.1196087999997,None,left,0.3629398999910336,512.1196087999997,None,512.5108169000014,None,left,0.22764209998422302,512.5108169000014,None,,,,,,,,,,,,,,,,,,,,,,,PPT20,001,2022-06-30_16h08.59.712,ABstudy,2022.1.4,59.95347610075481,
AB,Lag1_T1P_T2P,1,P,P,8,9,7,5,14,bullet,Did you see the bullet?,0.12,0.016,JPG\,measuringcup01,dice05a,greenolive,lipstick02a,feather03a,balloon01b,lighter01,bullet,stapler04b,plate01b,microscope,brick,thermometer02b,screw02,blankImage,blankImage,blankImage,bullet,,,,,,,,,,,,0,70,70,57,,,,,,,,,,,,,,,,,,,,,,,,,,,,,,,,,,,512.7652207000065,513.7788903000037,513.7634601000027,514.4264120000007,514.3462479000009,None,516.0343174000009,None,left,0.3678834999882383,516.0343174000009,None,516.433036900009,None,left,0.20976089999021497,516.433036900009,None,,,,,,,,,,,,,,,,,,,,,,,PPT20,001,2022-06-30_16h08.59.712,ABstudy,2022.1.4,59.95347610075481,
AB,Lag1_T1P_T2P,1,P,P,5,6,4,5,11,shark,Did you see the shark?,0.12,0.016,JPG\,cucumber,sponge01,alligator,pear01,greatwhiteshark,stapler06,clock04,battery02b,fork03c,binoculars01b,mushroom01,blankImage,blankImage,blankImage,blankImage,blankImage,blankImage,greatwhiteshark,,,,,,,,,,,,0,71,71,84,,,,,,,,,,,,,,,,,,,,,,,,,,,,,,,,,,,516.6703339000087,517.6823277000076,517.6656233000103,518.2449584000133,518.2449584000133,None,519.5917815000139,None,left,0.6822828000003938,519.5917815000139,None,520.301211900005,None,right,0.16670109999540728,520.301211900005,None,,,,,,,,,,,,,,,,,,,,,,,PPT20,001,2022-06-30_16h08.59.712,ABstudy,2022.1.4,59.95347610075481,
AB,Lag1_T1P_T2P,1,P,P,8,9,7,4,13,Bird House,Did you see the Bird House?,0.12,0.016,JPG\,toiletpaper01a,mushroom01,medal02b,sandal,rice,cd,feather03a,birdhouse,stapler01,garlic01a,toaster01,belt02a,cigarette,blankImage,blankImage,blankImage,blankImage,birdhouse,,,,,,,,,,,,0,72,72,77,,,,,,,,,,,,,,,,,,,,,,,,,,,,,,,,,,,520.4893494000135,521.5026495000056,521.4859358000103,522.0684700000129,522.0684700000129,None,523.6700939000002,None,left,0.39612039997882675,523.6700939000002,None,524.0891142000037,None,left,0.19362399997771718,524.0891142000037,None,,,,,,,,,,,,,,,,,,,,,,,PPT20,001,2022-06-30_16h08.59.712,ABstudy,2022.1.4,59.95347610075481,
AB,Lag1_T1A_T2P,1,A,P,8,9,7,4,13,Christmas tree,Did you see the Christmas tree?,0.12,0.016,JPG\,broom01,globe,cellphone,tableknife02,cauliflower01,scissors01,ring01,alligator,stapler03a,toaster01,cigarette,grape01,microscope,blankImage,blankImage,blankImage,blankImage,windmill,,,,,,,,,,,,0,73,73,247,,,,,,,,,,,,,,,,,,,,,,,,,,,,,,,,,,,524.3060038000112,525.306605500009,525.2899646000005,525.8642224000068,525.8642224000068,None,527.4789627999999,None,right,0.8111937999929069,527.4789627999999,None,528.310140600006,None,left,0.23612709999724757,528.310140600006,None,,,,,,,,,,,,,,,,,,,,,,,PPT20,001,2022-06-30_16h08.59.712,ABstudy,2022.1.4,59.95347610075481,
AB,Lag5_T1P_T2P,5,P,P,5,10,4,3,13,bathtub,Did you see the bathtub?,0.12,0.016,JPG\,belt02a,sunglasses04,computerkeyboard02,cherry01,bathtub,eraser,watch02a,dice05a,blueberry01,stapler04b,match,leaf02a,iron01b,blankImage,blankImage,blankImage,blankImage,bathtub,,,,,,,,,,,,0,74,74,103,,,,,,,,,,,,,,,,,,,,,,,,,,,,,,,,,,,528.580355500002,529.594302700003,529.5775974000135,530.1424041000137,530.1424041000137,None,531.7096141000075,None,right,0.957025399984559,531.7096141000075,None,532.6970853000093,None,left,0.19370199998957105,532.6970853000093,None,,,,,,,,,,,,,,,,,,,,,,,PPT20,001,2022-06-30_16h08.59.712,ABstudy,2022.1.4,59.95347610075481,
AB,Lag5_T1A_T2A,5,A,A,5,10,4,5,15,flower,Did you see the flower?,0.12,0.016,JPG\,clock01a,cellphone,toaster01,toothbrush03b,cauliflower01,microscope,comb02a,paintbrush01,scarf,clock04,sponge01,iron01b,watch02a,celery,ring01,blankImage,blankImage,stepladder,,,,,,,,,,,,0,75,75,303,,,,,,,,,,,,,,,,,,,,,,,,,,,,,,,,,,,532.916424400013,533.9316969000065,533.8983196000045,534.4888206000032,534.4888206000032,None,536.2963130000135,None,right,0.8825986000010744,536.2963130000135,None,537.2029641000117,None,left,1.0162499999860302,537.2029641000117,None,,,,,,,,,,,,,,,,,,,,,,,PPT20,001,2022-06-30_16h08.59.712,ABstudy,2022.1.4,59.95347610075481,
AB,Lag5_T1P_T2P,5,P,P,8,13,7,5,18,Ping pong Table,Did you see the Ping pong Table?,0.12,0.016,JPG\,shirt02,match,screw02,foosballtable,blueberry01,pineapple01a,sewingmachine01a,pingpongtable,button01,comb02a,dice05a,measuringcup01,stapler04b,printer02,carrot01,watermelon01,blankImage,pingpongtable,,,,,,,,,,,,0,76,76,152,,,,,,,,,,,,,,,,,,,,,,,,,,,,,,,,,,,538.2491021000023,539.2704071000044,539.2228455000004,539.8974882000039,539.8112059000123,None,541.7323961000075,None,left,0.4301695999893127,541.7323961000075,None,542.1898144000006,None,left,0.18910129998403136,542.1898144000006,None,,,,,,,,,,,,,,,,,,,,,,,PPT20,001,2022-06-30_16h08.59.712,ABstudy,2022.1.4,59.95347610075481,
AB,Lag5_T1P_T2A,5,P,A,6,11,5,3,14,toy truck,Did you see the toy truck?,0.12,0.016,JPG\,globe,belt02a,sponge01,violin,fork03c,bluecheese,clock01a,microscope,balloon01b,scarf,teabag,pen04b,brick,brownsugar,blankImage,blankImage,blankImage,bluecheese,,,,,,,,,,,,0,77,77,204,,,,,,,,,,,,,,,,,,,,,,,,,,,,,,,,,,,542.4104491000035,543.4248881000094,543.3911084000138,543.9818327000103,543.9818327000103,None,545.6348725999997,None,right,0.5998360999801662,545.6348725999997,None,546.263096300012,None,right,0.16412729998410214,546.263096300012,None,,,,,,,,,,,,,,,,,,,,,,,PPT20,001,2022-06-30_16h08.59.712,ABstudy,2022.1.4,59.95347610075481,
AB,Lag5_T1A_T2P,5,A,P,5,10,4,5,15,shower,Did you see the shower?,0.12,0.016,JPG\,sewingmachine01a,thermometer02b,sponge01,eraser,broccoli01a,fork03c,pizza,violin,belt02a,stapler04b,pineapple01a,tennisball01b,dandelion,cauliflower01,lemon02,blankImage,blankImage,redfox,,,,,,,,,,,,0,78,78,271,,,,,,,,,,,,,,,,,,,,,,,,,,,,,,,,,,,546.448037500013,547.4619646000065,547.4452469000098,548.0378326000064,548.0378326000064,None,549.8876100000052,None,right,0.8747239999793237,549.8876100000052,None,550.7821074000094,None,right,0.18015299997932743,550.7821074000094,None,,,,,,,,,,,,,,,,,,,,,,,PPT20,001,2022-06-30_16h08.59.712,ABstudy,2022.1.4,59.95347610075481,
AB,Lag5_T1P_T2P,5,P,P,6,11,5,5,16,Car,Did you see the Car?,0.12,0.016,JPG\,leaf02a,apple07,cd,pineapple01a,envelope03a,car,pig,canoftennisballs,rice,feather03a,stapler03a,balloon01b,avocado01,calculator01,watermelon01,teabag,blankImage,car,,,,,,,,,,,,0,79,79,127,,,,,,,,,,,,,,,,,,,,,,,,,,,,,,,,,,,550.9871497000131,552.0006700000085,551.9852272000135,552.7988593000046,552.6941768000106,None,554.5161418000062,None,left,0.34995219999109395,554.5161418000062,None,554.8858389000088,None,left,0.20452619998832233,554.8858389000088,None,,,,,,,,,,,,,,,,,,,,,,,PPT20,001,2022-06-30_16h08.59.712,ABstudy,2022.1.4,59.95347610075481,
AB,Lag1_T1P_T2P,1,P,P,6,7,5,3,10,windmill,Did you see the windmill?,0.12,0.016,JPG\,pizza,printer02,medal02b,spoon01,grape01,windmill,stapler04b,watermelon01,celery,battery02b,blankImage,blankImage,blankImage,blankImage,blankImage,blankImage,blankImage,windmill,,,,,,,,,,,,0,80,80,75,,,,,,,,,,,,,,,,,,,,,,,,,,,,,,,,,,,555.1219235000026,556.1372822000121,556.1038471000065,556.7279175000003,556.7279175000003,None,557.9626155000005,None,left,0.47211039999092463,557.9626155000005,None,558.4558904000005,None,left,0.1547353999922052,558.4558904000005,None,,,,,,,,,,,,,,,,,,,,,,,PPT20,001,2022-06-30_16h08.59.712,ABstudy,2022.1.4,59.95347610075481,
AB,Lag5_T1P_T2P,5,P,P,5,10,4,4,14,License Plate,Did you see the License Plate?,0.12,0.016,JPG\,toaster01,chain01,sponge01,baseball01a,licenseplate,belt02a,book01b,iron01b,grape01,stapler06,celery,onion,mushroom01,toothbrush03b,blankImage,blankImage,blankImage,licenseplate,,,,,,,,,,,,0,81,81,120,,,,,,,,,,,,,,,,,,,,,,,,,,,,,,,,,,,558.6436823000113,559.6572292000055,559.6405592000083,560.228632000013,560.228632000013,None,561.938121500003,None,left,0.25688969998736866,561.938121500003,None,562.2283198000077,None,left,0.14958739998110104,562.2283198000077,None,,,,,,,,,,,,,,,,,,,,,,,PPT20,001,2022-06-30_16h08.59.712,ABstudy,2022.1.4,59.95347610075481,
AB,Lag5_T1P_T2P,5,P,P,7,12,6,4,16,Recycling bin,Did you see the Recycling bin?,0.12,0.016,JPG\,broccoli01a,scissors01,toothbrush03b,foosballtable,iron01b,brick,recyclingbin,toiletpaper01a,cd,garlic01a,carrot01,stapler03a,envelope03a,battery02b,balloon01b,broom01,blankImage,recyclingbin,,,,,,,,,,,,0,82,82,157,,,,,,,,,,,,,,,,,,,,,,,,,,,,,,,,,,,562.4116417000041,563.4110240000009,563.3943178000045,563.9720291000122,563.9720291000122,None,565.9345505000092,None,right,0.6997847999882651,565.9345505000092,None,566.6641772000003,None,left,0.16202099998190533,566.6641772000003,None,,,,,,,,,,,,,,,,,,,,,,,PPT20,001,2022-06-30_16h08.59.712,ABstudy,2022.1.4,59.95347610075481,
AB,Lag5_T1A_T2P,5,A,P,8,13,7,4,17,wrench,Did you see the wrench?,0.12,0.016,JPG\,clock01a,grape01,plate01b,key01,screwdriver04b,feather03a,pineapple01a,iron01b,toothbrush03b,comb02a,broom01,toaster01,stapler05,garlic01a,match,ashtray01,blankImage,seal,,,,,,,,,,,,0,83,83,272,,,,,,,,,,,,,,,,,,,,,,,,,,,,,,,,,,,566.8609068000078,567.8655821000139,567.8326495000074,568.4161022000044,568.4161022000044,None,570.4037424000126,None,right,0.6080620999855455,570.4037424000126,None,571.0352463000017,None,left,0.18342229998961557,571.0352463000017,None,,,,,,,,,,,,,,,,,,,,,,,PPT20,001,2022-06-30_16h08.59.712,ABstudy,2022.1.4,59.95347610075481,
AB,Lag1_T1P_T2A,1,P,A,8,9,7,5,14,Parrot,Did you see the Parrot?,0.12,0.016,JPG\,candy,brownsugar,dice05a,cd,sock01a,blueberry01,button01,parrot01,feather03a,grape01,dandelion,scissors01,watch02a,candle08b,blankImage,blankImage,blankImage,parrot01,,,,,,,,,,,,0,84,84,192,,,,,,,,,,,,,,,,,,,,,,,,,,,,,,,,,,,571.2399383000011,572.2534108000109,572.2202299000055,572.7908860000025,572.7908860000025,None,574.5507949000021,None,left,0.7795315999974264,574.5507949000021,None,575.3705595000065,None,right,0.15275679998740088,575.3705595000065,None,,,,,,,,,,,,,,,,,,,,,,,PPT20,001,2022-06-30_16h08.59.712,ABstudy,2022.1.4,59.95347610075481,
AB,Lag5_T1P_T2P,5,P,P,8,13,7,4,17,lamp,Did you see the lamp?,0.12,0.016,JPG\,globe,broccoli01a,binoculars01b,iron01b,avocado01,dandelion,pineapple01a,floorlamp,fan,pizza,celery,blueberry01,stapler01,dice05a,watermelon01,candy,blankImage,floorlamp,,,,,,,,,,,,0,85,85,99,,,,,,,,,,,,,,,,,,,,,,,,,,,,,,,,,,,575.6110563000111,576.6245033000014,576.6078640000051,577.2079215000122,577.2079215000122,None,579.0331977000023,None,left,0.43274779997591395,579.0331977000023,None,579.4935674000008,None,left,0.1734392999933334,579.4935674000008,None,,,,,,,,,,,,,,,,,,,,,,,PPT20,001,2022-06-30_16h08.59.712,ABstudy,2022.1.4,59.95347610075481,
AB,Lag5_T1P_T2P,5,P,P,7,12,6,3,15,mail box,Did you see the mail box?,0.12,0.016,JPG\,key01,apple07,ring01,leaf02a,hammer01,tableknife02,postalmailbox01,sponge01,baseball01a,thermometer02b,celery,stapler06,grape01,cucumber,tennisball01b,blankImage,blankImage,postalmailbox01,,,,,,,,,,,,0,86,86,113,,,,,,,,,,,,,,,,,,,,,,,,,,,,,,,,,,,579.6967650000006,580.7115508000134,580.6781335000123,581.2565930000128,581.2565930000128,None,583.2068463000032,None,left,0.46776699998008553,583.2068463000032,None,583.6983937000041,None,left,0.1597217999806162,583.6983937000041,None,,,,,,,,,,,,,,,,,,,,,,,PPT20,001,2022-06-30_16h08.59.712,ABstudy,2022.1.4,59.95347610075481,
AB,Lag1_T1P_T2P,1,P,P,8,9,7,4,13,crab,Did you see the crab?,0.12,0.016,JPG\,candle01,fork03c,plate01b,violin,computerkeyboard02,candy,calculator01,crab01,stapler04b,sock01a,teabag,banana01,cd,blankImage,blankImage,blankImage,blankImage,crab01,,,,,,,,,,,,0,87,87,37,,,,,,,,,,,,,,,,,,,,,,,,,,,,,,,,,,,583.8855378000007,584.8992664000107,584.8825275000127,585.4658038000052,585.4658038000052,None,587.0804197000107,None,left,0.6336700999818277,587.0804197000107,None,587.7364562000002,None,right,0.1456546999834245,587.7364562000002,None,,,,,,,,,,,,,,,,,,,,,,,PPT20,001,2022-06-30_16h08.59.712,ABstudy,2022.1.4,59.95347610075481,
AB,Lag5_T1A_T2A,5,A,A,7,12,6,4,16,Eye,Did you see the Eye?,0.12,0.016,JPG\,rice,watermelon01,tableknife02,scarf,computerkeyboard02,cauliflower01,battery02b,binoculars01b,book01b,sandal,sponge01,microscope,tomato01,fork03c,thermometer02b,apple07,blankImage,scooter,,,,,,,,,,,,0,88,88,302,,,,,,,,,,,,,,,,,,,,,,,,,,,,,,,,,,,587.9128228000045,588.920737700013,588.9051829000091,589.5725949000043,589.4975169000099,None,591.5283287000057,None,right,0.9697085999941919,591.5283287000057,None,592.5242993000138,None,right,0.38954479998210445,592.5242993000138,None,,,,,,,,,,,,,,,,,,,,,,,PPT20,001,2022-06-30_16h08.59.712,ABstudy,2022.1.4,59.95347610075481,
AB,Lag1_T1P_T2P,1,P,P,7,8,6,3,11,tree,Did you see the tree?,0.12,0.016,JPG\,pear01,clock01a,cymbal,match,ashtray01,globe,tree,stapler03b,lemon02,pen04b,dice05a,blankImage,blankImage,blankImage,blankImage,blankImage,blankImage,tree,,,,,,,,,,,,0,89,89,51,,,,,,,,,,,,,,,,,,,,,,,,,,,,,,,,,,,592.9458398999996,593.958431600011,593.9417752000008,594.5317761000042,594.5317761000042,None,595.8945565000031,None,left,0.7398077999969246,595.8945565000031,None,596.6611735000042,None,right,0.1571638999885181,596.6611735000042,None,,,,,,,,,,,,,,,,,,,,,,,PPT20,001,2022-06-30_16h08.59.712,ABstudy,2022.1.4,59.95347610075481,
AB,Lag5_T1P_T2P,5,P,P,7,12,6,4,16,Bird feeder,Did you see the Bird feeder?,0.12,0.016,JPG\,watermelon01,banana01,ring01,pencil01,tomato01,speaker04,birdfeeder,thermometer02b,key01,foosballtable,violin,stapler06,clock04,dice05a,pen04b,mushroom01,blankImage,birdfeeder,,,,,,,,,,,,0,90,90,164,,,,,,,,,,,,,,,,,,,,,,,,,,,,,,,,,,,596.8519152000081,597.8621305000124,597.8455570000078,598.4275143000123,598.4275143000123,None,600.3732599000068,None,right,0.4453862999944249,600.3732599000068,None,600.8482636000117,None,left,0.1862492999935057,600.8482636000117,None,,,,,,,,,,,,,,,,,,,,,,,PPT20,001,2022-06-30_16h08.59.712,ABstudy,2022.1.4,59.95347610075481,
AB,Lag5_T1P_T2P,5,P,P,8,13,7,5,18,skis,Did you see the skis?,0.12,0.016,JPG\,tennisball01b,paintbrush01,medal02b,apple07,speaker04,iron01b,avocado01,downhillski,belt02a,toiletpaper01a,watermelon01,candle01,stapler01,cymbal,ashtray01,screwdriver04b,blankImage,downhillski,,,,,,,,,,,,0,91,91,106,,,,,,,,,,,,,,,,,,,,,,,,,,,,,,,,,,,601.0678993000038,602.0828567999997,602.0495588000049,602.6323162000044,602.6323162000044,None,604.55096220001,None,left,0.39541659998940304,604.55096220001,None,604.9695720000018,None,left,0.16107089997967705,604.9695720000018,None,,,,,,,,,,,,,,,,,,,,,,,PPT20,001,2022-06-30_16h08.59.712,ABstudy,2022.1.4,59.95347610075481,
AB,Lag5_T1P_T2P,5,P,P,5,10,4,3,13,lollipop,Did you see the lollipop?,0.12,0.016,JPG\,brownsugar,candle01,match,printer02,lollipop04,balloon01b,belt02a,potato02b,computerkeyboard02,stapler03a,rice,mushroom01,pencil01,blankImage,blankImage,blankImage,blankImage,lollipop04,,,,,,,,,,,,0,92,92,112,,,,,,,,,,,,,,,,,,,,,,,,,,,,,,,,,,,605.2170452999999,606.2213008000108,606.2058804000117,606.724140300008,606.7079517000093,None,608.2863979000103,None,left,0.3806802999897627,608.2863979000103,None,608.703854300009,None,left,0.13044739999168087,608.703854300009,None,,,,,,,,,,,,,,,,,,,,,,,PPT20,001,2022-06-30_16h08.59.712,ABstudy,2022.1.4,59.95347610075481,
AB,Lag5_T1P_T2P,5,P,P,8,13,7,5,18,hand,Did you see the hand?,0.12,0.016,JPG\,foosballtable,candy,envelope03a,microscope,pencil01,leaf02a,scissors01,hand01b,grape01,dandelion,pineapple01a,hammer01,stapler03a,thermometer02b,ring01,sewingmachine01a,blankImage,hand01b,,,,,,,,,,,,0,93,93,131,,,,,,,,,,,,,,,,,,,,,,,,,,,,,,,,,,,608.8654927000025,609.8745579000097,609.8591051000112,610.3611732000136,610.3611732000136,None,612.4167034000129,None,right,0.5292015000013635,612.4167034000129,None,612.9773151000118,None,right,1.1775928999850294,612.9773151000118,None,,,,,,,,,,,,,,,,,,,,,,,PPT20,001,2022-06-30_16h08.59.712,ABstudy,2022.1.4,59.95347610075481,
AB,Lag1_T1P_T2A,1,P,A,8,9,7,5,14,Fridge,Did you see the Fridge?,0.12,0.016,JPG\,cherry01,cymbal,envelope03a,foosballtable,shirt02,cellphone,sewingmachine01a,fridge,battery02b,apple07,pencil01,screwdriver04b,strawberry,sunglasses04,blankImage,blankImage,blankImage,fridge,,,,,,,,,,,,0,94,94,173,,,,,,,,,,,,,,,,,,,,,,,,,,,,,,,,,,,614.1881017000123,615.1961065000069,615.1793864000065,615.809879700013,615.809879700013,None,617.4927263000136,None,left,0.7010209999862127,617.4927263000136,None,618.2156959000131,None,right,0.1622326999931829,618.2156959000131,None,,,,,,,,,,,,,,,,,,,,,,,PPT20,001,2022-06-30_16h08.59.712,ABstudy,2022.1.4,59.95347610075481,
AB,Lag5_T1P_T2A,5,P,A,6,11,5,5,16,World map,Did you see the World map?,0.12,0.016,JPG\,cigarette,pig,banana01,strawberry,clock01a,worldmap,spoon01,blueberry01,battery02b,pineapple01a,chain01,paintbrush01,candy,pen04b,teabag,birthdaycandle,blankImage,worldmap,,,,,,,,,,,,0,95,95,205,,,,,,,,,,,,,,,,,,,,,,,,,,,,,,,,,,,618.425866000005,619.4334805000108,619.4166916000104,619.9907310000126,619.9907310000126,None,621.8369234000129,None,right,1.1180174999899464,621.8369234000129,None,622.9869872000127,None,right,0.29507349999039434,622.9869872000127,None,,,,,,,,,,,,,,,,,,,,,,,PPT20,001,2022-06-30_16h08.59.712,ABstudy,2022.1.4,59.95347610075481,
AB,Lag5_T1P_T2A,5,P,A,8,13,7,4,17,knife,Did you see the knife?,0.12,0.016,JPG\,lighter01,hammer01,spoon01,chain01,cymbal,sponge01,lipstick02a,knife03,pig,watermelon01,cauliflower01,lemon02,broccoli01a,tableknife02,tennisball01b,toothbrush03b,blankImage,knife03,,,,,,,,,,,,0,96,96,214,,,,,,,,,,,,,,,,,,,,,,,,,,,,,,,,,,,623.3068532000034,624.3216375000047,624.2882482000132,624.8666130000056,624.8666130000056,None,626.8163203000004,None,left,0.8256452999921748,626.8163203000004,None,627.6583470000041,None,right,0.2795888999826275,627.6583470000041,None,,,,,,,,,,,,,,,,,,,,,,,PPT20,001,2022-06-30_16h08.59.712,ABstudy,2022.1.4,59.95347610075481,
AB,Lag5_T1P_T2A,5,P,A,5,10,4,4,14,rocket,Did you see the rocket?,0.12,0.016,JPG\,fan,tomato01,candy,screwdriver04b,spacerocket,cd,thermometer02b,apple07,button01,plate01b,brownsugar,lighter01,clock01a,envelope03a,blankImage,blankImage,blankImage,spacerocket,,,,,,,,,,,,0,97,97,226,,,,,,,,,,,,,,,,,,,,,,,,,,,,,,,,,,,627.9627881000051,628.9762984000117,628.9596313000075,629.6142884000001,629.5365646999999,None,631.24089310001,None,right,1.0018407999887131,631.24089310001,None,632.2629666000139,None,right,0.3797457999899052,632.2629666000139,None,,,,,,,,,,,,,,,,,,,,,,,PPT20,001,2022-06-30_16h08.59.712,ABstudy,2022.1.4,59.95347610075481,
AB,Lag1_T1A_T2P,1,A,P,5,6,4,3,9,microphone,Did you see the microphone?,0.12,0.016,JPG\,hammer01,sponge01,toaster01,cherry01,feather03a,stapler06,measuringcup01,pencil01,tennisball01b,blankImage,blankImage,blankImage,blankImage,blankImage,blankImage,blankImage,blankImage,cactus,,,,,,,,,,,,0,98,98,230,,,,,,,,,,,,,,,,,,,,,,,,,,,,,,,,,,,632.7126356000081,633.7144798000081,633.6979510000092,634.2728164,634.2728164,None,635.3592295000126,None,right,1.130658299982315,635.3592295000126,None,636.5171044000017,None,left,0.18191339998156764,636.5171044000017,None,,,,,,,,,,,,,,,,,,,,,,,PPT20,001,2022-06-30_16h08.59.712,ABstudy,2022.1.4,59.95347610075481,
AB,Lag5_T1P_T2P,5,P,P,8,13,7,5,18,sock,Did you see the sock?,0.12,0.016,JPG\,thermometer02b,avocado01,scissors01,tennisball01b,medal02b,banana01,strawberry,athleticsock,potato02b,pineapple01a,microscope,cymbal,stapler03b,celery,garlic01a,sunglasses04,blankImage,athleticsock,,,,,,,,,,,,0,99,99,141,,,,,,,,,,,,,,,,,,,,,,,,,,,,,,,,,,,636.7198744000052,637.7350005000044,637.7016183000087,638.2805763000069,638.2805763000069,None,640.3103596000001,None,left,0.3561483999947086,640.3103596000001,None,640.6884145000076,None,left,0.15415579998807516,640.6884145000076,None,,,,,,,,,,,,,,,,,,,,,,,PPT20,001,2022-06-30_16h08.59.712,ABstudy,2022.1.4,59.95347610075481,
AB,Lag5_T1A_T2P,5,A,P,6,11,5,3,14,keys,Did you see the keys?,0.12,0.016,JPG\,pencil01,microscope,banana01,computerkeyboard02,celery,cellphone,scissors01,sock01a,book01b,onion,stapler03a,binoculars01b,baseball01a,iron01b,blankImage,blankImage,blankImage,treadmill,,,,,,,,,,,,0,100,100,275,,,,,,,,,,,,,,,,,,,,,,,,,,,,,,,,,,,640.8771299000073,641.8892913000018,641.8726430000097,642.483664600004,642.483664600004,None,644.1907834000012,None,right,0.8916612999892095,644.1907834000012,None,645.1092674000101,None,right,0.15009359999385197,645.1092674000101,None,,,,,,,,,,,,,,,,,,,,,,,PPT20,001,2022-06-30_16h08.59.712,ABstudy,2022.1.4,59.95347610075481,
AB,Lag5_T1P_T2P,5,P,P,8,13,7,4,17,surf board,Did you see the surf board?,0.12,0.016,JPG\,candy,brownsugar,dice05a,cd,sock01a,blueberry01,button01,surfboard,feather03a,grape01,dandelion,scissors01,stapler03b,candle08b,book01b,globe,blankImage,surfboard,,,,,,,,,,,,0,101,101,142,,,,,,,,,,,,,,,,,,,,,,,,,,,,,,,,,,,645.2784672000125,646.2775570000085,646.2620415000129,646.9116522000113,646.8393587000028,None,648.7739243000105,None,right,1.0840013999841176,648.7739243000105,None,649.8807893000048,None,left,0.14500079999561422,649.8807893000048,None,,,,,,,,,,,,,,,,,,,,,,,PPT20,001,2022-06-30_16h08.59.712,ABstudy,2022.1.4,59.95347610075481,
AB,Lag5_T1P_T2P,5,P,P,6,11,5,4,15,punching bag,Did you see the punching bag?,0.12,0.016,JPG\,foosballtable,cigarette,pen04b,birthdaycandle,hammer01,punchingbag,binoculars01b,chain01,potato02b,cauliflower01,stapler04b,ashtray01,scarf,cellphone,calculator01,blankImage,blankImage,punchingbag,,,,,,,,,,,,0,102,102,156,,,,,,,,,,,,,,,,,,,,,,,,,,,,,,,,,,,650.0537070999999,651.0652499999997,651.0485961000086,651.5488671000057,651.5488671000057,None,653.4785912000079,None,left,0.47593489999417216,653.4785912000079,None,653.9845010000136,None,left,0.1619541999825742,653.9845010000136,None,,,,,,,,,,,,,,,,,,,,,,,PPT20,001,2022-06-30_16h08.59.712,ABstudy,2022.1.4,59.95347610075481,
AB,Lag5_T1A_T2A,5,A,A,5,10,4,5,15,sword,Did you see the sword?,0.12,0.016,JPG\,pencil01,broccoli01a,button01,sponge01,watermelon01,lipstick02a,comb02a,fan,lighter01,sock01a,spoon01,blueberry01,belt02a,onion,grape01,blankImage,blankImage,parachute,,,,,,,,,,,,0,103,103,298,,,,,,,,,,,,,,,,,,,,,,,,,,,,,,,,,,,654.1702317000018,655.1856744000106,655.1523257000081,655.7522968000121,655.7522968000121,None,657.5799329000001,None,right,1.0144200999930035,657.5799329000001,None,658.6228344000119,None,right,0.30752279999433085,658.6228344000119,None,,,,,,,,,,,,,,,,,,,,,,,PPT20,001,2022-06-30_16h08.59.712,ABstudy,2022.1.4,59.95347610075481,
AB,Lag5_T1P_T2A,5,P,A,5,10,4,3,13,Totem Pole,Did you see the Totem Pole?,0.12,0.016,JPG\,canoftennisballs,banana01,scissors01,pig,totempole,leaf02a,pear01,sponge01,fork03c,tableknife02,balloon01b,match,toothbrush03b,blankImage,blankImage,blankImage,blankImage,totempole,,,,,,,,,,,,0,104,104,202,,,,,,,,,,,,,,,,,,,,,,,,,,,,,,,,,,,658.9628831000009,659.9739379000093,659.9574594000005,660.523093300013,660.523093300013,None,662.1645269,None,left,2.390686499988078,662.1645269,None,664.5782124000107,None,right,0.3120119999803137,664.5782124000107,None,,,,,,,,,,,,,,,,,,,,,,,PPT20,001,2022-06-30_16h08.59.712,ABstudy,2022.1.4,59.95347610075481,
AB,Lag5_T1P_T2A,5,P,A,6,11,5,5,16,fish,Did you see the fish?,0.12,0.016,JPG\,cucumber,ring01,lipstick02a,microscope,violin,redlionfish,celery,lighter01,cherry01,sewingmachine01a,belt02a,key01,binoculars01b,medal02b,watermelon01,dice05a,blankImage,redlionfish,,,,,,,,,,,,0,105,105,221,,,,,,,,,,,,,,,,,,,,,,,,,,,,,,,,,,,664.914300400007,665.9299640000099,665.8965337000118,666.5251007000043,666.5251007000043,None,668.47613000001,None,left,0.8783258999901591,668.47613000001,None,669.3836458000005,None,right,0.2027801999793155,669.3836458000005,None,,,,,,,,,,,,,,,,,,,,,,,PPT20,001,2022-06-30_16h08.59.712,ABstudy,2022.1.4,59.95347610075481,
AB,Lag5_T1A_T2P,5,A,P,5,10,4,4,14,mail box,Did you see the mail box?,0.12,0.016,JPG\,button01,celery,birthdaycandle,apple07,avocado01,tennisball01b,dice05a,teabag,clock01a,stapler05,tomato01,scarf,orange,battery02b,blankImage,blankImage,blankImage,jeep,,,,,,,,,,,,0,106,106,263,,,,,,,,,,,,,,,,,,,,,,,,,,,,,,,,,,,669.6213298000075,670.6346807000082,670.6181097000081,671.2019380000129,671.2019380000129,None,672.9691186000127,None,right,1.5691593999799807,672.9691186000127,None,674.5550475000055,None,left,0.7025066999922274,674.5550475000055,None,,,,,,,,,,,,,,,,,,,,,,,PPT20,001,2022-06-30_16h08.59.712,ABstudy,2022.1.4,59.95347610075481,
AB,Lag1_T1A_T2P,1,A,P,8,9,7,5,14,Wolf,Did you see the Wolf?,0.12,0.016,JPG\,carrot01,watch02a,clock04,microscope,toiletpaper01a,potato02b,alligator,ring01,stapler03b,watermelon01,cd,pencil01,measuringcup01,balloon01b,blankImage,blankImage,blankImage,dreamcatcher,,,,,,,,,,,,0,107,107,253,,,,,,,,,,,,,,,,,,,,,,,,,,,,,,,,,,,675.2913183000055,676.3067768000037,676.2734158000094,676.8488838000048,676.8488838000048,None,678.5899002000078,None,right,0.4520460999920033,678.5899002000078,None,679.0594043000019,None,left,0.1984653999825241,679.0594043000019,None,,,,,,,,,,,,,,,,,,,,,,,PPT20,001,2022-06-30_16h08.59.712,ABstudy,2022.1.4,59.95347610075481,
AB,Lag1_T1P_T2P,1,P,P,8,9,7,3,12,Fire hydrant,Did you see the Fire hydrant?,0.12,0.016,JPG\,foosballtable,candy,envelope03a,microscope,pencil01,leaf02a,scissors01,firehydrant,stapler01,dandelion,pineapple01a,hammer01,blankImage,blankImage,blankImage,blankImage,blankImage,firehydrant,,,,,,,,,,,,0,108,108,83,,,,,,,,,,,,,,,,,,,,,,,,,,,,,,,,,,,679.2815110000083,680.311294900006,680.2630638000119,680.7907761000097,680.7647232000018,None,682.30648140001,None,left,0.8317204999912065,682.30648140001,None,683.163978800003,None,left,0.16601729998365045,683.163978800003,None,,,,,,,,,,,,,,,,,,,,,,,PPT20,001,2022-06-30_16h08.59.712,ABstudy,2022.1.4,59.95347610075481,
AB,Lag1_T1P_T2A,1,P,A,8,9,7,5,14,Sausage,Did you see the Sausage?,0.12,0.016,JPG\,pencil01,broccoli01a,button01,sponge01,watermelon01,lipstick02a,comb02a,sausage,lighter01,sock01a,spoon01,blueberry01,belt02a,onion,blankImage,blankImage,blankImage,sausage,,,,,,,,,,,,0,109,109,175,,,,,,,,,,,,,,,,,,,,,,,,,,,,,,,,,,,683.3537903000106,684.3657454000058,684.3502137000032,685.0066563,684.9334738000034,None,686.6699445000122,None,left,0.8437485999893397,686.6699445000122,None,687.5351007000136,None,right,0.14659089998167474,687.5351007000136,None,,,,,,,,,,,,,,,,,,,,,,,PPT20,001,2022-06-30_16h08.59.712,ABstudy,2022.1.4,59.95347610075481,
AB,Lag5_T1P_T2P,5,P,P,8,13,7,5,18,pipe,Did you see the pipe?,0.12,0.016,JPG\,scissors01,ashtray01,garlic01a,medal02b,cigarette,candle08b,leaf02a,smokingpipe,cucumber,rice,toiletpaper01a,greenolive,stapler01,cellphone,tableknife02,spoon01,blankImage,smokingpipe,,,,,,,,,,,,0,110,110,138,,,,,,,,,,,,,,,,,,,,,,,,,,,,,,,,,,,687.7076642000029,688.719493800003,688.7027849000006,689.2671025000018,689.2671025000018,None,691.2259055000031,None,right,0.9361800999758998,691.2259055000031,None,692.1895657000132,None,left,0.14147849999426398,692.1895657000132,None,,,,,,,,,,,,,,,,,,,,,,,PPT20,001,2022-06-30_16h08.59.712,ABstudy,2022.1.4,59.95347610075481,
AB,Lag5_T1A_T2P,5,A,P,8,13,7,5,18,lollipop,Did you see the lollipop?,0.12,0.016,JPG\,watermelon01,banana01,ring01,pencil01,tomato01,speaker04,cucumber,thermometer02b,key01,foosballtable,violin,spoon01,stapler04b,dice05a,pen04b,mushroom01,blankImage,jeans01,,,,,,,,,,,,0,111,111,262,,,,,,,,,,,,,,,,,,,,,,,,,,,,,,,,,,,692.3614925000002,693.3740149000078,693.3572287000134,693.9416490000003,693.9416490000003,None,695.9078320000117,None,right,0.9978073999809567,695.9078320000117,None,696.9276640000026,None,left,0.15420619999349583,696.9276640000026,None,,,,,,,,,,,,,,,,,,,,,,,PPT20,001,2022-06-30_16h08.59.712,ABstudy,2022.1.4,59.95347610075481,
AB,Lag1_T1P_T2P,1,P,P,5,6,4,3,9,dolphin,Did you see the dolphin?,0.12,0.016,JPG\,pig,belt02a,rice,screwdriver04b,dolphin01,stapler05,candle08b,pear01,feather03a,blankImage,blankImage,blankImage,blankImage,blankImage,blankImage,blankImage,blankImage,dolphin01,,,,,,,,,,,,0,112,112,10,,,,,,,,,,,,,,,,,,,,,,,,,,,,,,,,,,,697.1758027000033,698.1790001000045,698.162160900014,698.6624907000078,698.6624907000078,None,699.7558389000042,None,left,0.7433434999838937,699.7558389000042,None,700.5311396000034,None,right,0.1599553999840282,700.5311396000034,None,,,,,,,,,,,,,,,,,,,,,,,PPT20,001,2022-06-30_16h08.59.712,ABstudy,2022.1.4,59.95347610075481,
AB,Lag1_T1P_T2A,1,P,A,5,6,4,5,11,Electric toothbrush,Did you see the Electric toothbrush?,0.12,0.016,JPG\,carrot01,greenolive,fork03c,chain01,electrictoothbrush01c,watermelon01,tableknife02,printer02,comb02a,toaster01,orange,blankImage,blankImage,blankImage,blankImage,blankImage,blankImage,electrictoothbrush01c,,,,,,,,,,,,0,113,113,186,,,,,,,,,,,,,,,,,,,,,,,,,,,,,,,,,,,700.7225360000011,701.7320628000016,701.7175711000018,702.3727960000106,702.2943102000136,None,703.6711291000101,None,left,0.6664216999924975,703.6711291000101,None,704.3703592000093,None,right,0.16761829997994937,704.3703592000093,None,,,,,,,,,,,,,,,,,,,,,,,PPT20,001,2022-06-30_16h08.59.712,ABstudy,2022.1.4,59.95347610075481,
AB,Lag1_T1P_T2P,1,P,P,8,9,7,4,13,mattress,Did you see the mattress?,0.12,0.016,JPG\,button01,celery,birthdaycandle,apple07,avocado01,tennisball01b,dice05a,mattress,stapler01,feather03a,tomato01,scarf,orange,blankImage,blankImage,blankImage,blankImage,mattress,,,,,,,,,,,,0,114,114,22,,,,,,,,,,,,,,,,,,,,,,,,,,,,,,,,,,,704.5703480000084,705.585839300009,705.5524955000001,706.130590700006,706.130590700006,None,707.7507400000031,None,left,0.971572099981131,707.7507400000031,None,708.7390807000047,None,right,0.1682750999898417,708.7390807000047,None,,,,,,,,,,,,,,,,,,,,,,,PPT20,001,2022-06-30_16h08.59.712,ABstudy,2022.1.4,59.95347610075481,
AB,Lag5_T1P_T2P,5,P,P,8,13,7,4,17,Accordion,Did you see the Accordion?,0.12,0.016,JPG\,toiletpaper01a,lipstick02a,potato02b,speaker04,globe,strawberry,carrot01,accordion01,sock01a,candle08b,pen04b,calculator01,stapler01,brick,pear01,fork03c,blankImage,accordion01,,,,,,,,,,,,0,115,115,162,,,,,,,,,,,,,,,,,,,,,,,,,,,,,,,,,,,708.9426369000139,709.9569378000015,709.9403219000087,710.5912972000078,710.5103235000133,None,712.5520631000109,None,left,0.3777549999940675,712.5520631000109,None,712.9601523000019,None,left,0.15392399998381734,712.9601523000019,None,,,,,,,,,,,,,,,,,,,,,,,PPT20,001,2022-06-30_16h08.59.712,ABstudy,2022.1.4,59.95347610075481,
AB,Lag5_T1P_T2A,5,P,A,5,10,4,3,13,fan,Did you see the fan?,0.12,0.016,JPG\,scissors01,grape01,mushroom01,toiletpaper01a,fanheater,pizza,cigarette,ashtray01,carrot01,pineapple01a,foosballtable,lipstick02a,teabag,blankImage,blankImage,blankImage,blankImage,fanheater,,,,,,,,,,,,0,116,116,220,,,,,,,,,,,,,,,,,,,,,,,,,,,,,,,,,,,713.1478810000117,714.1617289000133,714.1463246000058,714.8148088000016,714.7408924000047,None,716.3249620000133,None,left,0.5084093999757897,716.3249620000133,None,716.8637798000127,None,right,0.1615680999821052,716.8637798000127,None,,,,,,,,,,,,,,,,,,,,,,,PPT20,001,2022-06-30_16h08.59.712,ABstudy,2022.1.4,59.95347610075481,
AB,Lag5_T1P_T2P,5,P,P,7,12,6,5,17,tie,Did you see the tie?,0.12,0.016,JPG\,iron01b,orange,birthdaycandle,potato02b,cauliflower01,pencil01,tie02,candle08b,celery,tableknife02,pen04b,stapler06,ring01,rice,lemon02,tomato01,blankImage,tie02,,,,,,,,,,,,0,117,117,161,,,,,,,,,,,,,,,,,,,,,,,,,,,,,,,,,,,717.0494869000104,718.064936300012,718.0315549000079,718.6054119000037,718.6054119000037,None,720.6180963000079,None,left,0.5996882999897934,720.6180963000079,None,721.2348023000086,None,left,0.21457329999248032,721.2348023000086,None,,,,,,,,,,,,,,,,,,,,,,,PPT20,001,2022-06-30_16h08.59.712,ABstudy,2022.1.4,59.95347610075481,
AB,Lag1_T1P_T2P,1,P,P,5,6,4,5,11,beaver,Did you see the beaver?,0.12,0.016,JPG\,belt02a,sunglasses04,computerkeyboard02,cherry01,beaver,stapler03a,watch02a,dice05a,blueberry01,spoon01,match,blankImage,blankImage,blankImage,blankImage,blankImage,blankImage,beaver,,,,,,,,,,,,0,118,118,55,,,,,,,,,,,,,,,,,,,,,,,,,,,,,,,,,,,721.4706855000113,722.4700402000017,722.4545658000134,723.1006882000074,723.0288084000058,None,724.3729068000102,None,left,0.6609860999888042,724.3729068000102,None,725.0558069000108,None,right,0.1699870999873383,725.0558069000108,None,,,,,,,,,,,,,,,,,,,,,,,PPT20,001,2022-06-30_16h08.59.712,ABstudy,2022.1.4,59.95347610075481,
AB,Lag5_T1A_T2P,5,A,P,5,10,4,5,15,parachute,Did you see the parachute?,0.12,0.016,JPG\,binoculars01b,speaker04,sandal,envelope03a,plate01b,comb02a,battery02b,chain01,measuringcup01,stapler03b,medal02b,lamp04a,tennisball01b,pizza,cigarette,blankImage,blankImage,knee,,,,,,,,,,,,0,119,119,264,,,,,,,,,,,,,,,,,,,,,,,,,,,,,,,,,,,725.2615368000115,726.273397900004,726.2567435000092,726.8288945000095,726.8288945000095,None,728.6915679000085,None,right,0.8058141999936197,728.6915679000085,None,729.5272624000063,None,right,0.3546370999829378,729.5272624000063,None,,,,,,,,,,,,,,,,,,,,,,,PPT20,001,2022-06-30_16h08.59.712,ABstudy,2022.1.4,59.95347610075481,
AB,Lag5_T1P_T2A,5,P,A,5,10,4,3,13,cork,Did you see the cork?,0.12,0.016,JPG\,clock01a,grape01,plate01b,key01,cork02,feather03a,pineapple01a,iron01b,toothbrush03b,comb02a,broom01,toaster01,pizza,blankImage,blankImage,blankImage,blankImage,cork02,,,,,,,,,,,,0,120,120,209,,,,,,,,,,,,,,,,,,,,,,,,,,,,,,,,,,,729.9181630000094,730.9280123000062,730.9112667000009,731.5163960000064,731.5163960000064,None,733.1133239000046,None,left,0.7529201999859652,733.1133239000046,None,733.9117769000004,None,right,0.15400439998484217,733.9117769000004,None,,,,,,,,,,,,,,,,,,,,,,,PPT20,001,2022-06-30_16h08.59.712,ABstudy,2022.1.4,59.95347610075481,
AB,Lag1_T1P_T2P,1,P,P,6,7,5,5,12,bat,Did you see the bat?,0.12,0.016,JPG\,comb02a,key01,medal02b,battery02b,lighter01,bat,stapler05,sandal,pig,cellphone,computerkeyboard02,calculator01,blankImage,blankImage,blankImage,blankImage,blankImage,bat,,,,,,,,,,,,0,121,121,35,,,,,,,,,,,,,,,,,,,,,,,,,,,,,,,,,,,734.1061822000047,735.1152900000016,735.0985854000028,735.673040300011,735.673040300011,None,737.1364505000092,None,left,0.6971476999897277,737.1364505000092,None,737.8528948000021,None,right,0.5492591999936849,737.8528948000021,None,,,,,,,,,,,,,,,,,,,,,,,PPT20,001,2022-06-30_16h08.59.712,ABstudy,2022.1.4,59.95347610075481,
AB,Lag1_T1P_T2P,1,P,P,5,6,4,3,9,Pumpkin,Did you see the Pumpkin?,0.12,0.016,JPG\,binoculars01b,speaker04,sandal,envelope03a,pumpkin,stapler03b,battery02b,chain01,measuringcup01,blankImage,blankImage,blankImage,blankImage,blankImage,blankImage,blankImage,blankImage,pumpkin,,,,,,,,,,,,0,122,122,23,,,,,,,,,,,,,,,,,,,,,,,,,,,,,,,,,,,738.431974200008,739.4360482000047,739.4193254000129,740.007872000002,740.007872000002,None,741.1380230000068,None,left,0.7441341999947326,741.1380230000068,None,741.9065607000084,None,right,0.17564479997963645,741.9065607000084,None,,,,,,,,,,,,,,,,,,,,,,,PPT20,001,2022-06-30_16h08.59.712,ABstudy,2022.1.4,59.95347610075481,
AB,Lag5_T1A_T2P,5,A,P,5,10,4,3,13,License Plate,Did you see the License Plate?,0.12,0.016,JPG\,tomato01,pen04b,shirt02,carrot01,lamp04a,key01,pizza,avocado01,sewingmachine01a,stapler06,iron01b,book01b,chain01,blankImage,blankImage,blankImage,blankImage,porcupine,,,,,,,,,,,,0,123,123,270,,,,,,,,,,,,,,,,,,,,,,,,,,,,,,,,,,,742.1148582000023,743.1235542000068,743.1070158000075,743.7007106000092,743.7007106000092,None,745.2960068000102,None,right,0.7536326999834273,745.2960068000102,None,746.0765585000045,None,left,0.6132022999954643,746.0765585000045,None,,,,,,,,,,,,,,,,,,,,,,,PPT20,001,2022-06-30_16h08.59.712,ABstudy,2022.1.4,59.95347610075481,
AB,Lag5_T1P_T2A,5,P,A,6,11,5,3,14,Balcony,Did you see the Balcony?,0.12,0.016,JPG\,tomato01,pen04b,shirt02,carrot01,lamp04a,balcony02,pizza,avocado01,sewingmachine01a,apple07,iron01b,book01b,chain01,sock01a,blankImage,blankImage,blankImage,balcony02,,,,,,,,,,,,0,124,124,207,,,,,,,,,,,,,,,,,,,,,,,,,,,,,,,,,,,746.7166865000036,747.72807930001,747.7113463000132,748.2842288000102,748.2842288000102,None,750.0235428000015,None,left,0.6101443999796174,750.0235428000015,None,750.6643547000131,None,right,0.192875799984904,750.6643547000131,None,,,,,,,,,,,,,,,,,,,,,,,PPT20,001,2022-06-30_16h08.59.712,ABstudy,2022.1.4,59.95347610075481,
AB,Lag5_T1P_T2P,5,P,P,6,11,5,5,16,sword,Did you see the sword?,0.12,0.016,JPG\,chain01,speaker04,avocado01,watermelon01,scarf,sword01,lamp04a,fork03c,toaster01,slipper03b,stapler03a,cucumber,teabag,ashtray01,computerkeyboard02,book01b,blankImage,sword01,,,,,,,,,,,,0,125,125,143,,,,,,,,,,,,,,,,,,,,,,,,,,,,,,,,,,,750.8849862000061,751.8989058000006,751.8821154000034,752.4621662999998,752.4621662999998,None,754.4030415000016,None,left,0.7672654999914812,754.4030415000016,None,755.2024195000122,None,right,0.15087289999064524,755.2024195000122,None,,,,,,,,,,,,,,,,,,,,,,,PPT20,001,2022-06-30_16h08.59.712,ABstudy,2022.1.4,59.95347610075481,
AB,Lag1_T1P_T2P,1,P,P,7,8,6,4,12,trophy,Did you see the trophy?,0.12,0.016,JPG\,cherry01,cymbal,envelope03a,foosballtable,shirt02,cellphone,trophy01,stapler04b,battery02b,apple07,pencil01,screwdriver04b,blankImage,blankImage,blankImage,blankImage,blankImage,trophy01,,,,,,,,,,,,0,126,126,74,,,,,,,,,,,,,,,,,,,,,,,,,,,,,,,,,,,755.3910757000122,756.4035205000109,756.3867271000054,756.9636778000131,756.9636778000131,None,758.3986552999995,None,left,0.49099459999706596,758.3986552999995,None,758.9223753000115,None,left,0.14301899999554735,758.9223753000115,None,,,,,,,,,,,,,,,,,,,,,,,PPT20,001,2022-06-30_16h08.59.712,ABstudy,2022.1.4,59.95347610075481,
AB,Lag1_T1P_T2P,1,P,P,5,6,4,5,11,Guitar case,Did you see the Guitar case?,0.12,0.016,JPG\,broccoli01a,scissors01,toothbrush03b,foosballtable,guitarcase,stapler05,hammer01,toiletpaper01a,cd,garlic01a,carrot01,blankImage,blankImage,blankImage,blankImage,blankImage,blankImage,guitarcase,,,,,,,,,,,,0,127,127,14,,,,,,,,,,,,,,,,,,,,,,,,,,,,,,,,,,,759.1398842000053,760.1399970000057,760.1233353000134,760.6988491000084,760.6988491000084,None,761.9736513000098,None,left,0.6039967999968212,761.9736513000098,None,762.6096177,None,left,0.1359101999842096,762.6096177,None,,,,,,,,,,,,,,,,,,,,,,,PPT20,001,2022-06-30_16h08.59.712,ABstudy,2022.1.4,59.95347610075481,
AB,Lag1_T1A_T2P,1,A,P,6,7,5,5,12,Ostrich,Did you see the Ostrich?,0.12,0.016,JPG\,thermometer02b,candle08b,comb02a,toothbrush03b,brick,computerkeyboard02,stapler05,pineapple01a,candy,birthdaycandle,clock04,hairclip03,blankImage,blankImage,blankImage,blankImage,blankImage,discoball,,,,,,,,,,,,0,128,128,232,,,,,,,,,,,,,,,,,,,,,,,,,,,,,,,,,,,762.7863631000073,763.7942876000016,763.7776255000063,764.3417480000062,764.3417480000062,None,765.8574287000083,None,right,1.0328601999790408,765.8574287000083,None,766.914022500001,None,right,0.19136619998607785,766.914022500001,None,,,,,,,,,,,,,,,,,,,,,,,PPT20,001,2022-06-30_16h08.59.712,ABstudy,2022.1.4,59.95347610075481,
AB,Lag5_T1P_T2P,5,P,P,6,11,5,5,16,microwave,Did you see the microwave?,0.12,0.016,JPG\,pen04b,speaker04,lighter01,cherry01,weight04a,microwave,sock01a,toothbrush03b,broom01,sewingmachine01a,stapler06,iron01b,clock01a,sandal,cd,blueberry01,blankImage,microwave,,,,,,,,,,,,0,129,129,136,,,,,,,,,,,,,,,,,,,,,,,,,,,,,,,,,,,767.1350326000102,768.148405800006,768.1318150000006,768.6987162000005,768.6987162000005,None,770.6638191000093,None,left,0.5469266999862157,770.6638191000093,None,771.2345619000116,None,left,0.1669231999985641,771.2345619000116,None,,,,,,,,,,,,,,,,,,,,,,,PPT20,001,2022-06-30_16h08.59.712,ABstudy,2022.1.4,59.95347610075481,
AB,Lag1_T1P_T2A,1,P,A,5,6,4,5,11,Sailboat,Did you see the Sailboat?,0.12,0.016,JPG\,chain01,speaker04,avocado01,watermelon01,sailboat,comb02a,lamp04a,fork03c,toaster01,slipper03b,scissors01,blankImage,blankImage,blankImage,blankImage,blankImage,blankImage,sailboat,,,,,,,,,,,,0,130,130,193,,,,,,,,,,,,,,,,,,,,,,,,,,,,,,,,,,,771.4215425000002,772.4357302000135,772.4026503000059,772.9772598000127,772.9772598000127,None,774.4301459000126,None,right,1.3079652999876998,774.4301459000126,None,775.755679000009,None,right,0.24634169998171274,775.755679000009,None,,,,,,,,,,,,,,,,,,,,,,,PPT20,001,2022-06-30_16h08.59.712,ABstudy,2022.1.4,59.95347610075481,
AB,Lag5_T1P_T2P,5,P,P,7,12,6,3,15,Eye patch,Did you see the Eye patch?,0.12,0.016,JPG\,candle01,paintbrush01,scissors01,fan,microscope,toothbrush03b,eyepatch,watermelon01,teabag,pencil01,lemon02,stapler05,shirt02,cauliflower01,cd,blankImage,blankImage,eyepatch,,,,,,,,,,,,0,131,131,108,,,,,,,,,,,,,,,,,,,,,,,,,,,,,,,,,,,776.0265885000117,777.0406518000091,777.0073735000042,777.5877322000015,777.5877322000015,None,779.5056901000062,None,left,0.38381389998539817,779.5056901000062,None,779.9099641000066,None,left,0.19539569999324158,779.9099641000066,None,,,,,,,,,,,,,,,,,,,,,,,PPT20,001,2022-06-30_16h08.59.712,ABstudy,2022.1.4,59.95347610075481,
AB,Lag5_T1P_T2P,5,P,P,7,12,6,5,17,elbow,Did you see the elbow?,0.12,0.016,JPG\,candle01,fork03c,plate01b,violin,computerkeyboard02,candy,elbow,paintbrush01,cherry01,sock01a,teabag,stapler01,cd,lighter01,book01b,tennisball01b,blankImage,elbow,,,,,,,,,,,,0,132,132,87,,,,,,,,,,,,,,,,,,,,,,,,,,,,,,,,,,,780.1294727000059,781.144497900008,781.1110719999997,781.6839252000063,781.6839252000063,None,783.6447528999997,None,left,0.6614907999901334,783.6447528999997,None,784.3309442000027,None,right,0.1585791999968933,784.3309442000027,None,,,,,,,,,,,,,,,,,,,,,,,PPT20,001,2022-06-30_16h08.59.712,ABstudy,2022.1.4,59.95347610075481,
AB,Lag1_T1P_T2P,1,P,P,6,7,5,5,12,snowman,Did you see the snowman?,0.12,0.016,JPG\,comb02a,watch02a,scissors01,dice05a,tableknife02,snowman,stapler03a,printer02,dandelion,spoon01,ashtray01,battery02b,blankImage,blankImage,blankImage,blankImage,blankImage,snowman,,,,,,,,,,,,0,133,133,4,,,,,,,,,,,,,,,,,,,,,,,,,,,,,,,,,,,784.5203178000083,785.5325207000133,785.5157919000048,786.0912890000036,786.0912890000036,None,787.5493900000001,None,left,1.3242676999943797,787.5493900000001,None,788.9025371000025,None,right,0.16308359998220112,788.9025371000025,None,,,,,,,,,,,,,,,,,,,,,,,PPT20,001,2022-06-30_16h08.59.712,ABstudy,2022.1.4,59.95347610075481,
AB,Lag5_T1P_T2P,5,P,P,6,11,5,4,15,sword,Did you see the sword?,0.12,0.016,JPG\,8ball,banana01,scissors01,pig,shirt02,broadsword,pear01,sponge01,fork03c,tableknife02,stapler06,match,toothbrush03b,birthdaycandle,candle01,blankImage,blankImage,broadsword,,,,,,,,,,,,0,134,134,167,,,,,,,,,,,,,,,,,,,,,,,,,,,,,,,,,,,789.0901912000118,790.103652500009,790.0869629000081,790.6643080000067,790.6643080000067,None,792.5143815000047,None,left,0.6870851999847218,792.5143815000047,None,793.2235265000054,None,right,0.37034459999995306,793.2235265000054,None,,,,,,,,,,,,,,,,,,,,,,,PPT20,001,2022-06-30_16h08.59.712,ABstudy,2022.1.4,59.95347610075481,
AB,Lag1_T1P_T2A,1,P,A,7,8,6,3,11,walkie talkie,Did you see the walkie talkie?,0.12,0.016,JPG\,teabag,envelope03a,cellphone,apple07,cauliflower01,orange,walkietalkie,book01b,hammer01,feather03a,toaster01,blankImage,blankImage,blankImage,blankImage,blankImage,blankImage,walkietalkie,,,,,,,,,,,,0,135,135,197,,,,,,,,,,,,,,,,,,,,,,,,,,,,,,,,,,,793.6309087000118,794.6414558000106,794.6246491000056,795.2059375000099,795.2059375000099,None,796.5302190000075,None,left,0.6404511999862734,796.5302190000075,None,797.1942492000089,None,right,0.2154302999842912,797.1942492000089,None,,,,,,,,,,,,,,,,,,,,,,,PPT20,001,2022-06-30_16h08.59.712,ABstudy,2022.1.4,59.95347610075481,
AB,Lag5_T1A_T2P,5,A,P,7,12,6,4,16,scooter,Did you see the scooter?,0.12,0.016,JPG\,cigarette,pig,banana01,strawberry,clock01a,plate01b,spoon01,blueberry01,battery02b,pineapple01a,chain01,stapler05,candy,pen04b,teabag,birthdaycandle,blankImage,1nose,,,,,,,,,,,,0,136,136,268,,,,,,,,,,,,,,,,,,,,,,,,,,,,,,,,,,,797.4323418000131,798.4449942000065,798.4282706000085,798.9967184000125,798.9967184000125,None,800.8650317000138,None,right,0.6966874999925494,800.8650317000138,None,801.5814387999999,None,right,0.196100099987234,801.5814387999999,None,,,,,,,,,,,,,,,,,,,,,,,PPT20,001,2022-06-30_16h08.59.712,ABstudy,2022.1.4,59.95347610075481,
