TrialType,CondType,Lag,T1_PA,T2_PA,T1Loc,T2Loc,PreDistractor,PostDistractor,TotalImg,cueWord,T1cue,StimLength,isi,PicFolder,Img1,Img2,Img3,Img4,Img5,Img6,Img7,Img8,Img9,Img10,Img11,Img12,Img13,Img14,Img15,Img16,Img17,T1_Identity,ImageType,T1PA,T2PA,Picture,Image,FullPathName,FilePath,Practice_Trials.thisRepN,Practice_Trials.thisTrialN,Practice_Trials.thisN,Practice_Trials.thisIndex,trials.thisRepN,trials.thisTrialN,trials.thisN,trials.thisIndex,trials_2.thisRepN,trials_2.thisTrialN,trials_2.thisN,trials_2.thisIndex,Practice_Ins.started,Practice_Ins.stopped,End_Prac_Ins.keys,End_Prac_Ins.rt,End_Prac_Ins.started,End_Prac_Ins.stopped,text_2.started,text_2.stopped,Fixation_Cross_2.started,Fixation_Cross_2.stopped,Rapid_Image_Present_2.started,Rapid_Image_Present_2.stopped,key_resp.keys,key_resp.rt,key_resp.started,key_resp.stopped,T1Response_2.started,T1Response_2.stopped,T2Response_2.started,T2Response_2.stopped,key_resp_4.keys,key_resp_4.rt,key_resp_4.started,key_resp_4.stopped,text.started,text.stopped,End_Instructions.keys,End_Instructions.rt,End_Instructions.started,End_Instructions.stopped,text_5.started,text_5.stopped,FC.started,FC.stopped,Rapid_Image_Present.started,Rapid_Image_Present.stopped,T1Response.started,T1Response.stopped,key_resp_2.keys,key_resp_2.rt,key_resp_2.started,key_resp_2.stopped,T2Response.started,T2Response.stopped,key_resp_3.keys,key_resp_3.rt,key_resp_3.started,key_resp_3.stopped,text_6.started,text_6.stopped,Fin_ins.keys,Fin_ins.rt,Fin_ins.started,Fin_ins.stopped,MemTest.started,MemTest.stopped,MemResponse.keys,MemResponse.rt,MemResponse.started,MemResponse.stopped,Display.started,Display.stopped,text_7.started,text_7.stopped,endOfExperiment.started,endOfExperiment.stopped,key_resp_5.keys,key_resp_5.rt,key_resp_5.started,key_resp_5.stopped,participant,session,date,expName,psychopyVersion,frameRate,
,,,,,,,,,,,,,,,,,,,,,,,,,,,,,,,,,,,,,,,,,,,,,,,,,,,,22.060092100000475,None,space,41.612972799979616,22.060092100000475,None,,,,,,,,,,,,,,,,,,,,,,,,,,,,,,,,,,,,,,,,,,,,,,,,,,,,,,,,,,,,,,,,,PPT29,001,2022-07-05_10h02.02.762,ABstudy,2022.1.4,59.93698224451799,
AB_Prac,Lag1_T1A_T2A,1,A,A,8,9,7,3,12,Moose,Did you see the Moose?,0.5,0.016,JPG\,clothespin03b,corkscrew03a,drillbit03a,fusilli03a,needlenosepliers01,perfume01a,pistachio,scrubbingbrush05b,spatula03,toothpastetube,hinge,toydinosaur,blankImage,blankImage,blankImage,blankImage,blankImage,None,,,,,,,,0,0,0,10,,,,,,,,,,,,,,,63.75729239999782,64.7663091000286,64.74958240002161,65.37796250003157,65.37796250003157,None,right,1.3444300999981351,71.35315710003488,None,71.35315710003488,None,72.72432600002503,None,left,0.9809567999909632,72.72432600002503,None,,,,,,,,,,,,,,,,,,,,,,,,,,,,,,,,,,,,,,,,,,,,,,,PPT29,001,2022-07-05_10h02.02.762,ABstudy,2022.1.4,59.93698224451799,
AB_Prac,Lag1_T1P_T2P,1,P,P,6,7,5,5,12,triangle,Did you see the triangle?,0.5,0.016,JPG\,ginger,mousetrap,plum01,slipper01b,dropper01,triangle,stapler04b,pants,raspberry01,rope03,scale01a,vase01,blankImage,blankImage,blankImage,blankImage,blankImage,triangle,,,,,,,,0,1,1,1,,,,,,,,,,,,,,,73.81894780002767,74.82614499999909,74.80949320003856,75.4015319000464,75.4015319000464,None,right,1.8841208999510854,81.33375119999982,None,81.33375119999982,None,83.23490900004981,None,left,0.8626214999821968,83.23490900004981,None,,,,,,,,,,,,,,,,,,,,,,,,,,,,,,,,,,,,,,,,,,,,,,,PPT29,001,2022-07-05_10h02.02.762,ABstudy,2022.1.4,59.93698224451799,
AB_Prac,Lag5_T1P_T2P,5,P,P,5,10,4,5,15,washing machine,Did you see the washing machine?,0.5,0.016,JPG\,waterbottle03,wheel01,flashlight02b,zucchini01,washingmachine,headphones02b,nutcracker01,paintroller01,paperclip03,stapler06,ribbon04,electricrazor,bottleofredwine01,pitabread,pot02a,blankImage,blankImage,washingmachine,,,,,,,,0,2,2,4,,,,,,,,,,,,,,,84.13276830001269,85.13648610003293,85.10348340001656,85.71695640002145,85.71695640002145,None,left,1.8378665000200272,93.19467460003216,None,93.19467460003216,None,95.06311850005295,None,left,0.762269800005015,95.06311850005295,None,,,,,,,,,,,,,,,,,,,,,,,,,,,,,,,,,,,,,,,,,,,,,,,PPT29,001,2022-07-05_10h02.02.762,ABstudy,2022.1.4,59.93698224451799,
AB_Prac,Lag5_T1P_T2A,5,P,A,6,11,5,5,16,bread,Did you see the bread?,0.5,0.016,JPG\,cleaver01,clipboard,dustpan,hikingshoe01,notebook03a,baguette01,playingcard,pliers02b,styrofoamcup,rollingpin01a,swimgoggles,wineglass01,fryingpan02a,safetypin,syringe01,thimble,blankImage,baguette01,,,,,,,,0,3,3,8,,,,,,,,,,,,,,,95.85467020003125,96.86503250000533,96.84831790003227,97.43118910002522,97.43118910002522,None,left,3.4315358999883756,105.45691530004842,None,105.45691530004842,None,108.91050370002631,None,right,1.2024595999973826,108.91050370002631,None,,,,,,,,,,,,,,,,,,,,,,,,,,,,,,,,,,,,,,,,,,,,,,,PPT29,001,2022-07-05_10h02.02.762,ABstudy,2022.1.4,59.93698224451799,
AB_Prac,Lag1_T1P_T2A,1,P,A,8,9,7,5,14,flower,Did you see the flower?,0.5,0.016,JPG\,razor01,axe01,binder03b,bowl01,kettle01,lettuce,lime,plasticflower01b,mitten04,pencilcase01,plunger02,strawbasket01,toothpick02,wallet02a,blankImage,blankImage,blankImage,plasticflower01b,,,,,,,,0,4,4,5,,,,,,,,,,,,,,,110.24140930001158,111.24739370000316,111.23056440002983,111.84292240004288,111.84292240004288,None,left,1.347580100002233,118.82234700000845,None,118.82234700000845,None,120.1884009000496,None,right,0.44507219997467473,120.1884009000496,None,,,,,,,,,,,,,,,,,,,,,,,,,,,,,,,,,,,,,,,,,,,,,,,PPT29,001,2022-07-05_10h02.02.762,ABstudy,2022.1.4,59.93698224451799,
AB_Prac,Lag1_T1P_T2P,1,P,P,8,9,7,5,14,Tennis racket,Did you see the Tennis racket?,0.5,0.016,JPG\,coconut,computermouse06,croissant01,deodorant02a,pillow01a,peanut01,boot02b,tennisracket,stapler03b,crayon,eggplant,marker01a,plant01,radish01,blankImage,blankImage,blankImage,tennisracket,,,,,,,,0,5,5,0,,,,,,,,,,,,,,,120.65767950000009,121.67280290002236,121.6394222000381,122.23931319999974,122.23931319999974,None,left,0.6754284999915399,129.2852339000092,None,129.2852339000092,None,129.98109690001002,None,left,0.5396521000075154,129.98109690001002,None,,,,,,,,,,,,,,,,,,,,,,,,,,,,,,,,,,,,,,,,,,,,,,,PPT29,001,2022-07-05_10h02.02.762,ABstudy,2022.1.4,59.93698224451799,
AB_Prac,Lag5_T1P_T2P,5,P,P,5,10,4,5,15,Vulture,Did you see the Vulture?,0.5,0.016,JPG\,shorts01,toast,ramekin01,bib,vulture,cracker02,date,glasses01a,hat03b,stapler01,measuringtape01,nail,pill,drum01,starfish01,blankImage,blankImage,vulture,,,,,,,,0,6,6,3,,,,,,,,,,,,,,,130.55001020000782,131.54949860001216,131.5328197000199,132.12146680004662,132.12146680004662,None,left,1.6853109000367112,139.69913630001247,None,139.69913630001247,None,141.4093472000095,None,left,0.5752485999837518,141.4093472000095,None,,,,,,,,,,,,,,,,,,,,,,,,,,,,,,,,,,,,,,,,,,,,,,,PPT29,001,2022-07-05_10h02.02.762,ABstudy,2022.1.4,59.93698224451799,
AB_Prac,Lag5_T1A_T2P,5,A,P,6,11,5,3,14,dog,Did you see the dog?,0.5,0.016,JPG\,bucket01a,doorlock,cookiecutter,fireextinguisher01,gluestick,highlighter02b,sportbag,spraybottle01,suitcase,thread02,stapler05,walnut01c,icecubetray01a,vikingmask01b,blankImage,blankImage,blankImage,None,,,,,,,,0,7,7,9,,,,,,,,,,,,,,,142.0135063000489,143.0275536000263,143.0109607000486,143.61849960003747,143.61849960003747,None,right,1.6108812000020407,150.75763210002333,None,150.75763210002333,None,152.38699780002935,None,left,0.5973676999565214,152.38699780002935,None,,,,,,,,,,,,,,,,,,,,,,,,,,,,,,,,,,,,,,,,,,,,,,,PPT29,001,2022-07-05_10h02.02.762,ABstudy,2022.1.4,59.93698224451799,
AB_Prac,Lag5_T1P_T2A,5,P,A,6,11,5,5,16,Wheat,Did you see the Wheat?,0.5,0.016,JPG\,bottleopener01,dentalfloss03b,cooler01,icecreamcone01a,paperclip01b,wheat,pencilsharpener02a,plasticbasket01a,toycar04,apricot,hairclip02,rock01a,honeydewmelon,antenna,blackberry,cardboardbox,blankImage,wheat,,,,,,,,0,8,8,7,,,,,,,,,,,,,,,153.01311749999877,154.02184160001343,154.0049104000209,154.57886560005136,154.57886560005136,None,left,1.0545703999814577,162.62630510004237,None,162.62630510004237,None,163.69806010002503,None,right,0.5107496000127867,163.69806010002503,None,,,,,,,,,,,,,,,,,,,,,,,,,,,,,,,,,,,,,,,,,,,,,,,PPT29,001,2022-07-05_10h02.02.762,ABstudy,2022.1.4,59.93698224451799,
AB_Prac,Lag1_T1P_T2A,1,P,A,5,6,4,5,11,Webcam,Did you see the Webcam?,0.5,0.016,JPG\,pictureframe04,binder03b,straw,adjustablewrench01b,webcam,cane,hairdryer02a,icepack,kitchenscale01a,lifejacket,piggybank,blankImage,blankImage,blankImage,blankImage,blankImage,blankImage,webcam,,,,,,,,0,9,9,6,,,,,,,,,,,,,,,164.23540970002068,165.24954560003243,165.216167400009,165.80434870003955,165.80434870003955,None,left,1.163384200015571,171.32500310003525,None,171.32500310003525,None,172.5079618000309,None,right,0.716663500003051,172.5079618000309,None,,,,,,,,,,,,,,,,,,,,,,,,,,,,,,,,,,,,,,,,,,,,,,,PPT29,001,2022-07-05_10h02.02.762,ABstudy,2022.1.4,59.93698224451799,
AB_Prac,Lag5_T1A_T2A,5,A,A,6,11,5,5,16,castle,Did you see the castle?,0.5,0.016,JPG\,tape02a,englishmuffin,flask,ladle02a,monitor,peach01,keychain,squeegee01b,telephone01b,whisk,walkman,syringe02,baguette01,coaster,box01a,coffeepot03a,blankImage,None,,,,,,,,0,10,10,11,,,,,,,,,,,,,,,173.25120520003838,174.25856320001185,174.24187610001536,174.85213980003027,174.85213980003027,None,right,1.6073365999618545,182.81669720000355,None,182.81669720000355,None,184.45224440004677,None,right,0.7337311000446789,184.45224440004677,None,,,,,,,,,,,,,,,,,,,,,,,,,,,,,,,,,,,,,,,,,,,,,,,PPT29,001,2022-07-05_10h02.02.762,ABstudy,2022.1.4,59.93698224451799,
AB_Prac,Lag5_T1P_T2P,5,P,P,7,12,6,3,15,vacuum,Did you see the vacuum?,0.5,0.016,JPG\,fork07b,lightbulb01,manshoe,saw02b,shoelace,soap03a,vacuumcleaner01,floortile01,necklace,doll,cabbage,stapler03a,hanger02a,laptop01a,nailpolish03b,blankImage,blankImage,vacuumcleaner01,,,,,,,,0,11,11,2,,,,,,,,,,,,,,,185.21080990001792,186.22062740003457,186.2038595000049,186.78939099999843,186.78939099999843,None,left,0.7885001999675296,194.41211940004723,None,194.41211940004723,None,195.23064200003864,None,left,0.6345524999778718,195.23064200003864,None,,,,,,,,,,,,,,,,,,,,,,,,,,,,,,,,,,,,,,,,,,,,,,,PPT29,001,2022-07-05_10h02.02.762,ABstudy,2022.1.4,59.93698224451799,
,,,,,,,,,,,,,,,,,,,,,,,,,,,,,,,,,,,,,,,,,,,,,,,,,,,,,,,,,,,,,,,,,,,,,,,,,,,,195.89664340001764,None,space,13.648316300008446,195.89664340001764,None,,,,,,,,,,,,,,,,,,,,,,,,,,,,,,,,,,,,,,,,,PPT29,001,2022-07-05_10h02.02.762,ABstudy,2022.1.4,59.93698224451799,
AB,Lag5_T1P_T2P,5,P,P,8,13,7,5,18,popcorn,Did you see the popcorn?,0.12,0.016,JPG\,toaster01,garlic01a,hairclip03,fan,comb02a,apple07,orange,popcorn,onion,blueberry01,toiletpaper01a,fork03c,stapler06,pineapple01a,scarf,eraser,blankImage,popcorn,,,,,,,,,,,,0,0,0,155,,,,,,,,,,,,,,,,,,,,,,,,,,,,,,,,,,,210.20804320002208,211.2122780000209,211.19557310000528,211.82970290002413,211.82970290002413,None,213.7245261000353,None,right,2.516086199961137,213.7245261000353,None,216.2702422000002,None,left,0.5943730000290088,216.2702422000002,None,,,,,,,,,,,,,,,,,,,,,,,PPT29,001,2022-07-05_10h02.02.762,ABstudy,2022.1.4,59.93698224451799,
AB,Lag5_T1A_T2P,5,A,P,7,12,6,3,15,hockey puck,Did you see the hockey puck?,0.12,0.016,JPG\,toiletpaper01a,lipstick02a,potato02b,speaker04,globe,strawberry,carrot01,plate01b,sock01a,candle08b,pen04b,stapler04b,foosballtable,brick,pear01,blankImage,blankImage,frisbee,,,,,,,,,,,,0,1,1,260,,,,,,,,,,,,,,,,,,,,,,,,,,,,,,,,,,,216.88802700000815,217.90194940002402,217.885222300014,218.4716736000264,218.4716736000264,None,220.2753671000246,None,right,1.8849981999956071,220.2753671000246,None,222.1899258000194,None,right,0.7546758999815211,222.1899258000194,None,,,,,,,,,,,,,,,,,,,,,,,PPT29,001,2022-07-05_10h02.02.762,ABstudy,2022.1.4,59.93698224451799,
AB,Lag1_T1A_T2P,1,A,P,5,6,4,3,9,microphone,Did you see the microphone?,0.12,0.016,JPG\,hammer01,sponge01,toaster01,cherry01,feather03a,stapler06,measuringcup01,pencil01,tennisball01b,blankImage,blankImage,blankImage,blankImage,blankImage,blankImage,blankImage,blankImage,cactus,,,,,,,,,,,,0,2,2,230,,,,,,,,,,,,,,,,,,,,,,,,,,,,,,,,,,,222.9822630000417,223.99168130004546,223.97501230001217,224.56138500000816,224.56138500000816,None,225.69697150000138,None,right,1.0798754999996163,225.69697150000138,None,226.7943804000388,None,left,0.5814969000057317,226.7943804000388,None,,,,,,,,,,,,,,,,,,,,,,,PPT29,001,2022-07-05_10h02.02.762,ABstudy,2022.1.4,59.93698224451799,
AB,Lag1_T1P_T2A,1,P,A,8,9,7,5,14,Parrot,Did you see the Parrot?,0.12,0.016,JPG\,candy,brownsugar,dice05a,cd,sock01a,blueberry01,button01,parrot01,feather03a,grape01,dandelion,scissors01,watch02a,candle08b,blankImage,blankImage,blankImage,parrot01,,,,,,,,,,,,0,3,3,192,,,,,,,,,,,,,,,,,,,,,,,,,,,,,,,,,,,227.44001810002374,228.44601320003858,228.42935960000614,229.01263890002156,229.01263890002156,None,230.6714450000436,None,left,1.082290299993474,230.6714450000436,None,231.78257050004322,None,right,0.8336644999799319,231.78257050004322,None,,,,,,,,,,,,,,,,,,,,,,,PPT29,001,2022-07-05_10h02.02.762,ABstudy,2022.1.4,59.93698224451799,
AB,Lag5_T1P_T2P,5,P,P,8,13,7,3,16,banjo,Did you see the banjo?,0.12,0.016,JPG\,celery,brownsugar,key01,sunglasses04,leaf02a,toothbrush03b,dice05a,banjo,scarf,globe,paintbrush01,scissors01,stapler03a,battery02b,feather03a,cymbal,blankImage,banjo,,,,,,,,,,,,0,4,4,102,,,,,,,,,,,,,,,,,,,,,,,,,,,,,,,,,,,232.63943290000316,233.65096360002644,233.6342733000056,234.2188685000292,234.2188685000292,None,236.07033280003816,None,left,1.0024131999816746,236.07033280003816,None,237.10511500004213,None,left,0.399430499994196,237.10511500004213,None,,,,,,,,,,,,,,,,,,,,,,,PPT29,001,2022-07-05_10h02.02.762,ABstudy,2022.1.4,59.93698224451799,
AB,Lag1_T1P_T2A,1,P,A,7,8,6,3,11,Snowshoe,Did you see the Snowshoe?,0.12,0.016,JPG\,birthdaycandle,mushroom01,strawberry,match,cherry01,eraser,snowshoe,thermometer02b,sock01a,ring01,feather03a,blankImage,blankImage,blankImage,blankImage,blankImage,blankImage,snowshoe,,,,,,,,,,,,0,5,5,194,,,,,,,,,,,,,,,,,,,,,,,,,,,,,,,,,,,237.52819560002536,238.53935400000773,238.52280120004434,239.02530070004286,239.02530070004286,None,240.44036030001007,None,right,1.4235673999646679,240.44036030001007,None,241.892908000038,None,right,1.4432435999624431,241.892908000038,None,,,,,,,,,,,,,,,,,,,,,,,PPT29,001,2022-07-05_10h02.02.762,ABstudy,2022.1.4,59.93698224451799,
AB,Lag1_T1P_T2P,1,P,P,6,7,5,3,10,spider web,Did you see the spider web?,0.12,0.016,JPG\,toaster01,chain01,sponge01,baseball01a,carrot01,spiderweb,stapler03b,iron01b,grape01,brick,blankImage,blankImage,blankImage,blankImage,blankImage,blankImage,blankImage,spiderweb,,,,,,,,,,,,0,6,6,72,,,,,,,,,,,,,,,,,,,,,,,,,,,,,,,,,,,243.4028778000502,244.41190340003232,244.39522990002297,245.00503550004214,245.00503550004214,None,246.21527780004544,None,left,1.073175200028345,246.21527780004544,None,247.3147406000062,None,left,0.5014694000128657,247.3147406000062,None,,,,,,,,,,,,,,,,,,,,,,,PPT29,001,2022-07-05_10h02.02.762,ABstudy,2022.1.4,59.93698224451799,
AB,Lag1_T1P_T2P,1,P,P,7,8,6,3,11,harmonica,Did you see the harmonica?,0.12,0.016,JPG\,cucumber,ring01,lipstick02a,microscope,violin,garlic01a,harmonica,stapler03b,cherry01,sewingmachine01a,belt02a,blankImage,blankImage,blankImage,blankImage,blankImage,blankImage,harmonica,,,,,,,,,,,,0,7,7,43,,,,,,,,,,,,,,,,,,,,,,,,,,,,,,,,,,,247.8357300000498,248.84966490004444,248.83302960003493,249.4225143000367,249.4225143000367,None,250.73968580004293,None,left,0.8602680999902077,250.73968580004293,None,251.6202477000188,None,left,0.4997116000158712,251.6202477000188,None,,,,,,,,,,,,,,,,,,,,,,,PPT29,001,2022-07-05_10h02.02.762,ABstudy,2022.1.4,59.93698224451799,
AB,Lag1_T1P_T2P,1,P,P,5,6,4,3,9,camel,Did you see the camel?,0.12,0.016,JPG\,iron01b,brick,broccoli01a,balloon01b,dromedary,stapler05,sandal,teabag,scissors01,blankImage,blankImage,blankImage,blankImage,blankImage,blankImage,blankImage,blankImage,dromedary,,,,,,,,,,,,0,8,8,11,,,,,,,,,,,,,,,,,,,,,,,,,,,,,,,,,,,252.21767910005292,253.22067660000175,253.203960200015,253.7906547000166,253.7906547000166,None,254.8385791000328,None,left,1.2980957999825478,254.8385791000328,None,256.1582784000202,None,right,0.8420559999649413,256.1582784000202,None,,,,,,,,,,,,,,,,,,,,,,,PPT29,001,2022-07-05_10h02.02.762,ABstudy,2022.1.4,59.93698224451799,
AB,Lag1_T1P_T2A,1,P,A,8,9,7,5,14,Sausage,Did you see the Sausage?,0.12,0.016,JPG\,pencil01,broccoli01a,button01,sponge01,watermelon01,lipstick02a,comb02a,sausage,lighter01,sock01a,spoon01,blueberry01,belt02a,onion,blankImage,blankImage,blankImage,sausage,,,,,,,,,,,,0,9,9,175,,,,,,,,,,,,,,,,,,,,,,,,,,,,,,,,,,,257.0387706000474,258.041901700024,258.0252098000492,258.6031260000309,258.6031260000309,None,260.3374198000529,None,left,3.6304399000364356,260.3374198000529,None,263.9979137000046,None,right,0.7541562999831513,263.9979137000046,None,,,,,,,,,,,,,,,,,,,,,,,PPT29,001,2022-07-05_10h02.02.762,ABstudy,2022.1.4,59.93698224451799,
AB,Lag1_T1P_T2P,1,P,P,8,9,7,3,12,mail box,Did you see the mail box?,0.12,0.016,JPG\,paintbrush01,dice05a,watermelon01,broccoli01a,hammer01,leaf02a,match,mailbox01,stapler05,fan,lipstick02a,grape01,blankImage,blankImage,blankImage,blankImage,blankImage,mailbox01,,,,,,,,,,,,0,10,10,20,,,,,,,,,,,,,,,,,,,,,,,,,,,,,,,,,,,264.78707020002184,265.7996188000543,265.78293960000155,266.35819739999715,266.35819739999715,None,267.8262218000018,None,right,2.3105025999830104,267.8262218000018,None,270.1540167000494,None,right,0.9264860000112094,270.1540167000494,None,,,,,,,,,,,,,,,,,,,,,,,PPT29,001,2022-07-05_10h02.02.762,ABstudy,2022.1.4,59.93698224451799,
AB,Lag5_T1P_T2P,5,P,P,8,13,7,5,18,bed,Did you see the bed?,0.12,0.016,JPG\,pencil01,broccoli01a,button01,sponge01,watermelon01,lipstick02a,comb02a,bed,lighter01,sock01a,spoon01,blueberry01,stapler04b,onion,grape01,avocado01,blankImage,bed,,,,,,,,,,,,0,11,11,124,,,,,,,,,,,,,,,,,,,,,,,,,,,,,,,,,,,271.10739120002836,272.1226427000365,272.08926690003136,272.6672459000256,272.6672459000256,None,274.66358110000147,None,left,1.3770919000380673,274.66358110000147,None,276.0610737000243,None,left,0.5073446999886073,276.0610737000243,None,,,,,,,,,,,,,,,,,,,,,,,PPT29,001,2022-07-05_10h02.02.762,ABstudy,2022.1.4,59.93698224451799,
AB,Lag5_T1P_T2P,5,P,P,5,10,4,3,13,Rabbit,Did you see the Rabbit?,0.12,0.016,JPG\,celery,tennisball01b,calculator01,pear01,jackrabbit,orange,button01,cellphone,onion,stapler06,iron01b,brownsugar,banana01,blankImage,blankImage,blankImage,blankImage,jackrabbit,,,,,,,,,,,,0,12,12,90,,,,,,,,,,,,,,,,,,,,,,,,,,,,,,,,,,,276.600483700051,277.6117685000063,277.5950235000346,278.1989621000248,278.1989621000248,None,279.7704805000103,None,left,0.7576259000343271,279.7704805000103,None,280.5492237000144,None,left,0.5071217000368051,280.5492237000144,None,,,,,,,,,,,,,,,,,,,,,,,PPT29,001,2022-07-05_10h02.02.762,ABstudy,2022.1.4,59.93698224451799,
AB,Lag5_T1P_T2P,5,P,P,8,13,7,5,18,hand,Did you see the hand?,0.12,0.016,JPG\,foosballtable,candy,envelope03a,microscope,pencil01,leaf02a,scissors01,hand01b,grape01,dandelion,pineapple01a,hammer01,stapler03a,thermometer02b,ring01,sewingmachine01a,blankImage,hand01b,,,,,,,,,,,,0,13,13,131,,,,,,,,,,,,,,,,,,,,,,,,,,,,,,,,,,,281.089817900036,282.09980950003956,282.0830937999999,282.58584400004474,282.58584400004474,None,284.5853657000116,None,left,0.5911565999849699,284.5853657000116,None,285.2022366000456,None,left,0.4790591000346467,285.2022366000456,None,,,,,,,,,,,,,,,,,,,,,,,PPT29,001,2022-07-05_10h02.02.762,ABstudy,2022.1.4,59.93698224451799,
AB,Lag1_T1P_T2A,1,P,A,5,6,4,4,10,bird,Did you see the bird?,0.12,0.016,JPG\,toaster01,scarf,toiletpaper01a,calculator01,swallow,sewingmachine01a,fan,teabag,strawberry,balloon01b,blankImage,blankImage,blankImage,blankImage,blankImage,blankImage,blankImage,swallow,,,,,,,,,,,,0,14,14,195,,,,,,,,,,,,,,,,,,,,,,,,,,,,,,,,,,,285.7060446999967,286.7206478000153,286.6872759000398,287.277846800047,287.277846800047,None,288.53143670002464,None,left,2.701078000012785,288.53143670002464,None,291.258431299997,None,right,1.09439519996522,291.258431299997,None,,,,,,,,,,,,,,,,,,,,,,,PPT29,001,2022-07-05_10h02.02.762,ABstudy,2022.1.4,59.93698224451799,
AB,Lag5_T1A_T2P,5,A,P,6,11,5,4,15,butterfly,Did you see the butterfly?,0.12,0.016,JPG\,comb02a,key01,medal02b,battery02b,lighter01,microscope,watermelon01,sandal,pig,cellphone,stapler06,calculator01,cymbal,clock04,cucumber,blankImage,blankImage,uprightpiano01,,,,,,,,,,,,0,15,15,276,,,,,,,,,,,,,,,,,,,,,,,,,,,,,,,,,,,292.37775610003155,293.3776331000263,293.3609840000281,293.9450147000025,293.9450147000025,None,295.75671050004894,None,right,0.9077323999954388,295.75671050004894,None,296.6970851000515,None,right,0.7754276000196114,296.6970851000515,None,,,,,,,,,,,,,,,,,,,,,,,PPT29,001,2022-07-05_10h02.02.762,ABstudy,2022.1.4,59.93698224451799,
AB,Lag1_T1P_T2P,1,P,P,6,7,5,5,12,Snowboard,Did you see the Snowboard?,0.12,0.016,JPG\,belt02a,measuringcup01,spoon01,chain01,greenolive,snowboard,stapler01,onion,fan,strawberry,candle01,broom01,blankImage,blankImage,blankImage,blankImage,blankImage,snowboard,,,,,,,,,,,,0,16,16,49,,,,,,,,,,,,,,,,,,,,,,,,,,,,,,,,,,,297.5010636000079,298.5156115000136,298.49890600005165,299.1336169000133,299.0594680000213,None,300.50779689999763,None,left,0.6846192000084557,300.50779689999763,None,301.21888290002244,None,left,0.5810498999780975,301.21888290002244,None,,,,,,,,,,,,,,,,,,,,,,,PPT29,001,2022-07-05_10h02.02.762,ABstudy,2022.1.4,59.93698224451799,
AB,Lag1_T1P_T2A,1,P,A,6,7,5,5,12,Tombstone,Did you see the Tombstone?,0.12,0.016,JPG\,cigarette,ashtray01,envelope03a,sandal,chain01,tombstone,broccoli01a,tomato01,dandelion,candle01,lemon02,button01,blankImage,blankImage,blankImage,blankImage,blankImage,tombstone,,,,,,,,,,,,0,17,17,196,,,,,,,,,,,,,,,,,,,,,,,,,,,,,,,,,,,301.8703127000481,302.8699083000538,302.8699083000538,303.45390439999755,303.45390439999755,None,304.84870500001125,None,left,0.7592002999735996,304.84870500001125,None,305.6397518000449,None,right,0.49657489999663085,305.6397518000449,None,,,,,,,,,,,,,,,,,,,,,,,PPT29,001,2022-07-05_10h02.02.762,ABstudy,2022.1.4,59.93698224451799,
AB,Lag5_T1A_T2P,5,A,P,7,12,6,4,16,church,Did you see the church?,0.12,0.016,JPG\,printer02,leaf02a,cauliflower01,sock01a,brownsugar,paintbrush01,pig,orange,belt02a,shirt02,key01,stapler06,cigarette,scissors01,envelope03a,blueberry01,blankImage,ant,,,,,,,,,,,,0,18,18,279,,,,,,,,,,,,,,,,,,,,,,,,,,,,,,,,,,,306.1588836000301,307.1741997000063,307.1408415000187,307.75051890005125,307.75051890005125,None,309.7664053000044,None,right,1.0898521000053734,309.7664053000044,None,310.8780853000353,None,left,0.9062832000199705,310.8780853000353,None,,,,,,,,,,,,,,,,,,,,,,,PPT29,001,2022-07-05_10h02.02.762,ABstudy,2022.1.4,59.93698224451799,
AB,Lag5_T1A_T2A,5,A,A,6,11,5,5,16,shrimp,Did you see the shrimp?,0.12,0.016,JPG\,speaker04,sewingmachine01a,eraser,violin,globe,belt02a,sunglasses04,cymbal,cd,greenolive,alligator,pear01,watch02a,screwdriver04b,banana01,cigarette,blankImage,rollerblade,,,,,,,,,,,,0,19,19,300,,,,,,,,,,,,,,,,,,,,,,,,,,,,,,,,,,,311.81492050003726,312.82999310002197,312.79674860002706,313.3793759000255,313.3793759000255,None,315.3253171000397,None,right,1.1388759999535978,315.3253171000397,None,316.4834045000025,None,right,2.3805645999964327,316.4834045000025,None,,,,,,,,,,,,,,,,,,,,,,,PPT29,001,2022-07-05_10h02.02.762,ABstudy,2022.1.4,59.93698224451799,
AB,Lag5_T1P_T2P,5,P,P,7,12,6,5,17,flower,Did you see the flower?,0.12,0.016,JPG\,leaf02a,pear01,measuringcup01,cigarette,fan,lemon02,lily,tableknife02,ring01,pencil01,cellphone,stapler01,carrot01,binoculars01b,sock01a,book01b,blankImage,lily,,,,,,,,,,,,0,20,20,134,,,,,,,,,,,,,,,,,,,,,,,,,,,,,,,,,,,318.8883651000215,319.9034666000516,319.87012340000365,320.4427310000174,320.4427310000174,None,322.41841230000136,None,left,0.5500726000173017,322.41841230000136,None,322.99023789999774,None,left,0.4813272000174038,322.99023789999774,None,,,,,,,,,,,,,,,,,,,,,,,PPT29,001,2022-07-05_10h02.02.762,ABstudy,2022.1.4,59.93698224451799,
AB,Lag1_T1P_T2A,1,P,A,7,8,6,4,12,bird,Did you see the bird?,0.12,0.016,JPG\,speaker04,sewingmachine01a,eraser,violin,globe,belt02a,tern,cymbal,cd,greenolive,alligator,pear01,blankImage,blankImage,blankImage,blankImage,blankImage,tern,,,,,,,,,,,,0,21,21,177,,,,,,,,,,,,,,,,,,,,,,,,,,,,,,,,,,,323.49367890000576,324.5087193000363,324.47490210004617,325.0566253000288,325.0566253000288,None,326.54522960004397,None,right,0.9434427000232972,326.54522960004397,None,327.5112214999972,None,right,0.8095674999640323,327.5112214999972,None,,,,,,,,,,,,,,,,,,,,,,,PPT29,001,2022-07-05_10h02.02.762,ABstudy,2022.1.4,59.93698224451799,
AB,Lag5_T1P_T2A,5,P,A,8,13,7,5,18,telescope,Did you see the telescope?,0.12,0.016,JPG\,globe,broccoli01a,binoculars01b,iron01b,avocado01,dandelion,pineapple01a,handheldtelescope,fan,pizza,celery,blueberry01,sewingmachine01a,dice05a,watermelon01,candy,blankImage,handheldtelescope,,,,,,,,,,,,0,22,22,228,,,,,,,,,,,,,,,,,,,,,,,,,,,,,,,,,,,328.3510647000512,329.3630945000332,329.3464472000487,329.94115590001456,329.94115590001456,None,331.8928186999983,None,right,0.7791272000176832,331.8928186999983,None,332.6998022000189,None,right,1.4919549999758601,332.6998022000189,None,,,,,,,,,,,,,,,,,,,,,,,PPT29,001,2022-07-05_10h02.02.762,ABstudy,2022.1.4,59.93698224451799,
AB,Lag5_T1P_T2P,5,P,P,7,12,6,4,16,Wolf,Did you see the Wolf?,0.12,0.016,JPG\,brick,eraser,cucumber,ashtray01,thermometer02b,binoculars01b,greywolf,screwdriver04b,grape01,brownsugar,battery02b,stapler03b,dice05a,avocado01,birthdaycandle,watch02a,blankImage,greywolf,,,,,,,,,,,,0,23,23,89,,,,,,,,,,,,,,,,,,,,,,,,,,,,,,,,,,,334.2238933000481,335.2358008000301,335.2192532000481,335.7856923000072,335.7856923000072,None,337.7889836000395,None,left,0.786442700016778,337.7889836000395,None,338.60575940000126,None,left,0.5145755999838002,338.60575940000126,None,,,,,,,,,,,,,,,,,,,,,,,PPT29,001,2022-07-05_10h02.02.762,ABstudy,2022.1.4,59.93698224451799,
AB,Lag1_T1A_T2P,1,A,P,8,9,7,4,13,Toolbox,Did you see the Toolbox?,0.12,0.016,JPG\,pizza,printer02,medal02b,spoon01,grape01,lighter01,belt02a,watermelon01,stapler03b,battery02b,screw02,comb02a,cauliflower01,blankImage,blankImage,blankImage,blankImage,ladybug03,,,,,,,,,,,,0,24,24,237,,,,,,,,,,,,,,,,,,,,,,,,,,,,,,,,,,,339.1461468000198,340.15761200001,340.140896100027,340.74685320002027,340.74685320002027,None,342.3370717000216,None,right,0.7587673999951221,342.3370717000216,None,343.12729680002667,None,left,0.46545019996119663,343.12729680002667,None,,,,,,,,,,,,,,,,,,,,,,,PPT29,001,2022-07-05_10h02.02.762,ABstudy,2022.1.4,59.93698224451799,
AB,Lag5_T1P_T2P,5,P,P,8,13,7,5,18,Kiwi,Did you see the Kiwi?,0.12,0.016,JPG\,violin,pizza,toothbrush03b,pineapple01a,banana01,ashtray01,candy,kiwi03,clock04,sock01a,microscope,speaker04,stapler04b,sunglasses04,lipstick02a,blueberry01,blankImage,kiwi03,,,,,,,,,,,,0,25,25,111,,,,,,,,,,,,,,,,,,,,,,,,,,,,,,,,,,,343.6270623000455,344.62813980004285,344.61145250004483,345.2078773000394,345.2078773000394,None,347.1713496000157,None,left,2.2762851999723352,347.1713496000157,None,349.466319500003,None,right,1.2138532999670133,349.466319500003,None,,,,,,,,,,,,,,,,,,,,,,,PPT29,001,2022-07-05_10h02.02.762,ABstudy,2022.1.4,59.93698224451799,
AB,Lag1_T1A_T2P,1,A,P,7,8,6,5,13,Ant,Did you see the Ant?,0.12,0.016,JPG\,rice,watermelon01,tableknife02,scarf,computerkeyboard02,cauliflower01,battery02b,stapler03b,book01b,sandal,sponge01,microscope,tomato01,blankImage,blankImage,blankImage,blankImage,sandcastle,,,,,,,,,,,,0,26,26,242,,,,,,,,,,,,,,,,,,,,,,,,,,,,,,,,,,,350.70248660002835,351.7021377000492,351.6854266000446,352.27747300005285,352.27747300005285,None,353.8815416000434,None,right,0.7984693000325933,353.8815416000434,None,354.70627150003565,None,left,0.4371359000215307,354.70627150003565,None,,,,,,,,,,,,,,,,,,,,,,,PPT29,001,2022-07-05_10h02.02.762,ABstudy,2022.1.4,59.93698224451799,
AB,Lag5_T1A_T2A,5,A,A,5,10,4,5,15,flower,Did you see the flower?,0.12,0.016,JPG\,clock01a,cellphone,toaster01,toothbrush03b,cauliflower01,microscope,comb02a,paintbrush01,scarf,clock04,sponge01,iron01b,watch02a,celery,ring01,blankImage,blankImage,stepladder,,,,,,,,,,,,0,27,27,303,,,,,,,,,,,,,,,,,,,,,,,,,,,,,,,,,,,355.18122210004367,356.18942480004625,356.1727973000379,356.75919890002115,356.75919890002115,None,358.6280695000314,None,right,0.7073563999729231,358.6280695000314,None,359.3606249000295,None,right,0.6629881999688223,359.3606249000295,None,,,,,,,,,,,,,,,,,,,,,,,PPT29,001,2022-07-05_10h02.02.762,ABstudy,2022.1.4,59.93698224451799,
AB,Lag5_T1A_T2A,5,A,A,7,12,6,4,16,boxing glove,Did you see the boxing glove?,0.12,0.016,JPG\,cherry01,cymbal,envelope03a,foosballtable,shirt02,cellphone,sewingmachine01a,candle08b,battery02b,apple07,pencil01,screwdriver04b,strawberry,sunglasses04,feather03a,rice,blankImage,lollipop04,,,,,,,,,,,,0,28,28,296,,,,,,,,,,,,,,,,,,,,,,,,,,,,,,,,,,,360.05103910004254,361.06129600002896,361.0448303000303,361.61739460000535,361.61739460000535,None,363.5524394000531,None,right,1.0558935000444762,363.5524394000531,None,364.63152029999765,None,right,0.552565100020729,364.63152029999765,None,,,,,,,,,,,,,,,,,,,,,,,PPT29,001,2022-07-05_10h02.02.762,ABstudy,2022.1.4,59.93698224451799,
AB,Lag5_T1P_T2A,5,P,A,6,11,5,3,14,Balcony,Did you see the Balcony?,0.12,0.016,JPG\,tomato01,pen04b,shirt02,carrot01,lamp04a,balcony02,pizza,avocado01,sewingmachine01a,apple07,iron01b,book01b,chain01,sock01a,blankImage,blankImage,blankImage,balcony02,,,,,,,,,,,,0,29,29,207,,,,,,,,,,,,,,,,,,,,,,,,,,,,,,,,,,,365.2251019999967,366.2331725000404,366.21641330001876,366.81673060002504,366.81673060002504,None,368.5117659000098,None,left,0.9596534000011161,368.5117659000098,None,369.5036641000188,None,right,0.7603058000095189,369.5036641000188,None,,,,,,,,,,,,,,,,,,,,,,,PPT29,001,2022-07-05_10h02.02.762,ABstudy,2022.1.4,59.93698224451799,
AB,Lag5_T1P_T2P,5,P,P,8,13,7,3,16,Chefs hat,Did you see the Chefs hat?,0.12,0.016,JPG\,rice,watermelon01,tableknife02,scarf,computerkeyboard02,cauliflower01,battery02b,chefshat,book01b,sandal,sponge01,microscope,stapler01,fork03c,thermometer02b,apple07,blankImage,chefshat,,,,,,,,,,,,0,30,30,128,,,,,,,,,,,,,,,,,,,,,,,,,,,,,,,,,,,370.3034156000358,371.30492830002913,371.2883324000286,371.8704607000109,371.8704607000109,None,373.85885330004385,None,right,1.8694029999896884,373.85885330004385,None,375.75915180001175,None,left,0.4002137999632396,375.75915180001175,None,,,,,,,,,,,,,,,,,,,,,,,PPT29,001,2022-07-05_10h02.02.762,ABstudy,2022.1.4,59.93698224451799,
AB,Lag5_T1P_T2P,5,P,P,7,12,6,4,16,Bird feeder,Did you see the Bird feeder?,0.12,0.016,JPG\,watermelon01,banana01,ring01,pencil01,tomato01,speaker04,birdfeeder,thermometer02b,key01,foosballtable,violin,stapler06,clock04,dice05a,pen04b,mushroom01,blankImage,birdfeeder,,,,,,,,,,,,0,31,31,164,,,,,,,,,,,,,,,,,,,,,,,,,,,,,,,,,,,376.2416665000492,377.24424090003595,377.22755820001476,377.84828380000545,377.84828380000545,None,379.70971340005053,None,left,0.9295929000363685,379.70971340005053,None,380.66413430002285,None,right,2.4393004999728873,380.66413430002285,None,,,,,,,,,,,,,,,,,,,,,,,PPT29,001,2022-07-05_10h02.02.762,ABstudy,2022.1.4,59.93698224451799,
AB,Lag1_T1P_T2A,1,P,A,5,6,4,5,11,Toaster oven,Did you see the Toaster oven?,0.12,0.016,JPG\,fork03c,toothbrush03b,cellphone,fan,toasteroven,clock01a,ring01,eraser,sunglasses04,thermometer02b,violin,blankImage,blankImage,blankImage,blankImage,blankImage,blankImage,toasteroven,,,,,,,,,,,,0,32,32,200,,,,,,,,,,,,,,,,,,,,,,,,,,,,,,,,,,,383.13906090002274,384.15084660000866,384.134356100054,384.6983451000415,384.6983451000415,None,386.1014339000103,None,left,1.0904731000191532,386.1014339000103,None,387.2212542000343,None,right,0.6427578000002541,387.2212542000343,None,,,,,,,,,,,,,,,,,,,,,,,PPT29,001,2022-07-05_10h02.02.762,ABstudy,2022.1.4,59.93698224451799,
AB,Lag5_T1P_T2P,5,P,P,6,11,5,4,15,fish,Did you see the fish?,0.12,0.016,JPG\,sock01a,spoon01,alligator,comb02a,printer02,rockbass,lamp04a,cymbal,greenolive,computerkeyboard02,stapler03a,scarf,teabag,watermelon01,battery02b,blankImage,blankImage,rockbass,,,,,,,,,,,,0,33,33,115,,,,,,,,,,,,,,,,,,,,,,,,,,,,,,,,,,,387.89657660003286,388.905489900033,388.88884250004776,389.47374610003317,389.47374610003317,None,391.3228617000277,None,left,0.453650200041011,391.3228617000277,None,391.80875480000395,None,left,0.5519908000133,391.80875480000395,None,,,,,,,,,,,,,,,,,,,,,,,PPT29,001,2022-07-05_10h02.02.762,ABstudy,2022.1.4,59.93698224451799,
AB,Lag5_T1P_T2P,5,P,P,6,11,5,4,15,Witch hat,Did you see the Witch hat?,0.12,0.016,JPG\,pizza,watch02a,greenolive,cucumber,match,witchhat,scissors01,broom01,globe,cherry01,stapler03a,cigarette,microscope,cellphone,speaker04,blankImage,blankImage,witchhat,,,,,,,,,,,,0,34,34,101,,,,,,,,,,,,,,,,,,,,,,,,,,,,,,,,,,,392.3997549000196,393.4102646000101,393.39351480000187,394.0125368000008,394.0125368000008,None,395.76534730003914,None,left,1.0591317999642342,395.76534730003914,None,396.8479641000158,None,right,0.6638711999985389,396.8479641000158,None,,,,,,,,,,,,,,,,,,,,,,,PPT29,001,2022-07-05_10h02.02.762,ABstudy,2022.1.4,59.93698224451799,
AB,Lag5_T1P_T2P,5,P,P,7,12,6,5,17,Pigeon,Did you see the Pigeon?,0.12,0.016,JPG\,strawberry,leaf02a,clock04,candle01,avocado01,paintbrush01,pigeon,brownsugar,ring01,lemon02,fork03c,stapler01,cauliflower01,tableknife02,tennisball01b,thermometer02b,blankImage,pigeon,,,,,,,,,,,,0,35,35,151,,,,,,,,,,,,,,,,,,,,,,,,,,,,,,,,,,,397.5424459000351,398.5482608000166,398.53160919999937,399.12182480003685,399.12182480003685,None,401.06528510001954,None,left,0.4545835999888368,401.06528510001954,None,401.55145850003464,None,left,0.5453952000243589,401.55145850003464,None,,,,,,,,,,,,,,,,,,,,,,,PPT29,001,2022-07-05_10h02.02.762,ABstudy,2022.1.4,59.93698224451799,
AB,Lag5_T1A_T2P,5,A,P,6,11,5,3,14,keys,Did you see the keys?,0.12,0.016,JPG\,pencil01,microscope,banana01,computerkeyboard02,celery,cellphone,scissors01,sock01a,book01b,onion,stapler03a,binoculars01b,baseball01a,iron01b,blankImage,blankImage,blankImage,treadmill,,,,,,,,,,,,0,36,36,275,,,,,,,,,,,,,,,,,,,,,,,,,,,,,,,,,,,402.1211758000427,403.13639960001456,403.10301930003334,403.684805100027,403.684805100027,None,405.408986800001,None,right,1.4713366000214592,405.408986800001,None,406.9069431000389,None,left,1.196448699978646,406.9069431000389,None,,,,,,,,,,,,,,,,,,,,,,,PPT29,001,2022-07-05_10h02.02.762,ABstudy,2022.1.4,59.93698224451799,
AB,Lag1_T1P_T2P,1,P,P,8,9,7,4,13,Bird House,Did you see the Bird House?,0.12,0.016,JPG\,toiletpaper01a,mushroom01,medal02b,sandal,rice,cd,feather03a,birdhouse,stapler01,garlic01a,toaster01,belt02a,cigarette,blankImage,blankImage,blankImage,blankImage,birdhouse,,,,,,,,,,,,0,37,37,77,,,,,,,,,,,,,,,,,,,,,,,,,,,,,,,,,,,408.1332223000354,409.14248410001164,409.12585420004325,409.700386200042,409.700386200042,None,411.26730430003954,None,left,1.300264299963601,411.26730430003954,None,412.5959450000082,None,left,0.42866590002086014,412.5959450000082,None,,,,,,,,,,,,,,,,,,,,,,,PPT29,001,2022-07-05_10h02.02.762,ABstudy,2022.1.4,59.93698224451799,
AB,Lag5_T1A_T2P,5,A,P,7,12,6,4,16,ear,Did you see the ear?,0.12,0.016,JPG\,candle01,shirt02,brick,orange,greenolive,toothbrush03b,pizza,thermometer02b,book01b,toiletpaper01a,sewingmachine01a,stapler01,candy,cymbal,potato02b,plate01b,blankImage,chair,,,,,,,,,,,,0,38,38,257,,,,,,,,,,,,,,,,,,,,,,,,,,,,,,,,,,,413.0493784000282,414.06409470003564,414.0306824000436,414.6093036000384,414.6093036000384,None,416.55589150002925,None,right,1.5633076999802142,416.55589150002925,None,418.15134229999967,None,left,0.4565647999988869,418.15134229999967,None,,,,,,,,,,,,,,,,,,,,,,,PPT29,001,2022-07-05_10h02.02.762,ABstudy,2022.1.4,59.93698224451799,
AB,Lag5_T1P_T2P,5,P,P,8,13,7,4,17,cruise ship,Did you see the cruise ship?,0.12,0.016,JPG\,measuringcup01,dice05a,greenolive,lipstick02a,feather03a,balloon01b,lighter01,cruiseship,carrot01,plate01b,microscope,brick,stapler05,screw02,speaker04,spoon01,blankImage,cruiseship,,,,,,,,,,,,0,39,39,105,,,,,,,,,,,,,,,,,,,,,,,,,,,,,,,,,,,418.6393994000391,419.6528692000429,419.6360887000337,420.22102050000103,420.22102050000103,None,422.23201420000987,None,left,1.1039375999826007,422.23201420000987,None,423.3565075000515,None,right,1.2514339999761432,423.3565075000515,None,,,,,,,,,,,,,,,,,,,,,,,PPT29,001,2022-07-05_10h02.02.762,ABstudy,2022.1.4,59.93698224451799,
AB,Lag5_T1A_T2P,5,A,P,7,12,6,3,15,Car,Did you see the Car?,0.12,0.016,JPG\,lighter01,hammer01,spoon01,chain01,cymbal,sponge01,lipstick02a,alligator,pig,watermelon01,cauliflower01,stapler03b,broccoli01a,tableknife02,tennisball01b,blankImage,blankImage,wallclock,,,,,,,,,,,,0,40,40,277,,,,,,,,,,,,,,,,,,,,,,,,,,,,,,,,,,,424.62704120000126,425.6421854000073,425.60880780004663,426.1845451000263,426.1845451000263,None,428.004992400005,None,right,0.93895069998689,428.004992400005,None,428.96210160001647,None,left,0.7095237999456003,428.96210160001647,None,,,,,,,,,,,,,,,,,,,,,,,PPT29,001,2022-07-05_10h02.02.762,ABstudy,2022.1.4,59.93698224451799,
AB,Lag1_T1P_T2P,1,P,P,5,6,4,5,11,Light switch,Did you see the Light switch?,0.12,0.016,JPG\,iron01b,orange,birthdaycandle,potato02b,lightswitch01,stapler03b,key01,candle08b,celery,tableknife02,pen04b,blankImage,blankImage,blankImage,blankImage,blankImage,blankImage,lightswitch01,,,,,,,,,,,,0,41,41,18,,,,,,,,,,,,,,,,,,,,,,,,,,,,,,,,,,,429.7435161000467,430.7474575000233,430.73072580003645,431.34630710002966,431.34630710002966,None,432.6290485000354,None,left,0.9949243000010028,432.6290485000354,None,433.650316400046,None,right,0.5258763999445364,433.650316400046,None,,,,,,,,,,,,,,,,,,,,,,,PPT29,001,2022-07-05_10h02.02.762,ABstudy,2022.1.4,59.93698224451799,
AB,Lag5_T1P_T2P,5,P,P,7,12,6,4,16,flower,Did you see the flower?,0.12,0.016,JPG\,cucumber,sponge01,alligator,pear01,ashtray01,hammer01,hibiscusflower02,battery02b,fork03c,binoculars01b,mushroom01,stapler01,leaf02a,acorn,comb02a,screwdriver04b,blankImage,hibiscusflower02,,,,,,,,,,,,0,42,42,132,,,,,,,,,,,,,,,,,,,,,,,,,,,,,,,,,,,434.2042078000377,435.2184887000476,435.20176860003266,435.84302850003587,435.7687346000457,None,437.7902255000081,None,left,0.5450791000039317,437.7902255000081,None,438.3552338000154,None,left,0.564644500031136,438.3552338000154,None,,,,,,,,,,,,,,,,,,,,,,,PPT29,001,2022-07-05_10h02.02.762,ABstudy,2022.1.4,59.93698224451799,
AB,Lag5_T1P_T2P,5,P,P,5,10,4,5,15,rake,Did you see the rake?,0.12,0.016,JPG\,scissors01,grape01,mushroom01,toiletpaper01a,leafrake,pizza,cigarette,ashtray01,carrot01,stapler03b,foosballtable,lipstick02a,teabag,acorn,potato02b,blankImage,blankImage,leafrake,,,,,,,,,,,,0,43,43,92,,,,,,,,,,,,,,,,,,,,,,,,,,,,,,,,,,,438.94119010004215,439.95633360004285,439.923020700051,440.4933033999987,440.4933033999987,None,442.37573830003385,None,left,0.8075500999693759,442.37573830003385,None,443.2098499000422,None,right,0.4217443999950774,443.2098499000422,None,,,,,,,,,,,,,,,,,,,,,,,PPT29,001,2022-07-05_10h02.02.762,ABstudy,2022.1.4,59.93698224451799,
AB,Lag1_T1P_T2P,1,P,P,6,7,5,5,12,exit sign,Did you see the exit sign?,0.12,0.016,JPG\,printer02,envelope03a,potato02b,calculator01,tableknife02,exitsign,stapler01,pig,broom01,greenolive,candle08b,battery02b,blankImage,blankImage,blankImage,blankImage,blankImage,exitsign,,,,,,,,,,,,0,44,44,41,,,,,,,,,,,,,,,,,,,,,,,,,,,,,,,,,,,443.66203970002243,444.67777000000933,444.64433239999926,445.23977939999895,445.23977939999895,None,446.6874821000383,None,left,0.8883446999825537,446.6874821000383,None,447.59730370005127,None,right,2.058129300014116,447.59730370005127,None,,,,,,,,,,,,,,,,,,,,,,,PPT29,001,2022-07-05_10h02.02.762,ABstudy,2022.1.4,59.93698224451799,
AB,Lag5_T1A_T2A,5,A,A,5,10,4,5,15,sword,Did you see the sword?,0.12,0.016,JPG\,pencil01,broccoli01a,button01,sponge01,watermelon01,lipstick02a,comb02a,fan,lighter01,sock01a,spoon01,blueberry01,belt02a,onion,grape01,blankImage,blankImage,parachute,,,,,,,,,,,,0,45,45,298,,,,,,,,,,,,,,,,,,,,,,,,,,,,,,,,,,,449.69781070004683,450.70033970003715,450.6670107000391,451.2350942000048,451.2350942000048,None,453.0927523000282,None,right,0.8351842999691144,453.0927523000282,None,453.95385500002885,None,right,0.4372447999776341,453.95385500002885,None,,,,,,,,,,,,,,,,,,,,,,,PPT29,001,2022-07-05_10h02.02.762,ABstudy,2022.1.4,59.93698224451799,
AB,Lag1_T1A_T2P,1,A,P,5,6,4,3,9,chimney,Did you see the chimney?,0.12,0.016,JPG\,cucumber,sponge01,alligator,pear01,ashtray01,stapler06,clock04,battery02b,fork03c,blankImage,blankImage,blankImage,blankImage,blankImage,blankImage,blankImage,blankImage,trophy01,,,,,,,,,,,,0,46,46,246,,,,,,,,,,,,,,,,,,,,,,,,,,,,,,,,,,,454.4255044000456,455.4386126000318,455.42190980003215,456.0096668000333,456.0096668000333,None,457.1189629000146,None,right,1.44031640002504,457.1189629000146,None,458.59180660004495,None,right,1.071655199979432,458.59180660004495,None,,,,,,,,,,,,,,,,,,,,,,,PPT29,001,2022-07-05_10h02.02.762,ABstudy,2022.1.4,59.93698224451799,
AB,Lag5_T1P_T2P,5,P,P,5,10,4,3,13,Jellyfish,Did you see the Jellyfish?,0.12,0.016,JPG\,printer02,envelope03a,potato02b,calculator01,jellyfish,cigarette,ashtray01,pig,broom01,stapler06,candle08b,battery02b,strawberry,blankImage,blankImage,blankImage,blankImage,jellyfish,,,,,,,,,,,,0,47,47,91,,,,,,,,,,,,,,,,,,,,,,,,,,,,,,,,,,,459.70208800002,460.7106638000114,460.69376980001107,461.2626382000162,461.2626382000162,None,462.8599114000099,None,left,0.5153286000131629,462.8599114000099,None,463.39694450004026,None,left,0.5949631000403315,463.39694450004026,None,,,,,,,,,,,,,,,,,,,,,,,PPT29,001,2022-07-05_10h02.02.762,ABstudy,2022.1.4,59.93698224451799,
AB,Lag1_T1P_T2P,1,P,P,5,6,4,3,9,hockey stick,Did you see the hockey stick?,0.12,0.016,JPG\,violin,pizza,toothbrush03b,pineapple01a,hockeystick,stapler03b,candy,dandelion,clock04,blankImage,blankImage,blankImage,blankImage,blankImage,blankImage,blankImage,blankImage,hockeystick,,,,,,,,,,,,0,48,48,63,,,,,,,,,,,,,,,,,,,,,,,,,,,,,,,,,,,464.0158636000124,465.0313067000243,464.99792180000804,465.5752643000451,465.5752643000451,None,466.72260640002787,None,left,0.9803083000006154,466.72260640002787,None,467.733993700007,None,right,1.4897791999974288,467.733993700007,None,,,,,,,,,,,,,,,,,,,,,,,PPT29,001,2022-07-05_10h02.02.762,ABstudy,2022.1.4,59.93698224451799,
AB,Lag5_T1P_T2P,5,P,P,7,12,6,5,17,elbow,Did you see the elbow?,0.12,0.016,JPG\,candle01,fork03c,plate01b,violin,computerkeyboard02,candy,elbow,paintbrush01,cherry01,sock01a,teabag,stapler01,cd,lighter01,book01b,tennisball01b,blankImage,elbow,,,,,,,,,,,,0,49,49,87,,,,,,,,,,,,,,,,,,,,,,,,,,,,,,,,,,,469.2546728000161,470.2698917000089,470.23652650002623,470.80585940001765,470.80585940001765,None,472.77496330003487,None,left,0.42512229998828843,472.77496330003487,None,473.22284990001936,None,left,0.5523438999662176,473.22284990001936,None,,,,,,,,,,,,,,,,,,,,,,,PPT29,001,2022-07-05_10h02.02.762,ABstudy,2022.1.4,59.93698224451799,
AB,Lag5_T1A_T2P,5,A,P,5,10,4,4,14,Chefs hat,Did you see the Chefs hat?,0.12,0.016,JPG\,candle01,fork03c,plate01b,violin,computerkeyboard02,candy,calculator01,paintbrush01,cherry01,stapler06,teabag,banana01,cd,lighter01,blankImage,blankImage,blankImage,horseshoe,,,,,,,,,,,,0,50,50,278,,,,,,,,,,,,,,,,,,,,,,,,,,,,,,,,,,,473.8142492000479,474.82465530000627,474.80796980002197,475.41281540005,475.41281540005,None,477.08963920001406,None,right,2.3506694000097923,477.08963920001406,None,479.46262250002474,None,left,0.7363059000344947,479.46262250002474,None,,,,,,,,,,,,,,,,,,,,,,,PPT29,001,2022-07-05_10h02.02.762,ABstudy,2022.1.4,59.93698224451799,
AB,Lag5_T1P_T2A,5,P,A,5,10,4,3,13,pin,Did you see the pin?,0.12,0.016,JPG\,candle01,fork03c,plate01b,violin,pin,candy,calculator01,paintbrush01,cherry01,sock01a,teabag,banana01,cd,blankImage,blankImage,blankImage,blankImage,pin,,,,,,,,,,,,0,51,51,215,,,,,,,,,,,,,,,,,,,,,,,,,,,,,,,,,,,480.2308591000037,481.2309358000057,481.2143933000043,481.7725134000066,481.7725134000066,None,483.4241904000519,None,right,0.8550745000247844,483.4241904000519,None,484.30051770003047,None,right,0.6184929999872111,484.30051770003047,None,,,,,,,,,,,,,,,,,,,,,,,PPT29,001,2022-07-05_10h02.02.762,ABstudy,2022.1.4,59.93698224451799,
AB,Lag1_T1P_T2A,1,P,A,5,6,4,4,10,paper airplane,Did you see the paper airplane?,0.12,0.016,JPG\,thermometer02b,avocado01,scissors01,tennisball01b,paperairplane,banana01,strawberry,cigarette,potato02b,pineapple01a,blankImage,blankImage,blankImage,blankImage,blankImage,blankImage,blankImage,paperairplane,,,,,,,,,,,,0,52,52,191,,,,,,,,,,,,,,,,,,,,,,,,,,,,,,,,,,,484.9557920000516,485.96944270003587,485.9527796000475,486.58375710004475,486.58375710004475,None,487.7581170000485,None,left,0.7456264999927953,487.7581170000485,None,488.52165090001654,None,right,0.4786615999764763,488.52165090001654,None,,,,,,,,,,,,,,,,,,,,,,,PPT29,001,2022-07-05_10h02.02.762,ABstudy,2022.1.4,59.93698224451799,
AB,Lag5_T1P_T2P,5,P,P,5,10,4,5,15,Bee,Did you see the Bee?,0.12,0.016,JPG\,fork03c,dandelion,dice05a,belt02a,honeybee,watch02a,key01,globe,eraser,stapler03a,greenolive,shirt02,candle08b,cigarette,garlic01a,blankImage,blankImage,honeybee,,,,,,,,,,,,0,53,53,149,,,,,,,,,,,,,,,,,,,,,,,,,,,,,,,,,,,489.02835190005135,490.03981889999704,490.0230455000419,490.58757200004766,490.58757200004766,None,492.4812918000389,None,left,0.39773679996142164,492.4812918000389,None,492.90902370004915,None,left,0.569936299987603,492.90902370004915,None,,,,,,,,,,,,,,,,,,,,,,,PPT29,001,2022-07-05_10h02.02.762,ABstudy,2022.1.4,59.93698224451799,
AB,Lag5_T1P_T2P,5,P,P,6,11,5,5,16,motorcycle,Did you see the motorcycle?,0.12,0.016,JPG\,cucumber,ring01,lipstick02a,microscope,violin,motorcycle,celery,lighter01,cherry01,sewingmachine01a,stapler04b,key01,binoculars01b,medal02b,watermelon01,dice05a,blankImage,motorcycle,,,,,,,,,,,,0,54,54,93,,,,,,,,,,,,,,,,,,,,,,,,,,,,,,,,,,,493.51231010002084,494.5273318000254,494.4939367000479,495.0659857999999,495.0659857999999,None,497.0297435000539,None,left,0.41787720000138506,497.0297435000539,None,497.4651662000106,None,left,0.6069913000101224,497.4651662000106,None,,,,,,,,,,,,,,,,,,,,,,,PPT29,001,2022-07-05_10h02.02.762,ABstudy,2022.1.4,59.93698224451799,
AB,Lag1_T1A_T2A,1,A,A,5,6,4,3,9,Pigeon,Did you see the Pigeon?,0.12,0.016,JPG\,candle01,paintbrush01,scissors01,fan,microscope,toothbrush03b,candle08b,watermelon01,teabag,blankImage,blankImage,blankImage,blankImage,blankImage,blankImage,blankImage,blankImage,floorlamp,,,,,,,,,,,,0,55,55,286,,,,,,,,,,,,,,,,,,,,,,,,,,,,,,,,,,,498.1031979000545,499.11538980004843,499.09877770004096,499.6717534000054,499.6717534000054,None,500.7530713000451,None,right,0.7502070999471471,500.7530713000451,None,501.53501180000603,None,right,0.5124909000005573,501.53501180000603,None,,,,,,,,,,,,,,,,,,,,,,,PPT29,001,2022-07-05_10h02.02.762,ABstudy,2022.1.4,59.93698224451799,
AB,Lag5_T1P_T2P,5,P,P,5,10,4,4,14,Salt shaker,Did you see the Salt shaker?,0.12,0.016,JPG\,fork03c,belt02a,grape01,computerkeyboard02,saltshaker03a,printer02,broom01,toiletpaper01a,toaster01,stapler01,book01b,blueberry01,spoon01,apple07,blankImage,blankImage,blankImage,saltshaker03a,,,,,,,,,,,,0,56,56,96,,,,,,,,,,,,,,,,,,,,,,,,,,,,,,,,,,,502.0814846000285,503.0864901000168,503.06979960005265,503.68207520002034,503.68207520002034,None,505.3736088000005,None,left,0.47397480002837256,505.3736088000005,None,505.87213090003934,None,left,0.5352603999781422,505.87213090003934,None,,,,,,,,,,,,,,,,,,,,,,,PPT29,001,2022-07-05_10h02.02.762,ABstudy,2022.1.4,59.93698224451799,
AB,Lag1_T1P_T2P,1,P,P,7,8,6,3,11,tree,Did you see the tree?,0.12,0.016,JPG\,pear01,clock01a,cymbal,match,ashtray01,globe,tree,stapler03b,lemon02,pen04b,dice05a,blankImage,blankImage,blankImage,blankImage,blankImage,blankImage,tree,,,,,,,,,,,,0,57,57,51,,,,,,,,,,,,,,,,,,,,,,,,,,,,,,,,,,,506.4423239000025,507.45704820001265,507.42369580001105,507.9943442000076,507.9943442000076,None,509.40360780002084,None,left,0.780027800006792,509.40360780002084,None,510.21106520004105,None,right,0.42057880002539605,510.21106520004105,None,,,,,,,,,,,,,,,,,,,,,,,PPT29,001,2022-07-05_10h02.02.762,ABstudy,2022.1.4,59.93698224451799,
AB,Lag5_T1P_T2P,5,P,P,6,11,5,3,14,shower head,Did you see the shower head?,0.12,0.016,JPG\,belt02a,measuringcup01,spoon01,chain01,greenolive,showerhead01,computerkeyboard02,onion,fan,strawberry,stapler01,broom01,binoculars01b,ashtray01,blankImage,blankImage,blankImage,showerhead01,,,,,,,,,,,,0,58,58,98,,,,,,,,,,,,,,,,,,,,,,,,,,,,,,,,,,,510.6627570000128,511.678034200042,511.6446303999983,512.216329500021,512.216329500021,None,513.9346611000365,None,left,0.39251039997907355,513.9346611000365,None,514.3471493000397,None,left,0.469235300028231,514.3471493000397,None,,,,,,,,,,,,,,,,,,,,,,,PPT29,001,2022-07-05_10h02.02.762,ABstudy,2022.1.4,59.93698224451799,
AB,Lag5_T1P_T2A,5,P,A,8,13,7,4,17,fountain,Did you see the fountain?,0.12,0.016,JPG\,printer02,envelope03a,potato02b,calculator01,tableknife02,cigarette,ashtray01,parkfountain,broom01,greenolive,candle08b,battery02b,strawberry,candle01,foosballtable,tennisball01b,blankImage,parkfountain,,,,,,,,,,,,0,59,59,219,,,,,,,,,,,,,,,,,,,,,,,,,,,,,,,,,,,514.8513311000424,515.8655115000438,515.8488120000111,516.4408998000436,516.4408998000436,None,518.4216789000202,None,left,0.7376965999719687,518.4216789000202,None,519.1852517000516,None,right,0.4458112000138499,519.1852517000516,None,,,,,,,,,,,,,,,,,,,,,,,PPT29,001,2022-07-05_10h02.02.762,ABstudy,2022.1.4,59.93698224451799,
AB,Lag1_T1P_T2P,1,P,P,5,6,4,5,11,owl,Did you see the owl?,0.12,0.016,JPG\,cellphone,tomato01,comb02a,candy,barnowl,stapler03a,toaster01,fan,feather03a,pen04b,lemon02,blankImage,blankImage,blankImage,blankImage,blankImage,blankImage,barnowl,,,,,,,,,,,,0,60,60,33,,,,,,,,,,,,,,,,,,,,,,,,,,,,,,,,,,,519.6546791000292,520.6700801000115,520.6367160000373,521.2149926000275,521.2149926000275,None,522.613053100009,None,left,0.51376679999521,522.613053100009,None,523.1558581000427,None,left,0.42849240003852174,523.1558581000427,None,,,,,,,,,,,,,,,,,,,,,,,PPT29,001,2022-07-05_10h02.02.762,ABstudy,2022.1.4,59.93698224451799,
AB,Lag1_T1P_T2P,1,P,P,6,7,5,4,11,no parking sign,Did you see the no parking sign?,0.12,0.016,JPG\,fork03c,belt02a,grape01,computerkeyboard02,lemon02,parkingsign,stapler05,toiletpaper01a,toaster01,lipstick02a,book01b,blankImage,blankImage,blankImage,blankImage,blankImage,blankImage,parkingsign,,,,,,,,,,,,0,61,61,47,,,,,,,,,,,,,,,,,,,,,,,,,,,,,,,,,,,523.6063826000318,524.6072590000113,524.5905865000095,525.1581884000334,525.1581884000334,None,526.5467217999976,None,left,1.1087386999861337,526.5467217999976,None,527.6769967,None,right,1.2342272999812849,527.6769967,None,,,,,,,,,,,,,,,,,,,,,,,PPT29,001,2022-07-05_10h02.02.762,ABstudy,2022.1.4,59.93698224451799,
AB,Lag5_T1P_T2P,5,P,P,8,13,7,5,18,sock,Did you see the sock?,0.12,0.016,JPG\,thermometer02b,avocado01,scissors01,tennisball01b,medal02b,banana01,strawberry,athleticsock,potato02b,pineapple01a,microscope,cymbal,stapler03b,celery,garlic01a,sunglasses04,blankImage,athleticsock,,,,,,,,,,,,0,62,62,141,,,,,,,,,,,,,,,,,,,,,,,,,,,,,,,,,,,528.9305610000156,529.945956600015,529.9125974000199,530.5015163000207,530.5015163000207,None,532.427600199997,None,left,0.6841117999865673,532.427600199997,None,533.1324716000236,None,left,0.41903390001971275,533.1324716000236,None,,,,,,,,,,,,,,,,,,,,,,,PPT29,001,2022-07-05_10h02.02.762,ABstudy,2022.1.4,59.93698224451799,
AB,Lag5_T1P_T2P,5,P,P,7,12,6,3,15,mail box,Did you see the mail box?,0.12,0.016,JPG\,key01,apple07,ring01,leaf02a,hammer01,tableknife02,postalmailbox01,sponge01,baseball01a,thermometer02b,celery,stapler06,grape01,cucumber,tennisball01b,blankImage,blankImage,postalmailbox01,,,,,,,,,,,,0,63,63,113,,,,,,,,,,,,,,,,,,,,,,,,,,,,,,,,,,,533.5851866000448,534.6006471000146,534.5672086999984,535.1564055000199,535.1564055000199,None,536.9630316000548,None,left,2.340063099982217,536.9630316000548,None,539.322222900053,None,left,1.0771487000165507,539.322222900053,None,,,,,,,,,,,,,,,,,,,,,,,PPT29,001,2022-07-05_10h02.02.762,ABstudy,2022.1.4,59.93698224451799,
AB,Lag1_T1A_T2A,1,A,A,8,9,7,4,13,Recycling bin,Did you see the Recycling bin?,0.12,0.016,JPG\,brick,plate01b,pen04b,toaster01,screwdriver04b,candle01,envelope03a,feather03a,pig,ring01,orange,clock01a,lighter01,blankImage,blankImage,blankImage,blankImage,bumpercar,,,,,,,,,,,,0,64,64,292,,,,,,,,,,,,,,,,,,,,,,,,,,,,,,,,,,,540.4307926000329,541.4409722000128,541.4243102000328,541.9927518000477,541.9927518000477,None,543.6143579000491,None,right,0.7210556999780238,543.6143579000491,None,544.3603135000449,None,right,0.8868378999759443,544.3603135000449,None,,,,,,,,,,,,,,,,,,,,,,,PPT29,001,2022-07-05_10h02.02.762,ABstudy,2022.1.4,59.93698224451799,
AB,Lag1_T1P_T2P,1,P,P,7,8,6,4,12,Dog House,Did you see the Dog House?,0.12,0.016,JPG\,pineapple01a,leaf02a,grape01,toiletpaper01a,match,tennisball01b,doghouse,stapler03b,pig,measuringcup01,ring01,lemon02,blankImage,blankImage,blankImage,blankImage,blankImage,doghouse,,,,,,,,,,,,0,65,65,44,,,,,,,,,,,,,,,,,,,,,,,,,,,,,,,,,,,545.2844425000367,546.2957406000351,546.2790389000438,546.9031056000385,546.9031056000385,None,548.3131221000222,None,left,0.6472351999836974,548.3131221000222,None,548.9817611000035,None,right,0.4735450000152923,548.9817611000035,None,,,,,,,,,,,,,,,,,,,,,,,PPT29,001,2022-07-05_10h02.02.762,ABstudy,2022.1.4,59.93698224451799,
AB,Lag1_T1P_T2P,1,P,P,5,6,4,5,11,beaver,Did you see the beaver?,0.12,0.016,JPG\,belt02a,sunglasses04,computerkeyboard02,cherry01,beaver,stapler03a,watch02a,dice05a,blueberry01,spoon01,match,blankImage,blankImage,blankImage,blankImage,blankImage,blankImage,beaver,,,,,,,,,,,,0,66,66,55,,,,,,,,,,,,,,,,,,,,,,,,,,,,,,,,,,,549.4879586000461,550.4996599000297,550.4830537000089,551.070087900036,551.070087900036,None,552.3956376000424,None,left,0.48410979995969683,552.3956376000424,None,552.9021578000393,None,left,0.5935290000052191,552.9021578000393,None,,,,,,,,,,,,,,,,,,,,,,,PPT29,001,2022-07-05_10h02.02.762,ABstudy,2022.1.4,59.93698224451799,
AB,Lag5_T1P_T2P,5,P,P,7,12,6,3,15,marble,Did you see the marble?,0.12,0.016,JPG\,cigarette,ashtray01,envelope03a,sandal,chain01,cucumber,marble,tomato01,dandelion,candle01,lemon02,stapler03b,potato02b,cymbal,clock01a,blankImage,blankImage,marble,,,,,,,,,,,,0,67,67,146,,,,,,,,,,,,,,,,,,,,,,,,,,,,,,,,,,,553.5216893000179,554.5371338000405,554.5037765000015,555.090517100005,555.090517100005,None,556.9362553000101,None,left,0.4875422000186518,556.9362553000101,None,557.4411514000385,None,left,0.5018479999853298,557.4411514000385,None,,,,,,,,,,,,,,,,,,,,,,,PPT29,001,2022-07-05_10h02.02.762,ABstudy,2022.1.4,59.93698224451799,
AB,Lag1_T1P_T2P,1,P,P,5,6,4,3,9,dolphin,Did you see the dolphin?,0.12,0.016,JPG\,pig,belt02a,rice,screwdriver04b,dolphin01,stapler05,candle08b,pear01,feather03a,blankImage,blankImage,blankImage,blankImage,blankImage,blankImage,blankImage,blankImage,dolphin01,,,,,,,,,,,,0,68,68,10,,,,,,,,,,,,,,,,,,,,,,,,,,,,,,,,,,,558.0311182000441,559.0418816000456,559.0251889000065,559.5263153000269,559.5263153000269,None,560.6166871000314,None,left,0.5107916999841109,560.6166871000314,None,561.1439186000498,None,left,0.49531869997736067,561.1439186000498,None,,,,,,,,,,,,,,,,,,,,,,,PPT29,001,2022-07-05_10h02.02.762,ABstudy,2022.1.4,59.93698224451799,
AB,Lag1_T1P_T2A,1,P,A,6,7,5,4,11,bird,Did you see the bird?,0.12,0.016,JPG\,foosballtable,candy,envelope03a,microscope,pencil01,cedarwaxwing,scissors01,watermelon01,grape01,dandelion,pineapple01a,blankImage,blankImage,blankImage,blankImage,blankImage,blankImage,cedarwaxwing,,,,,,,,,,,,0,69,69,182,,,,,,,,,,,,,,,,,,,,,,,,,,,,,,,,,,,561.661113500013,562.6624428000068,562.6457581000286,563.1456869000103,563.1456869000103,None,564.6461317000212,None,left,1.7859515000018291,564.6461317000212,None,566.4492744000163,None,right,4.37357970001176,566.4492744000163,None,,,,,,,,,,,,,,,,,,,,,,,PPT29,001,2022-07-05_10h02.02.762,ABstudy,2022.1.4,59.93698224451799,
AB,Lag1_T1P_T2P,1,P,P,7,8,6,4,12,trophy,Did you see the trophy?,0.12,0.016,JPG\,cherry01,cymbal,envelope03a,foosballtable,shirt02,cellphone,trophy01,stapler04b,battery02b,apple07,pencil01,screwdriver04b,blankImage,blankImage,blankImage,blankImage,blankImage,trophy01,,,,,,,,,,,,0,70,70,74,,,,,,,,,,,,,,,,,,,,,,,,,,,,,,,,,,,570.8550145000336,571.8541256000171,571.8374867000384,572.4115119000198,572.4115119000198,None,573.8735492000123,None,left,0.7411630999995396,573.8735492000123,None,574.6417395000462,None,right,0.4458674000343308,574.6417395000462,None,,,,,,,,,,,,,,,,,,,,,,,PPT29,001,2022-07-05_10h02.02.762,ABstudy,2022.1.4,59.93698224451799,
AB,Lag5_T1P_T2P,5,P,P,6,11,5,5,16,scooter,Did you see the scooter?,0.12,0.016,JPG\,thermometer02b,candle08b,comb02a,toothbrush03b,brick,scooter,key01,pineapple01a,candy,birthdaycandle,stapler04b,canoftennisballs,teabag,medal02b,balloon01b,banana01,blankImage,scooter,,,,,,,,,,,,0,71,71,118,,,,,,,,,,,,,,,,,,,,,,,,,,,,,,,,,,,575.115397000045,576.1252703000209,576.1085992000299,576.6922528000432,576.6922528000432,None,578.6711787000531,None,left,0.6644501000409946,578.6711787000531,None,579.3618571000407,None,right,0.41360139998141676,579.3618571000407,None,,,,,,,,,,,,,,,,,,,,,,,PPT29,001,2022-07-05_10h02.02.762,ABstudy,2022.1.4,59.93698224451799,
AB,Lag1_T1P_T2P,1,P,P,8,9,7,4,13,crab,Did you see the crab?,0.12,0.016,JPG\,candle01,fork03c,plate01b,violin,computerkeyboard02,candy,calculator01,crab01,stapler04b,sock01a,teabag,banana01,cd,blankImage,blankImage,blankImage,blankImage,crab01,,,,,,,,,,,,0,72,72,37,,,,,,,,,,,,,,,,,,,,,,,,,,,,,,,,,,,579.7992713000276,580.813491500041,580.7967934000189,581.4218384000123,581.353874500026,None,582.9945966000087,None,left,0.5242422000155784,582.9945966000087,None,583.5489816000336,None,left,0.434565500007011,583.5489816000336,None,,,,,,,,,,,,,,,,,,,,,,,PPT29,001,2022-07-05_10h02.02.762,ABstudy,2022.1.4,59.93698224451799,
AB,Lag1_T1P_T2A,1,P,A,7,8,6,4,12,Steering wheel,Did you see the Steering wheel?,0.12,0.016,JPG\,alligator,banana01,apple07,tomato01,button01,spoon01,steeringwheel,fork03c,canoftennisballs,potato02b,grape01,leaf02a,blankImage,blankImage,blankImage,blankImage,blankImage,steeringwheel,,,,,,,,,,,,0,73,73,198,,,,,,,,,,,,,,,,,,,,,,,,,,,,,,,,,,,584.0139220000128,585.0180575000122,585.001307700004,585.5025832000538,585.5025832000538,None,587.0465972000384,None,left,0.6322535000508651,587.0465972000384,None,587.703362100001,None,right,0.46325879998039454,587.703362100001,None,,,,,,,,,,,,,,,,,,,,,,,PPT29,001,2022-07-05_10h02.02.762,ABstudy,2022.1.4,59.93698224451799,
AB,Lag5_T1P_T2P,5,P,P,6,11,5,5,16,sword,Did you see the sword?,0.12,0.016,JPG\,chain01,speaker04,avocado01,watermelon01,scarf,sword01,lamp04a,fork03c,toaster01,slipper03b,stapler03a,cucumber,teabag,ashtray01,computerkeyboard02,book01b,blankImage,sword01,,,,,,,,,,,,0,74,74,143,,,,,,,,,,,,,,,,,,,,,,,,,,,,,,,,,,,588.1894700000412,589.2051359000034,589.1715412000194,589.7637495000381,589.7637495000381,None,591.6825707000098,None,left,0.42013340000994503,591.6825707000098,None,592.1246960000135,None,left,0.5148102000239305,592.1246960000135,None,,,,,,,,,,,,,,,,,,,,,,,PPT29,001,2022-07-05_10h02.02.762,ABstudy,2022.1.4,59.93698224451799,
AB,Lag1_T1A_T2P,1,A,P,8,9,7,3,12,porcupine,Did you see the porcupine?,0.12,0.016,JPG\,celery,orange,scissors01,balloon01b,avocado01,printer02,mushroom01,sewingmachine01a,stapler01,dice05a,ashtray01,fan,blankImage,blankImage,blankImage,blankImage,blankImage,drumstick,,,,,,,,,,,,0,75,75,233,,,,,,,,,,,,,,,,,,,,,,,,,,,,,,,,,,,592.7210005000234,593.7262787000509,593.7096007000073,594.2921576000517,594.2921576000517,None,595.6781358000007,None,right,0.6339901000028476,595.6781358000007,None,596.3289189000498,None,right,1.0297976000001654,596.3289189000498,None,,,,,,,,,,,,,,,,,,,,,,,PPT29,001,2022-07-05_10h02.02.762,ABstudy,2022.1.4,59.93698224451799,
AB,Lag5_T1P_T2A,5,P,A,7,12,6,4,16,Bear,Did you see the Bear?,0.12,0.016,JPG\,comb02a,key01,medal02b,battery02b,lighter01,microscope,grizzly,sandal,pig,cellphone,computerkeyboard02,calculator01,cymbal,clock04,cucumber,avocado01,blankImage,grizzly,,,,,,,,,,,,0,76,76,213,,,,,,,,,,,,,,,,,,,,,,,,,,,,,,,,,,,597.3821287000319,598.3974235000205,598.3641004000092,598.9403753000079,598.9403753000079,None,600.9862763000419,None,left,0.7496719999471679,600.9862763000419,None,601.7674340000376,None,right,0.43152009998448193,601.7674340000376,None,,,,,,,,,,,,,,,,,,,,,,,PPT29,001,2022-07-05_10h02.02.762,ABstudy,2022.1.4,59.93698224451799,
AB,Lag5_T1A_T2P,5,A,P,7,12,6,4,16,hand,Did you see the hand?,0.12,0.016,JPG\,celery,tennisball01b,calculator01,pear01,screw02,orange,button01,cellphone,onion,apple07,iron01b,stapler05,banana01,paintbrush01,dandelion,toothbrush03b,blankImage,bull,,,,,,,,,,,,0,77,77,281,,,,,,,,,,,,,,,,,,,,,,,,,,,,,,,,,,,602.2329989999998,603.2355405000271,603.2022503000335,603.8034007000388,603.8034007000388,None,605.7292799000279,None,right,0.8862470999592915,605.7292799000279,None,606.6391680000233,None,right,1.536174500011839,606.6391680000233,None,,,,,,,,,,,,,,,,,,,,,,,PPT29,001,2022-07-05_10h02.02.762,ABstudy,2022.1.4,59.93698224451799,
AB,Lag5_T1P_T2A,5,P,A,6,11,5,5,16,World map,Did you see the World map?,0.12,0.016,JPG\,cigarette,pig,banana01,strawberry,clock01a,worldmap,spoon01,blueberry01,battery02b,pineapple01a,chain01,paintbrush01,candy,pen04b,teabag,birthdaycandle,blankImage,worldmap,,,,,,,,,,,,0,78,78,205,,,,,,,,,,,,,,,,,,,,,,,,,,,,,,,,,,,608.213189000031,609.2251721000066,609.2085198000423,609.7783818000462,609.7783818000462,None,611.6436894000508,None,left,0.6594847000087611,611.6436894000508,None,612.3280014000484,None,right,0.39131819998146966,612.3280014000484,None,,,,,,,,,,,,,,,,,,,,,,,PPT29,001,2022-07-05_10h02.02.762,ABstudy,2022.1.4,59.93698224451799,
AB,Lag1_T1P_T2P,1,P,P,7,8,6,5,13,horse,Did you see the horse?,0.12,0.016,JPG\,watermelon01,pencil01,microscope,blueberry01,computerkeyboard02,lamp04a,horse,stapler03b,sock01a,key01,binoculars01b,cauliflower01,ashtray01,blankImage,blankImage,blankImage,blankImage,horse,,,,,,,,,,,,0,79,79,3,,,,,,,,,,,,,,,,,,,,,,,,,,,,,,,,,,,612.747346600052,613.762692600023,613.7293444000534,614.3151754999999,614.3151754999999,None,615.88815480005,None,left,0.5504203000455163,615.88815480005,None,616.4659178000293,None,left,0.4930661999969743,616.4659178000293,None,,,,,,,,,,,,,,,,,,,,,,,PPT29,001,2022-07-05_10h02.02.762,ABstudy,2022.1.4,59.93698224451799,
AB,Lag1_T1A_T2A,1,A,A,6,7,5,5,12,flamingo,Did you see the flamingo?,0.12,0.016,JPG\,chain01,pen04b,birthdaycandle,watermelon01,broom01,scissors01,measuringcup01,candle01,hammer01,calculator01,ashtray01,feather03a,blankImage,blankImage,blankImage,blankImage,blankImage,witchhat,,,,,,,,,,,,0,80,80,288,,,,,,,,,,,,,,,,,,,,,,,,,,,,,,,,,,,616.9864452000475,618.0004552000319,617.9837648000102,618.5776683000149,618.5776683000149,None,619.9931376000168,None,right,0.622035100008361,619.9931376000168,None,620.6364651000476,None,right,0.6185786999994889,620.6364651000476,None,,,,,,,,,,,,,,,,,,,,,,,PPT29,001,2022-07-05_10h02.02.762,ABstudy,2022.1.4,59.93698224451799,
AB,Lag1_T1A_T2P,1,A,P,5,6,4,3,9,Spider,Did you see the Spider?,0.12,0.016,JPG\,pen04b,speaker04,lighter01,cherry01,8ball,stapler04b,sock01a,toothbrush03b,broom01,blankImage,blankImage,blankImage,blankImage,blankImage,blankImage,blankImage,blankImage,bridge,,,,,,,,,,,,0,81,81,250,,,,,,,,,,,,,,,,,,,,,,,,,,,,,,,,,,,621.2922053000075,622.3047488000011,622.288096000033,622.8662743000314,622.8662743000314,None,623.9922080000397,None,right,2.99116849998245,623.9922080000397,None,627.0092721999972,None,left,0.43711589998565614,627.0092721999972,None,,,,,,,,,,,,,,,,,,,,,,,PPT29,001,2022-07-05_10h02.02.762,ABstudy,2022.1.4,59.93698224451799,
AB,Lag5_T1P_T2P,5,P,P,8,13,7,4,17,trumpet,Did you see the trumpet?,0.12,0.016,JPG\,toaster01,scarf,toiletpaper01a,calculator01,violin,sewingmachine01a,fan,trumpet,strawberry,balloon01b,brownsugar,eraser,stapler01,rice,ring01,shirt02,blankImage,trumpet,,,,,,,,,,,,0,82,82,145,,,,,,,,,,,,,,,,,,,,,,,,,,,,,,,,,,,627.4788905000314,628.4941025000298,628.4607011000044,629.0496877999976,629.0496877999976,None,630.9739591000252,None,left,0.3930113000096753,630.9739591000252,None,631.3967867000028,None,left,0.4736628000391647,631.3967867000028,None,,,,,,,,,,,,,,,,,,,,,,,PPT29,001,2022-07-05_10h02.02.762,ABstudy,2022.1.4,59.93698224451799,
AB,Lag5_T1A_T2A,5,A,A,5,10,4,5,15,window,Did you see the window?,0.12,0.016,JPG\,leaf02a,apple07,cd,pineapple01a,envelope03a,paintbrush01,pig,canoftennisballs,rice,feather03a,lemon02,balloon01b,avocado01,calculator01,watermelon01,blankImage,blankImage,saxophone,,,,,,,,,,,,0,83,83,301,,,,,,,,,,,,,,,,,,,,,,,,,,,,,,,,,,,631.9125104999985,632.9150860000518,632.88175890001,633.4614721000544,633.4614721000544,None,635.3037784000044,None,right,9.423272199986968,635.3037784000044,None,644.7436964000226,None,right,0.9439026999752969,644.7436964000226,None,,,,,,,,,,,,,,,,,,,,,,,PPT29,001,2022-07-05_10h02.02.762,ABstudy,2022.1.4,59.93698224451799,
AB,Lag5_T1P_T2P,5,P,P,6,11,5,4,15,shovel,Did you see the shovel?,0.12,0.016,JPG\,carrot01,watch02a,clock04,microscope,toiletpaper01a,shovel01,alligator,ring01,brick,watermelon01,stapler03b,pencil01,measuringcup01,balloon01b,computerkeyboard02,blankImage,blankImage,shovel01,,,,,,,,,,,,0,84,84,139,,,,,,,,,,,,,,,,,,,,,,,,,,,,,,,,,,,645.7169376000529,646.7290201000287,646.7123179000337,647.2954479000182,647.2954479000182,None,649.1062589000212,None,left,1.8212831999990158,649.1062589000212,None,650.9499623000156,None,left,0.4094108000281267,650.9499623000156,None,,,,,,,,,,,,,,,,,,,,,,,PPT29,001,2022-07-05_10h02.02.762,ABstudy,2022.1.4,59.93698224451799,
AB,Lag5_T1P_T2P,5,P,P,7,12,6,4,16,window,Did you see the window?,0.12,0.016,JPG\,cigarette,pig,banana01,strawberry,clock01a,plate01b,dormer,blueberry01,battery02b,pineapple01a,chain01,stapler01,candy,pen04b,teabag,birthdaycandle,blankImage,dormer,,,,,,,,,,,,0,85,85,170,,,,,,,,,,,,,,,,,,,,,,,,,,,,,,,,,,,651.3876431000535,652.4014734000084,652.3846618000534,652.9489099000348,652.9489099000348,None,654.8562480999972,None,left,0.28689019999001175,654.8562480999972,None,655.1707388000214,None,left,0.5000104000209831,655.1707388000214,None,,,,,,,,,,,,,,,,,,,,,,,PPT29,001,2022-07-05_10h02.02.762,ABstudy,2022.1.4,59.93698224451799,
AB,Lag5_T1P_T2A,5,P,A,7,12,6,5,17,shoulder,Did you see the shoulder?,0.12,0.016,JPG\,battery02b,sunglasses04,pear01,tennisball01b,clock01a,speaker04,shoulder,spoon01,alligator,pineapple01a,avocado01,grape01,blueberry01,violin,strawberry,sock01a,blankImage,shoulder,,,,,,,,,,,,0,86,86,224,,,,,,,,,,,,,,,,,,,,,,,,,,,,,,,,,,,655.690041200025,656.7054725000053,656.6721280000056,657.2558918000432,657.2558918000432,None,659.2373508000164,None,left,1.5375317999860272,659.2373508000164,None,660.7930429000407,None,right,0.43761019996600226,660.7930429000407,None,,,,,,,,,,,,,,,,,,,,,,,PPT29,001,2022-07-05_10h02.02.762,ABstudy,2022.1.4,59.93698224451799,
AB,Lag5_T1P_T2P,5,P,P,8,13,7,4,17,Accordion,Did you see the Accordion?,0.12,0.016,JPG\,toiletpaper01a,lipstick02a,potato02b,speaker04,globe,strawberry,carrot01,accordion01,sock01a,candle08b,pen04b,calculator01,stapler01,brick,pear01,fork03c,blankImage,accordion01,,,,,,,,,,,,0,87,87,162,,,,,,,,,,,,,,,,,,,,,,,,,,,,,,,,,,,661.2656383000431,662.2778104000026,662.2612114000367,662.8381026000134,662.8381026000134,None,664.8743499999982,None,left,0.4045691000064835,664.8743499999982,None,665.2972959000035,None,left,0.5103339999914169,665.2972959000035,None,,,,,,,,,,,,,,,,,,,,,,,PPT29,001,2022-07-05_10h02.02.762,ABstudy,2022.1.4,59.93698224451799,
AB,Lag5_T1P_T2P,5,P,P,5,10,4,4,14,Christmas lights,Did you see the Christmas lights?,0.12,0.016,JPG\,binoculars01b,cymbal,pizza,candy,christmaslights,sponge01,grape01,thermometer02b,speaker04,stapler03a,lipstick02a,strawberry,candle01,tambourine02,blankImage,blankImage,blankImage,christmaslights,,,,,,,,,,,,0,88,88,168,,,,,,,,,,,,,,,,,,,,,,,,,,,,,,,,,,,665.835487400007,666.8489825000288,666.8322488000267,667.4192737000412,667.4192737000412,None,669.1333690000465,None,left,0.7455332000390626,669.1333690000465,None,669.9021169000189,None,left,0.656622399983462,669.9021169000189,None,,,,,,,,,,,,,,,,,,,,,,,PPT29,001,2022-07-05_10h02.02.762,ABstudy,2022.1.4,59.93698224451799,
AB,Lag1_T1P_T2P,1,P,P,6,7,5,4,11,cash register,Did you see the cash register?,0.12,0.016,JPG\,leaf02a,apple07,cd,pineapple01a,envelope03a,cashregister01,stapler03b,8ball,rice,feather03a,lemon02,blankImage,blankImage,blankImage,blankImage,blankImage,blankImage,cashregister01,,,,,,,,,,,,0,89,89,79,,,,,,,,,,,,,,,,,,,,,,,,,,,,,,,,,,,670.5923304000171,671.6036394000403,671.5872637000284,672.1520426000352,672.1520426000352,None,673.4847150000278,None,left,1.1061862999922596,673.4847150000278,None,674.6234640000039,None,left,0.48722240002825856,674.6234640000039,None,,,,,,,,,,,,,,,,,,,,,,,PPT29,001,2022-07-05_10h02.02.762,ABstudy,2022.1.4,59.93698224451799,
AB,Lag5_T1P_T2P,5,P,P,5,10,4,5,15,Ipad,Did you see the Ipad?,0.12,0.016,JPG\,fork03c,toothbrush03b,cellphone,fan,ipad02,clock01a,ring01,eraser,sunglasses04,stapler06,violin,brownsugar,blueberry01,pear01,pencil01,blankImage,blankImage,ipad02,,,,,,,,,,,,0,90,90,150,,,,,,,,,,,,,,,,,,,,,,,,,,,,,,,,,,,675.1490795999998,676.1584962000488,676.1417135000229,676.7254704000079,676.7254704000079,None,678.5552273000358,None,left,0.3872145999921486,678.5552273000358,None,678.9609476000187,None,left,0.5352538999868557,678.9609476000187,None,,,,,,,,,,,,,,,,,,,,,,,PPT29,001,2022-07-05_10h02.02.762,ABstudy,2022.1.4,59.93698224451799,
AB,Lag5_T1P_T2P,5,P,P,7,12,6,5,17,truck,Did you see the truck?,0.12,0.016,JPG\,binoculars01b,speaker04,sandal,envelope03a,plate01b,comb02a,boxtruck,chain01,measuringcup01,key01,medal02b,stapler05,tennisball01b,pizza,cigarette,sunglasses04,blankImage,boxtruck,,,,,,,,,,,,0,91,91,166,,,,,,,,,,,,,,,,,,,,,,,,,,,,,,,,,,,679.5773026000243,680.5789092000341,680.5625475000124,681.1651109000086,681.1651109000086,None,683.0843345000176,None,left,0.4263154999935068,683.0843345000176,None,683.5336492000497,None,left,0.5046265000128187,683.5336492000497,None,,,,,,,,,,,,,,,,,,,,,,,PPT29,001,2022-07-05_10h02.02.762,ABstudy,2022.1.4,59.93698224451799,
AB,Lag1_T1P_T2A,1,P,A,5,6,4,5,11,Moon,Did you see the Moon?,0.12,0.016,JPG\,lamp04a,broccoli01a,alligator,garlic01a,moon,brownsugar,avocado01,ring01,leaf02a,cellphone,medal02b,blankImage,blankImage,blankImage,blankImage,blankImage,blankImage,moon,,,,,,,,,,,,0,92,92,190,,,,,,,,,,,,,,,,,,,,,,,,,,,,,,,,,,,684.0692416000529,685.0840042000054,685.0506275000516,685.620584600023,685.620584600023,None,687.0787894000532,None,right,0.5914096999913454,687.0787894000532,None,687.7032087999978,None,right,0.5194493000162765,687.7032087999978,None,,,,,,,,,,,,,,,,,,,,,,,PPT29,001,2022-07-05_10h02.02.762,ABstudy,2022.1.4,59.93698224451799,
AB,Lag1_T1P_T2P,1,P,P,8,9,7,3,12,cactus,Did you see the cactus?,0.12,0.016,JPG\,tennisball01b,paintbrush01,medal02b,apple07,speaker04,iron01b,avocado01,cactus,stapler03b,toiletpaper01a,watermelon01,candle01,blankImage,blankImage,blankImage,blankImage,blankImage,cactus,,,,,,,,,,,,0,93,93,58,,,,,,,,,,,,,,,,,,,,,,,,,,,,,,,,,,,688.2570473000524,689.2713358000037,689.2547810000251,689.8717856000294,689.8717856000294,None,691.3188169000205,None,left,0.7053207999560982,691.3188169000205,None,692.0424015000463,None,right,0.4444919000379741,692.0424015000463,None,,,,,,,,,,,,,,,,,,,,,,,PPT29,001,2022-07-05_10h02.02.762,ABstudy,2022.1.4,59.93698224451799,
AB,Lag1_T1A_T2P,1,A,P,6,7,5,5,12,Piano,Did you see the Piano?,0.12,0.016,JPG\,toiletpaper01a,mushroom01,medal02b,sandal,rice,cd,stapler01,pizza,candle08b,garlic01a,toaster01,belt02a,blankImage,blankImage,blankImage,blankImage,blankImage,moose,,,,,,,,,,,,0,94,94,239,,,,,,,,,,,,,,,,,,,,,,,,,,,,,,,,,,,692.5097228000523,693.5252854000428,693.4919015000341,694.0696867000079,694.0696867000079,None,695.5831592000322,None,right,1.1038145999773405,695.5831592000322,None,696.7122007000144,None,left,0.5032416000030935,696.7122007000144,None,,,,,,,,,,,,,,,,,,,,,,,PPT29,001,2022-07-05_10h02.02.762,ABstudy,2022.1.4,59.93698224451799,
AB,Lag1_T1P_T2P,1,P,P,5,6,4,3,9,Escalator,Did you see the Escalator?,0.12,0.016,JPG\,celery,pencil01,fan,foosballtable,escalator,stapler05,potato02b,fork03c,button01,blankImage,blankImage,blankImage,blankImage,blankImage,blankImage,blankImage,blankImage,escalator,,,,,,,,,,,,0,95,95,82,,,,,,,,,,,,,,,,,,,,,,,,,,,,,,,,,,,697.2541463000234,698.2636945000268,698.2469865000458,698.8203118000529,698.8203118000529,None,699.9131234000088,None,left,0.9815332000143826,699.9131234000088,None,700.9164649000159,None,right,0.4179981999914162,700.9164649000159,None,,,,,,,,,,,,,,,,,,,,,,,PPT29,001,2022-07-05_10h02.02.762,ABstudy,2022.1.4,59.93698224451799,
AB,Lag5_T1P_T2A,5,P,A,8,13,7,4,17,knife,Did you see the knife?,0.12,0.016,JPG\,lighter01,hammer01,spoon01,chain01,cymbal,sponge01,lipstick02a,knife03,pig,watermelon01,cauliflower01,lemon02,broccoli01a,tableknife02,tennisball01b,toothbrush03b,blankImage,knife03,,,,,,,,,,,,0,96,96,214,,,,,,,,,,,,,,,,,,,,,,,,,,,,,,,,,,,701.3712372000446,702.3845510000247,702.3678551000194,702.9356108000502,702.9356108000502,None,704.8509577000514,None,left,1.2917204000405036,704.8509577000514,None,706.1715664000367,None,right,0.4828251999570057,706.1715664000367,None,,,,,,,,,,,,,,,,,,,,,,,PPT29,001,2022-07-05_10h02.02.762,ABstudy,2022.1.4,59.93698224451799,
AB,Lag1_T1P_T2P,1,P,P,8,9,7,5,14,giraffe,Did you see the giraffe?,0.12,0.016,JPG\,pencil01,foosballtable,banana01,lipstick02a,toaster01,grape01,key01,giraffe,stapler03b,pineapple01a,strawberry,teabag,dandelion,paintbrush01,blankImage,blankImage,blankImage,giraffe,,,,,,,,,,,,0,97,97,0,,,,,,,,,,,,,,,,,,,,,,,,,,,,,,,,,,,706.6753615000052,707.6898236999987,707.6730371000012,708.3020172000397,708.2316154,None,709.9445891000214,None,left,0.4543259000056423,709.9445891000214,None,710.4256235000212,None,left,0.6609724999871105,710.4256235000212,None,,,,,,,,,,,,,,,,,,,,,,,PPT29,001,2022-07-05_10h02.02.762,ABstudy,2022.1.4,59.93698224451799,
AB,Lag1_T1P_T2P,1,P,P,7,8,6,3,11,swing,Did you see the swing?,0.12,0.016,JPG\,sewingmachine01a,thermometer02b,sponge01,eraser,broccoli01a,fork03c,swing,stapler03b,belt02a,medal02b,pineapple01a,blankImage,blankImage,blankImage,blankImage,blankImage,blankImage,swing,,,,,,,,,,,,0,98,98,30,,,,,,,,,,,,,,,,,,,,,,,,,,,,,,,,,,,711.1135822000215,712.1275162000093,712.1108860000386,712.7349694000441,712.7349694000441,None,714.0007136000204,None,left,0.5907860000152141,714.0007136000204,None,714.6130625000224,None,right,0.4576307000243105,714.6130625000224,None,,,,,,,,,,,,,,,,,,,,,,,PPT29,001,2022-07-05_10h02.02.762,ABstudy,2022.1.4,59.93698224451799,
AB,Lag1_T1A_T2P,1,A,P,8,9,7,3,12,elbow,Did you see the elbow?,0.12,0.016,JPG\,watermelon01,cigarette,faucet,cymbal,cauliflower01,feather03a,cherry01,broom01,stapler01,key01,baseball01a,iron01b,blankImage,blankImage,blankImage,blankImage,blankImage,cashregister01,,,,,,,,,,,,0,99,99,251,,,,,,,,,,,,,,,,,,,,,,,,,,,,,,,,,,,715.0992554000113,716.1146312000346,716.0812963000499,716.6713030000101,716.6713030000101,None,718.1743508000509,None,right,1.311786199978087,718.1743508000509,None,719.5181891000248,None,left,0.5456135999993421,719.5181891000248,None,,,,,,,,,,,,,,,,,,,,,,,PPT29,001,2022-07-05_10h02.02.762,ABstudy,2022.1.4,59.93698224451799,
AB,Lag1_T1A_T2A,1,A,A,8,9,7,3,12,punching bag,Did you see the punching bag?,0.12,0.016,JPG\,key01,apple07,ring01,leaf02a,hammer01,tableknife02,violin,sponge01,baseball01a,thermometer02b,celery,calculator01,blankImage,blankImage,blankImage,blankImage,blankImage,bathtub,,,,,,,,,,,,0,100,100,291,,,,,,,,,,,,,,,,,,,,,,,,,,,,,,,,,,,720.0909688000102,721.1030383000034,721.0864460000303,721.6548596000066,721.6548596000066,None,723.1527650000062,None,right,0.6140147999976762,723.1527650000062,None,723.7903210000368,None,right,1.072089099965524,723.7903210000368,None,,,,,,,,,,,,,,,,,,,,,,,PPT29,001,2022-07-05_10h02.02.762,ABstudy,2022.1.4,59.93698224451799,
AB,Lag1_T1P_T2P,1,P,P,6,7,5,3,10,elephant,Did you see the elephant?,0.12,0.016,JPG\,clock01a,grape01,plate01b,key01,screwdriver04b,africanelephant,stapler03b,iron01b,toothbrush03b,comb02a,blankImage,blankImage,blankImage,blankImage,blankImage,blankImage,blankImage,africanelephant,,,,,,,,,,,,0,101,101,31,,,,,,,,,,,,,,,,,,,,,,,,,,,,,,,,,,,724.9015886000125,725.907483100018,725.890851800039,726.4680495000212,726.4680495000212,None,727.6655237000086,None,left,0.4771284000016749,727.6655237000086,None,728.1600005000364,None,left,0.3669825000106357,728.1600005000364,None,,,,,,,,,,,,,,,,,,,,,,,PPT29,001,2022-07-05_10h02.02.762,ABstudy,2022.1.4,59.93698224451799,
AB,Lag5_T1A_T2A,5,A,A,7,12,6,4,16,Eye,Did you see the Eye?,0.12,0.016,JPG\,rice,watermelon01,tableknife02,scarf,computerkeyboard02,cauliflower01,battery02b,binoculars01b,book01b,sandal,sponge01,microscope,tomato01,fork03c,thermometer02b,apple07,blankImage,scooter,,,,,,,,,,,,0,102,102,302,,,,,,,,,,,,,,,,,,,,,,,,,,,,,,,,,,,728.5602601999999,729.5608285000199,729.5447899000137,730.1302072000108,730.1302072000108,None,732.1270442000241,None,right,0.6950405000243336,732.1270442000241,None,732.8482363000512,None,right,1.7509956000139937,732.8482363000512,None,,,,,,,,,,,,,,,,,,,,,,,PPT29,001,2022-07-05_10h02.02.762,ABstudy,2022.1.4,59.93698224451799,
AB,Lag5_T1P_T2A,5,P,A,8,13,7,5,18,Nunchuks,Did you see the Nunchuks?,0.12,0.016,JPG\,celery,tennisball01b,calculator01,pear01,screw02,orange,button01,nunchuk,onion,apple07,iron01b,brownsugar,banana01,paintbrush01,dandelion,toothbrush03b,blankImage,nunchuk,,,,,,,,,,,,0,103,103,218,,,,,,,,,,,,,,,,,,,,,,,,,,,,,,,,,,,734.6221294000279,735.6340878000483,735.6173686000402,736.2072090000147,736.2072090000147,None,738.1629000000539,None,left,1.3631825000047684,738.1629000000539,None,739.5545528000221,None,right,0.5234771999530494,739.5545528000221,None,,,,,,,,,,,,,,,,,,,,,,,PPT29,001,2022-07-05_10h02.02.762,ABstudy,2022.1.4,59.93698224451799,
AB,Lag5_T1A_T2P,5,A,P,5,10,4,3,13,flower,Did you see the flower?,0.12,0.016,JPG\,cucumber,ring01,lipstick02a,microscope,violin,garlic01a,celery,lighter01,cherry01,stapler03a,belt02a,key01,binoculars01b,blankImage,blankImage,blankImage,blankImage,christmastree,,,,,,,,,,,,0,104,104,284,,,,,,,,,,,,,,,,,,,,,,,,,,,,,,,,,,,740.104953800037,741.1061249000486,741.0894770000014,741.6681373000029,741.6681373000029,None,743.2685346000362,None,left,1.282720800023526,743.2685346000362,None,744.5765997000271,None,right,0.9424377999966964,744.5765997000271,None,,,,,,,,,,,,,,,,,,,,,,,PPT29,001,2022-07-05_10h02.02.762,ABstudy,2022.1.4,59.93698224451799,
AB,Lag5_T1P_T2A,5,P,A,6,11,5,5,16,fish,Did you see the fish?,0.12,0.016,JPG\,cucumber,ring01,lipstick02a,microscope,violin,redlionfish,celery,lighter01,cherry01,sewingmachine01a,belt02a,key01,binoculars01b,medal02b,watermelon01,dice05a,blankImage,redlionfish,,,,,,,,,,,,0,105,105,221,,,,,,,,,,,,,,,,,,,,,,,,,,,,,,,,,,,745.5483616000274,746.5619136000169,746.5452303000493,747.1345920000458,747.1345920000458,None,749.0400095000514,None,left,1.662789200025145,749.0400095000514,None,750.7325392000494,None,right,0.5137678000028245,750.7325392000494,None,,,,,,,,,,,,,,,,,,,,,,,PPT29,001,2022-07-05_10h02.02.762,ABstudy,2022.1.4,59.93698224451799,
AB,Lag1_T1P_T2P,1,P,P,5,6,4,4,10,skateboard,Did you see the skateboard?,0.12,0.016,JPG\,binoculars01b,cymbal,pizza,candy,skateboard,stapler05,grape01,thermometer02b,speaker04,lemon02,blankImage,blankImage,blankImage,blankImage,blankImage,blankImage,blankImage,skateboard,,,,,,,,,,,,0,106,106,25,,,,,,,,,,,,,,,,,,,,,,,,,,,,,,,,,,,751.2708950000233,752.284084700048,752.2673688000068,752.8739689000067,752.8739689000067,None,754.0944351000362,None,left,0.5280147999874316,754.0944351000362,None,754.6531189000234,None,left,0.41833349998341873,754.6531189000234,None,,,,,,,,,,,,,,,,,,,,,,,PPT29,001,2022-07-05_10h02.02.762,ABstudy,2022.1.4,59.93698224451799,
AB,Lag1_T1P_T2P,1,P,P,7,8,6,5,13,school bus,Did you see the school bus?,0.12,0.016,JPG\,aceofdiamond,banana01,scissors01,pig,shirt02,leaf02a,schoolbus,stapler05,fork03c,tableknife02,balloon01b,match,toothbrush03b,blankImage,blankImage,blankImage,blankImage,schoolbus,,,,,,,,,,,,0,107,107,24,,,,,,,,,,,,,,,,,,,,,,,,,,,,,,,,,,,755.1078193000285,756.1212954000221,756.1046195000526,756.708578300022,756.708578300022,None,758.2554303000215,None,left,0.7434383999789134,758.2554303000215,None,759.024225000001,None,right,0.7659066000487655,759.024225000001,None,,,,,,,,,,,,,,,,,,,,,,,PPT29,001,2022-07-05_10h02.02.762,ABstudy,2022.1.4,59.93698224451799,
AB,Lag1_T1P_T2P,1,P,P,8,9,7,4,13,Hula hoop,Did you see the Hula hoop?,0.12,0.016,JPG\,brownsugar,candle01,match,printer02,broom01,balloon01b,belt02a,hulahoop,stapler04b,feather03a,rice,mushroom01,pencil01,blankImage,blankImage,blankImage,blankImage,hulahoop,,,,,,,,,,,,0,108,108,64,,,,,,,,,,,,,,,,,,,,,,,,,,,,,,,,,,,759.8148045000271,760.8259771000012,760.8092693000217,761.3098344000173,761.3098344000173,None,762.9256314000231,None,left,0.5288504000054672,762.9256314000231,None,763.4784098000382,None,left,0.5200233000214212,763.4784098000382,None,,,,,,,,,,,,,,,,,,,,,,,PPT29,001,2022-07-05_10h02.02.762,ABstudy,2022.1.4,59.93698224451799,
AB,Lag5_T1A_T2P,5,A,P,7,12,6,5,17,Rollerblade,Did you see the Rollerblade?,0.12,0.016,JPG\,binoculars01b,cymbal,pizza,candy,paintbrush01,sponge01,grape01,thermometer02b,speaker04,lemon02,lipstick02a,stapler03b,candle01,8ball,plate01b,pen04b,blankImage,lion,,,,,,,,,,,,0,109,109,266,,,,,,,,,,,,,,,,,,,,,,,,,,,,,,,,,,,764.0312623000355,765.0466487000231,765.0132833000389,765.5996222000103,765.5996222000103,None,767.5317369000404,None,right,0.6587713999906555,767.5317369000404,None,768.2164716999978,None,left,0.4620866000186652,768.2164716999978,None,,,,,,,,,,,,,,,,,,,,,,,PPT29,001,2022-07-05_10h02.02.762,ABstudy,2022.1.4,59.93698224451799,
AB,Lag5_T1P_T2A,5,P,A,6,11,5,5,16,hat,Did you see the hat?,0.12,0.016,JPG\,apple07,toiletpaper01a,pizza,dandelion,greenolive,pilgrimhat,microscope,violin,orange,lipstick02a,balloon01b,sandal,lighter01,fan,book01b,sewingmachine01a,blankImage,pilgrimhat,,,,,,,,,,,,0,110,110,206,,,,,,,,,,,,,,,,,,,,,,,,,,,,,,,,,,,768.7656094999984,769.7682654000237,769.7516143000103,770.3458992000087,770.3458992000087,None,772.2544294000254,None,left,0.7520055000204593,772.2544294000254,None,773.0379358000355,None,left,1.096537699981127,773.0379358000355,None,,,,,,,,,,,,,,,,,,,,,,,PPT29,001,2022-07-05_10h02.02.762,ABstudy,2022.1.4,59.93698224451799,
AB,Lag1_T1A_T2P,1,A,P,7,8,6,3,11,Fox,Did you see the Fox?,0.12,0.016,JPG\,toaster01,chain01,sponge01,baseball01a,carrot01,belt02a,book01b,stapler03b,grape01,brick,celery,blankImage,blankImage,blankImage,blankImage,blankImage,blankImage,fingerprint,,,,,,,,,,,,0,111,111,234,,,,,,,,,,,,,,,,,,,,,,,,,,,,,,,,,,,774.1604479000089,775.1736434000195,775.156860600051,775.7420278000063,775.7420278000063,None,777.1176297000493,None,right,1.0882628999534063,777.1176297000493,None,778.2264448000351,None,right,1.356233099999372,778.2264448000351,None,,,,,,,,,,,,,,,,,,,,,,,PPT29,001,2022-07-05_10h02.02.762,ABstudy,2022.1.4,59.93698224451799,
AB,Lag1_T1P_T2P,1,P,P,8,9,7,4,13,peacock,Did you see the peacock?,0.12,0.016,JPG\,hammer01,sponge01,toaster01,cherry01,feather03a,mushroom01,measuringcup01,peacock,stapler03a,brick,clock04,medal02b,teabag,blankImage,blankImage,blankImage,blankImage,peacock,,,,,,,,,,,,0,112,112,68,,,,,,,,,,,,,,,,,,,,,,,,,,,,,,,,,,,779.6133686000248,780.6287438000436,780.5954438000335,781.1696541000274,781.1696541000274,None,782.7936806000071,None,left,0.750049099966418,782.7936806000071,None,783.565086800023,None,right,0.40155399998184294,783.565086800023,None,,,,,,,,,,,,,,,,,,,,,,,PPT29,001,2022-07-05_10h02.02.762,ABstudy,2022.1.4,59.93698224451799,
AB,Lag1_T1P_T2P,1,P,P,5,6,4,3,9,mail box,Did you see the mail box?,0.12,0.016,JPG\,watermelon01,banana01,ring01,pencil01,mailbox02,stapler04b,cucumber,thermometer02b,key01,blankImage,blankImage,blankImage,blankImage,blankImage,blankImage,blankImage,blankImage,mailbox02,,,,,,,,,,,,0,113,113,21,,,,,,,,,,,,,,,,,,,,,,,,,,,,,,,,,,,784.0023657000274,785.0165279000066,784.9832262000418,785.5692756000208,785.5692756000208,None,786.7110622000182,None,left,0.5835471000173129,786.7110622000182,None,787.3190113000455,None,right,0.3517138999886811,787.3190113000455,None,,,,,,,,,,,,,,,,,,,,,,,PPT29,001,2022-07-05_10h02.02.762,ABstudy,2022.1.4,59.93698224451799,
AB,Lag1_T1P_T2P,1,P,P,7,8,6,3,11,locker,Did you see the locker?,0.12,0.016,JPG\,toiletpaper01a,lipstick02a,potato02b,speaker04,globe,strawberry,locker,stapler04b,sock01a,candle08b,pen04b,blankImage,blankImage,blankImage,blankImage,blankImage,blankImage,locker,,,,,,,,,,,,0,114,114,19,,,,,,,,,,,,,,,,,,,,,,,,,,,,,,,,,,,787.7061063000001,788.7204695999972,788.7037495000404,789.2858816000517,789.2858816000517,None,790.6313699000166,None,left,1.0785927000106312,790.6313699000166,None,791.7398928000475,None,left,0.5380032999673858,791.7398928000475,None,,,,,,,,,,,,,,,,,,,,,,,PPT29,001,2022-07-05_10h02.02.762,ABstudy,2022.1.4,59.93698224451799,
AB,Lag1_T1P_T2A,1,P,A,5,6,4,5,11,Sailboat,Did you see the Sailboat?,0.12,0.016,JPG\,chain01,speaker04,avocado01,watermelon01,sailboat,comb02a,lamp04a,fork03c,toaster01,slipper03b,scissors01,blankImage,blankImage,blankImage,blankImage,blankImage,blankImage,sailboat,,,,,,,,,,,,0,115,115,193,,,,,,,,,,,,,,,,,,,,,,,,,,,,,,,,,,,792.3094577000011,793.3248036000296,793.291442900023,793.8614232999971,793.8614232999971,None,795.289189800038,None,right,4.821149799972773,795.289189800038,None,800.1316450000159,None,right,0.5386764999711886,800.1316450000159,None,,,,,,,,,,,,,,,,,,,,,,,PPT29,001,2022-07-05_10h02.02.762,ABstudy,2022.1.4,59.93698224451799,
AB,Lag5_T1P_T2A,5,P,A,5,10,4,5,15,Shield,Did you see the Shield?,0.12,0.016,JPG\,cigarette,fork03c,greenolive,broccoli01a,shield02,tennisball01b,balloon01b,leaf02a,pig,fan,clock01a,strawberry,envelope03a,birthdaycandle,teabag,blankImage,blankImage,shield02,,,,,,,,,,,,0,116,116,223,,,,,,,,,,,,,,,,,,,,,,,,,,,,,,,,,,,800.7017430000124,801.7166721000103,801.6833198000095,802.2535241000005,802.2535241000005,None,804.0923572000465,None,left,0.6976021999726072,804.0923572000465,None,804.8197494000196,None,right,0.4503357000066899,804.8197494000196,None,,,,,,,,,,,,,,,,,,,,,,,PPT29,001,2022-07-05_10h02.02.762,ABstudy,2022.1.4,59.93698224451799,
AB,Lag1_T1A_T2A,1,A,A,8,9,7,3,12,popcorn,Did you see the popcorn?,0.12,0.016,JPG\,brownsugar,candle01,match,printer02,broom01,balloon01b,belt02a,potato02b,computerkeyboard02,feather03a,rice,mushroom01,blankImage,blankImage,blankImage,blankImage,blankImage,banjo,,,,,,,,,,,,0,117,117,290,,,,,,,,,,,,,,,,,,,,,,,,,,,,,,,,,,,805.2932102000341,806.3046007000376,806.2879133000388,806.7884438000037,806.7884438000037,None,808.3419872000231,None,left,1.0002367999986745,808.3419872000231,None,809.3743378000217,None,right,0.5290901000262238,809.3743378000217,None,,,,,,,,,,,,,,,,,,,,,,,PPT29,001,2022-07-05_10h02.02.762,ABstudy,2022.1.4,59.93698224451799,
AB,Lag5_T1P_T2P,5,P,P,5,10,4,3,13,lollipop,Did you see the lollipop?,0.12,0.016,JPG\,brownsugar,candle01,match,printer02,lollipop04,balloon01b,belt02a,potato02b,computerkeyboard02,stapler03a,rice,mushroom01,pencil01,blankImage,blankImage,blankImage,blankImage,lollipop04,,,,,,,,,,,,0,118,118,112,,,,,,,,,,,,,,,,,,,,,,,,,,,,,,,,,,,809.9313763000537,810.9424811000354,810.9259300000267,811.426426400023,811.426426400023,None,813.0590916000074,None,left,0.5476564000127837,813.0590916000074,None,813.6285627000034,None,right,0.48942459997488186,813.6285627000034,None,,,,,,,,,,,,,,,,,,,,,,,PPT29,001,2022-07-05_10h02.02.762,ABstudy,2022.1.4,59.93698224451799,
AB,Lag5_T1P_T2A,5,P,A,6,11,5,4,15,Spear,Did you see the Spear?,0.12,0.016,JPG\,belt02a,measuringcup01,spoon01,chain01,greenolive,spear02,computerkeyboard02,onion,fan,strawberry,candle01,broom01,binoculars01b,ashtray01,pingpongpaddle01c,blankImage,blankImage,spear02,,,,,,,,,,,,0,119,119,227,,,,,,,,,,,,,,,,,,,,,,,,,,,,,,,,,,,814.201191900007,815.2134624000173,815.1968417000026,815.7889176000026,815.7889176000026,None,817.5553231000085,None,left,0.4830565999727696,817.5553231000085,None,818.0661514000385,None,right,1.2286696000373922,818.0661514000385,None,,,,,,,,,,,,,,,,,,,,,,,PPT29,001,2022-07-05_10h02.02.762,ABstudy,2022.1.4,59.93698224451799,
AB,Lag5_T1P_T2P,5,P,P,8,13,7,4,17,butterfly,Did you see the butterfly?,0.12,0.016,JPG\,speaker04,sewingmachine01a,eraser,violin,globe,belt02a,sunglasses04,butterfly,cd,greenolive,alligator,pear01,stapler01,screwdriver04b,banana01,cigarette,blankImage,butterfly,,,,,,,,,,,,0,120,120,126,,,,,,,,,,,,,,,,,,,,,,,,,,,,,,,,,,,819.3196339000133,820.3351082000299,820.3017301000073,820.8880177000538,820.8880177000538,None,822.8872045000317,None,left,0.5992069999920204,822.8872045000317,None,823.505334400048,None,right,0.5167112000053748,823.505334400048,None,,,,,,,,,,,,,,,,,,,,,,,PPT29,001,2022-07-05_10h02.02.762,ABstudy,2022.1.4,59.93698224451799,
AB,Lag1_T1P_T2P,1,P,P,5,6,4,5,11,squirrel,Did you see the squirrel?,0.12,0.016,JPG\,pencil01,orange,clock01a,sponge01,squirrel,stapler05,lipstick02a,strawberry,book01b,mushroom01,envelope03a,blankImage,blankImage,blankImage,blankImage,blankImage,blankImage,squirrel,,,,,,,,,,,,0,121,121,5,,,,,,,,,,,,,,,,,,,,,,,,,,,,,,,,,,,824.048282600008,825.0566275000456,825.0399691000348,825.6174889000249,825.6174889000249,None,827.0070504000178,None,left,0.40760119998594746,827.0070504000178,None,827.4421305000433,None,left,0.4680997999967076,827.4421305000433,None,,,,,,,,,,,,,,,,,,,,,,,PPT29,001,2022-07-05_10h02.02.762,ABstudy,2022.1.4,59.93698224451799,
AB,Lag1_T1P_T2P,1,P,P,6,7,5,3,10,drum sticks,Did you see the drum sticks?,0.12,0.016,JPG\,pineapple01a,tennisball01b,computerkeyboard02,feather03a,belt02a,drumstick,stapler03b,blueberry01,medal02b,alligator,blankImage,blankImage,blankImage,blankImage,blankImage,blankImage,blankImage,drumstick,,,,,,,,,,,,0,122,122,61,,,,,,,,,,,,,,,,,,,,,,,,,,,,,,,,,,,827.9471556000062,828.9605383000453,828.9438128000475,829.527978099999,829.527978099999,None,830.6739622000023,None,left,0.8599362000240944,830.6739622000023,None,831.5631985000218,None,left,0.3870967000257224,831.5631985000218,None,,,,,,,,,,,,,,,,,,,,,,,PPT29,001,2022-07-05_10h02.02.762,ABstudy,2022.1.4,59.93698224451799,
AB,Lag5_T1A_T2P,5,A,P,7,12,6,4,16,flower,Did you see the flower?,0.12,0.016,JPG\,printer02,envelope03a,potato02b,calculator01,tableknife02,cigarette,ashtray01,pig,broom01,greenolive,candle08b,stapler03a,strawberry,candle01,foosballtable,tennisball01b,blankImage,calendar,,,,,,,,,,,,0,123,123,282,,,,,,,,,,,,,,,,,,,,,,,,,,,,,,,,,,,831.9815349000273,832.9812202000176,832.9645436000428,833.539810300048,833.539810300048,None,835.5392757000518,None,right,1.3556552000227384,835.5392757000518,None,836.9184104000451,None,left,0.8958416999666952,836.9184104000451,None,,,,,,,,,,,,,,,,,,,,,,,PPT29,001,2022-07-05_10h02.02.762,ABstudy,2022.1.4,59.93698224451799,
AB,Lag5_T1A_T2P,5,A,P,5,10,4,4,14,duck,Did you see the duck?,0.12,0.016,JPG\,brick,eraser,cucumber,ashtray01,thermometer02b,binoculars01b,lipstick02a,screwdriver04b,grape01,stapler04b,battery02b,iron01b,dice05a,avocado01,blankImage,blankImage,blankImage,barrel01,,,,,,,,,,,,0,124,124,280,,,,,,,,,,,,,,,,,,,,,,,,,,,,,,,,,,,837.8393544999999,838.8536896000151,838.8204353000037,839.4115992000443,839.4115992000443,None,841.2177778000478,None,right,1.2535363999777474,841.2177778000478,None,842.4906097000348,None,right,0.6519613999989815,842.4906097000348,None,,,,,,,,,,,,,,,,,,,,,,,PPT29,001,2022-07-05_10h02.02.762,ABstudy,2022.1.4,59.93698224451799,
AB,Lag5_T1P_T2P,5,P,P,7,12,6,5,17,tie,Did you see the tie?,0.12,0.016,JPG\,iron01b,orange,birthdaycandle,potato02b,cauliflower01,pencil01,tie02,candle08b,celery,tableknife02,pen04b,stapler06,ring01,rice,lemon02,tomato01,blankImage,tie02,,,,,,,,,,,,0,125,125,161,,,,,,,,,,,,,,,,,,,,,,,,,,,,,,,,,,,843.1768433000543,844.1922619000543,844.1589373000315,844.738320000004,844.738320000004,None,846.6747377000283,None,left,0.6276176999672316,846.6747377000283,None,847.3286202000454,None,left,0.5582310000318103,847.3286202000454,None,,,,,,,,,,,,,,,,,,,,,,,PPT29,001,2022-07-05_10h02.02.762,ABstudy,2022.1.4,59.93698224451799,
AB,Lag1_T1P_T2P,1,P,P,6,7,5,3,10,cupcake,Did you see the cupcake?,0.12,0.016,JPG\,printer02,leaf02a,cauliflower01,sock01a,brownsugar,cupcake,stapler01,orange,belt02a,shirt02,blankImage,blankImage,blankImage,blankImage,blankImage,blankImage,blankImage,cupcake,,,,,,,,,,,,0,126,126,38,,,,,,,,,,,,,,,,,,,,,,,,,,,,,,,,,,,847.9183244000305,848.9302947000251,848.9137458000332,849.5133295000414,849.5133295000414,None,850.7120720000239,None,left,0.6066301999962889,850.7120720000239,None,851.3493773000082,None,left,0.6166899999952875,851.3493773000082,None,,,,,,,,,,,,,,,,,,,,,,,PPT29,001,2022-07-05_10h02.02.762,ABstudy,2022.1.4,59.93698224451799,
AB,Lag5_T1A_T2P,5,A,P,5,10,4,3,13,License Plate,Did you see the License Plate?,0.12,0.016,JPG\,tomato01,pen04b,shirt02,carrot01,lamp04a,key01,pizza,avocado01,sewingmachine01a,stapler06,iron01b,book01b,chain01,blankImage,blankImage,blankImage,blankImage,porcupine,,,,,,,,,,,,0,127,127,270,,,,,,,,,,,,,,,,,,,,,,,,,,,,,,,,,,,851.9908826000174,853.0013021000195,852.984348500031,853.5649914000533,853.5649914000533,None,855.1869668000145,None,right,0.7392373000038788,855.1869668000145,None,855.9538569000433,None,left,0.4040470999898389,855.9538569000433,None,,,,,,,,,,,,,,,,,,,,,,,PPT29,001,2022-07-05_10h02.02.762,ABstudy,2022.1.4,59.93698224451799,
AB,Lag5_T1P_T2A,5,P,A,7,12,6,3,15,helmet,Did you see the helmet?,0.12,0.016,JPG\,fork03c,belt02a,grape01,computerkeyboard02,lemon02,printer02,skihelmet01,toiletpaper01a,toaster01,lipstick02a,book01b,blueberry01,spoon01,apple07,avocado01,blankImage,blankImage,skihelmet01,,,,,,,,,,,,0,128,128,225,,,,,,,,,,,,,,,,,,,,,,,,,,,,,,,,,,,856.388633900031,857.3883841000497,857.3717137000058,857.936542600044,857.936542600044,None,859.76588120003,None,left,1.4637590000056662,859.76588120003,None,861.2592706000432,None,right,0.39574559999164194,861.2592706000432,None,,,,,,,,,,,,,,,,,,,,,,,PPT29,001,2022-07-05_10h02.02.762,ABstudy,2022.1.4,59.93698224451799,
AB,Lag1_T1A_T2P,1,A,P,7,8,6,5,13,Horseshoe,Did you see the Horseshoe?,0.12,0.016,JPG\,leaf02a,apple07,cd,pineapple01a,envelope03a,paintbrush01,pig,stapler06,rice,feather03a,lemon02,balloon01b,avocado01,blankImage,blankImage,blankImage,blankImage,rooster,,,,,,,,,,,,0,129,129,241,,,,,,,,,,,,,,,,,,,,,,,,,,,,,,,,,,,861.6821101000533,862.6940502000507,862.6773653000128,863.2725728000514,863.2725728000514,None,864.8134785000002,None,right,0.7443548999726772,864.8134785000002,None,865.581092700013,None,left,0.4006882000248879,865.581092700013,None,,,,,,,,,,,,,,,,,,,,,,,PPT29,001,2022-07-05_10h02.02.762,ABstudy,2022.1.4,59.93698224451799,
AB,Lag5_T1P_T2P,5,P,P,5,10,4,5,15,hockey puck,Did you see the hockey puck?,0.12,0.016,JPG\,chain01,pen04b,birthdaycandle,watermelon01,hockeypuck,scissors01,measuringcup01,candle01,hammer01,stapler06,ashtray01,feather03a,sewingmachine01a,thermometer02b,alligator,blankImage,blankImage,hockeypuck,,,,,,,,,,,,0,130,130,110,,,,,,,,,,,,,,,,,,,,,,,,,,,,,,,,,,,866.0167920000385,867.0315137000289,866.9981572000543,867.5695019999985,867.5695019999985,None,869.3401757000247,None,right,0.6577451000339352,869.3401757000247,None,870.0179839000339,None,left,0.39569390000542626,870.0179839000339,None,,,,,,,,,,,,,,,,,,,,,,,PPT29,001,2022-07-05_10h02.02.762,ABstudy,2022.1.4,59.93698224451799,
AB,Lag1_T1P_T2P,1,P,P,6,7,5,4,11,American football,Did you see the American football?,0.12,0.016,JPG\,toaster01,garlic01a,faucet,fan,comb02a,football,stapler06,watch02a,onion,blueberry01,toiletpaper01a,blankImage,blankImage,blankImage,blankImage,blankImage,blankImage,football,,,,,,,,,,,,0,131,131,12,,,,,,,,,,,,,,,,,,,,,,,,,,,,,,,,,,,870.4396779000526,871.4526537000202,871.4359635000001,872.0207498000236,872.0207498000236,None,873.3792206000071,None,left,1.115171300014481,873.3792206000071,None,874.5226178000448,None,left,0.9874721999512985,874.5226178000448,None,,,,,,,,,,,,,,,,,,,,,,,PPT29,001,2022-07-05_10h02.02.762,ABstudy,2022.1.4,59.93698224451799,
AB,Lag5_T1P_T2P,5,P,P,5,10,4,4,14,License Plate,Did you see the License Plate?,0.12,0.016,JPG\,toaster01,chain01,sponge01,baseball01a,licenseplate,belt02a,book01b,iron01b,grape01,stapler06,celery,onion,mushroom01,toothbrush03b,blankImage,blankImage,blankImage,licenseplate,,,,,,,,,,,,0,132,132,120,,,,,,,,,,,,,,,,,,,,,,,,,,,,,,,,,,,875.6047095000395,876.6093003000133,876.592609000043,877.252524200012,877.1828023000271,None,878.7834945000359,None,left,0.8950336999841966,878.7834945000359,None,879.7110356000485,None,right,0.870688599999994,879.7110356000485,None,,,,,,,,,,,,,,,,,,,,,,,PPT29,001,2022-07-05_10h02.02.762,ABstudy,2022.1.4,59.93698224451799,
AB,Lag5_T1P_T2A,5,P,A,7,12,6,5,17,corn,Did you see the corn?,0.12,0.016,JPG\,avocado01,pingpongpaddle01c,match,cauliflower01,paintbrush01,clock01a,corn02,cd,balloon01b,cellphone,watch02a,pear01,toaster01,sponge01,orange,blueberry01,blankImage,corn02,,,,,,,,,,,,0,133,133,210,,,,,,,,,,,,,,,,,,,,,,,,,,,,,,,,,,,880.6144001000212,881.6300005000085,881.596557300014,882.1871434000204,882.1871434000204,None,884.1208779000444,None,left,0.6929478999809362,884.1208779000444,None,884.8327649999992,None,right,0.3492796999635175,884.8327649999992,None,,,,,,,,,,,,,,,,,,,,,,,PPT29,001,2022-07-05_10h02.02.762,ABstudy,2022.1.4,59.93698224451799,
AB,Lag5_T1P_T2P,5,P,P,5,10,4,5,15,sword fish,Did you see the sword fish?,0.12,0.016,JPG\,scissors01,balloon01b,eraser,feather03a,swordfish,candle01,measuringcup01,calculator01,thermometer02b,stapler04b,pear01,carrot01,globe,baseball01a,leaf02a,blankImage,blankImage,swordfish,,,,,,,,,,,,0,134,134,160,,,,,,,,,,,,,,,,,,,,,,,,,,,,,,,,,,,885.2720468000043,886.2842060000403,886.2675168000278,886.8471971000545,886.8471971000545,None,888.6426298000151,None,left,0.388254199991934,888.6426298000151,None,889.0537945000106,None,right,0.5841730000101961,889.0537945000106,None,,,,,,,,,,,,,,,,,,,,,,,PPT29,001,2022-07-05_10h02.02.762,ABstudy,2022.1.4,59.93698224451799,
AB,Lag1_T1A_T2A,1,A,A,7,8,6,5,13,Poker chips,Did you see the Poker chips?,0.12,0.016,JPG\,violin,pizza,toothbrush03b,pineapple01a,banana01,ashtray01,candy,dandelion,clock04,sock01a,microscope,speaker04,calculator01,blankImage,blankImage,blankImage,blankImage,cigar,,,,,,,,,,,,0,135,135,289,,,,,,,,,,,,,,,,,,,,,,,,,,,,,,,,,,,889.6717988000019,890.6718553000246,890.6549396000337,891.2609971000347,891.2609971000347,None,892.9236692000413,None,right,0.5699478999595158,892.9236692000413,None,893.5259338000324,None,right,0.5038073000032455,893.5259338000324,None,,,,,,,,,,,,,,,,,,,,,,,PPT29,001,2022-07-05_10h02.02.762,ABstudy,2022.1.4,59.93698224451799,
AB,Lag1_T1A_T2P,1,A,P,8,9,7,3,12,seal,Did you see the seal?,0.12,0.016,JPG\,dice05a,watch02a,pig,lighter01,button01,strawberry,paintbrush01,microscope,stapler03a,pen04b,feather03a,8ball,blankImage,blankImage,blankImage,blankImage,blankImage,hockeystick,,,,,,,,,,,,0,136,136,235,,,,,,,,,,,,,,,,,,,,,,,,,,,,,,,,,,,894.0631027000491,895.0759313000017,895.0592369000078,895.6272126000258,895.6272126000258,None,897.1458127000369,None,right,0.47629919997416437,897.1458127000369,None,897.6449885000475,None,left,0.4253900999901816,897.6449885000475,None,,,,,,,,,,,,,,,,,,,,,,,PPT29,001,2022-07-05_10h02.02.762,ABstudy,2022.1.4,59.93698224451799,
AB,Lag1_T1P_T2P,1,P,P,5,6,4,5,11,candy cane,Did you see the candy cane?,0.12,0.016,JPG\,shirt02,match,screw02,foosballtable,candycane01a,stapler04b,sewingmachine01a,watch02a,button01,comb02a,dice05a,blankImage,blankImage,blankImage,blankImage,blankImage,blankImage,candycane01a,,,,,,,,,,,,0,137,137,9,,,,,,,,,,,,,,,,,,,,,,,,,,,,,,,,,,,898.1010852000327,899.1135576000088,899.0970322000212,899.6751023000106,899.6751023000106,None,901.0580505999969,None,left,1.6758962999447249,901.0580505999969,None,902.7520461000386,None,right,0.5578431999892928,902.7520461000386,None,,,,,,,,,,,,,,,,,,,,,,,PPT29,001,2022-07-05_10h02.02.762,ABstudy,2022.1.4,59.93698224451799,
