TrialType,CondType,Lag,T1_PA,T2_PA,T1Loc,T2Loc,PreDistractor,PostDistractor,TotalImg,cueWord,T1cue,StimLength,isi,PicFolder,Img1,Img2,Img3,Img4,Img5,Img6,Img7,Img8,Img9,Img10,Img11,Img12,Img13,Img14,Img15,Img16,Img17,T1_Identity,ImageType,T1PA,T2PA,Picture,Image,FullPathName,FilePath,Practice_Trials.thisRepN,Practice_Trials.thisTrialN,Practice_Trials.thisN,Practice_Trials.thisIndex,trials.thisRepN,trials.thisTrialN,trials.thisN,trials.thisIndex,trials_2.thisRepN,trials_2.thisTrialN,trials_2.thisN,trials_2.thisIndex,Practice_Ins.started,Practice_Ins.stopped,End_Prac_Ins.keys,End_Prac_Ins.rt,End_Prac_Ins.started,End_Prac_Ins.stopped,text_2.started,text_2.stopped,Fixation_Cross_2.started,Fixation_Cross_2.stopped,Rapid_Image_Present_2.started,Rapid_Image_Present_2.stopped,key_resp.keys,key_resp.rt,key_resp.started,key_resp.stopped,T1Response_2.started,T1Response_2.stopped,T2Response_2.started,T2Response_2.stopped,key_resp_4.keys,key_resp_4.rt,key_resp_4.started,key_resp_4.stopped,text.started,text.stopped,End_Instructions.keys,End_Instructions.rt,End_Instructions.started,End_Instructions.stopped,text_5.started,text_5.stopped,FC.started,FC.stopped,Rapid_Image_Present.started,Rapid_Image_Present.stopped,T1Response.started,T1Response.stopped,key_resp_2.keys,key_resp_2.rt,key_resp_2.started,key_resp_2.stopped,T2Response.started,T2Response.stopped,key_resp_3.keys,key_resp_3.rt,key_resp_3.started,key_resp_3.stopped,text_6.started,text_6.stopped,Fin_ins.keys,Fin_ins.rt,Fin_ins.started,Fin_ins.stopped,MemTest.started,MemTest.stopped,MemResponse.keys,MemResponse.rt,MemResponse.started,MemResponse.stopped,Display.started,Display.stopped,text_7.started,text_7.stopped,endOfExperiment.started,endOfExperiment.stopped,key_resp_5.keys,key_resp_5.rt,key_resp_5.started,key_resp_5.stopped,participant,session,date,expName,psychopyVersion,frameRate,
,,,,,,,,,,,,,,,,,,,,,,,,,,,,,,,,,,,,,,,,,,,,,,,,,,,,16.546046700008446,None,space,49.62174099998083,16.546046700008446,None,,,,,,,,,,,,,,,,,,,,,,,,,,,,,,,,,,,,,,,,,,,,,,,,,,,,,,,,,,,,,,,,,PPT25,001,2022-07-01_17h04.12.064,ABstudy,2022.1.4,59.93816778280159,
AB_Prac,Lag1_T1P_T2A,1,P,A,8,9,7,5,14,flower,Did you see the flower?,0.5,0.016,JPG\,razor01,axe01,binder03b,bowl01,kettle01,lettuce,lime,plasticflower01b,mitten04,pencilcase01,plunger02,strawbasket01,toothpick02,wallet02a,blankImage,blankImage,blankImage,plasticflower01b,,,,,,,,0,0,0,5,,,,,,,,,,,,,,,66.26821429998381,67.27808550000191,67.26284429998486,67.96126199999708,67.8881111999799,None,left,4.83615909999935,74.9891026999976,None,74.9891026999976,None,79.85902509998414,None,right,2.3961451000068337,79.85902509998414,None,,,,,,,,,,,,,,,,,,,,,,,,,,,,,,,,,,,,,,,,,,,,,,,PPT25,001,2022-07-01_17h04.12.064,ABstudy,2022.1.4,59.93816778280159,
AB_Prac,Lag1_T1P_T2A,1,P,A,5,6,4,5,11,Webcam,Did you see the Webcam?,0.5,0.016,JPG\,pictureframe04,binder03b,straw,adjustablewrench01b,webcam,cane,hairdryer02a,icepack,kitchenscale01a,lifejacket,piggybank,blankImage,blankImage,blankImage,blankImage,blankImage,blankImage,webcam,,,,,,,,0,1,1,6,,,,,,,,,,,,,,,82.28432129998691,83.29310599999735,83.27645030000713,83.87205030000769,83.87205030000769,None,left,1.0365698999958113,89.52290700000594,None,89.52290700000594,None,90.58336540000164,None,right,1.2562226000009105,90.58336540000164,None,,,,,,,,,,,,,,,,,,,,,,,,,,,,,,,,,,,,,,,,,,,,,,,PPT25,001,2022-07-01_17h04.12.064,ABstudy,2022.1.4,59.93816778280159,
AB_Prac,Lag5_T1A_T2A,5,A,A,6,11,5,5,16,castle,Did you see the castle?,0.5,0.016,JPG\,tape02a,englishmuffin,flask,ladle02a,monitor,peach01,keychain,squeegee01b,telephone01b,whisk,walkman,syringe02,baguette01,coaster,box01a,coffeepot03a,blankImage,None,,,,,,,,0,2,2,11,,,,,,,,,,,,,,,91.87028489998193,92.8857294000045,92.85235539998394,93.43815499998163,93.43815499998163,None,right,1.3428172999992967,101.51235319999978,None,101.51235319999978,None,102.87905920000048,None,right,0.7206230000010692,102.87905920000048,None,,,,,,,,,,,,,,,,,,,,,,,,,,,,,,,,,,,,,,,,,,,,,,,PPT25,001,2022-07-01_17h04.12.064,ABstudy,2022.1.4,59.93816778280159,
AB_Prac,Lag1_T1P_T2P,1,P,P,8,9,7,5,14,Tennis racket,Did you see the Tennis racket?,0.5,0.016,JPG\,coconut,computermouse06,croissant01,deodorant02a,pillow01a,peanut01,boot02b,tennisracket,stapler03b,crayon,eggplant,marker01a,plant01,radish01,blankImage,blankImage,blankImage,tennisracket,,,,,,,,0,3,3,0,,,,,,,,,,,,,,,103.63717989998986,104.64754000000539,104.63079100000323,105.23219330000575,105.23219330000575,None,left,0.6614448000036646,112.2743732999952,None,112.2743732999952,None,112.95569040000555,None,left,0.5958590999944136,112.95569040000555,None,,,,,,,,,,,,,,,,,,,,,,,,,,,,,,,,,,,,,,,,,,,,,,,PPT25,001,2022-07-01_17h04.12.064,ABstudy,2022.1.4,59.93816778280159,
AB_Prac,Lag1_T1P_T2P,1,P,P,6,7,5,5,12,triangle,Did you see the triangle?,0.5,0.016,JPG\,ginger,mousetrap,plum01,slipper01b,dropper01,triangle,stapler04b,pants,raspberry01,rope03,scale01a,vase01,blankImage,blankImage,blankImage,blankImage,blankImage,triangle,,,,,,,,0,4,4,1,,,,,,,,,,,,,,,113.57734689998324,114.59080599999288,114.57404989999486,115.16123860000516,115.16123860000516,None,left,0.922372799977893,121.22175209998386,None,121.22175209998386,None,122.1660225999949,None,right,1.0258633999910671,122.1660225999949,None,,,,,,,,,,,,,,,,,,,,,,,,,,,,,,,,,,,,,,,,,,,,,,,PPT25,001,2022-07-01_17h04.12.064,ABstudy,2022.1.4,59.93816778280159,
AB_Prac,Lag1_T1A_T2A,1,A,A,8,9,7,3,12,Moose,Did you see the Moose?,0.5,0.016,JPG\,clothespin03b,corkscrew03a,drillbit03a,fusilli03a,needlenosepliers01,perfume01a,pistachio,scrubbingbrush05b,spatula03,toothpastetube,hinge,toydinosaur,blankImage,blankImage,blankImage,blankImage,blankImage,None,,,,,,,,0,5,5,10,,,,,,,,,,,,,,,123.22973409999395,124.23379860000568,124.21708619999117,124.78576790000079,124.78576790000079,None,right,1.1934406999789644,130.80594550000387,None,130.80594550000387,None,132.02520340000046,None,right,0.6460186000040267,132.02520340000046,None,,,,,,,,,,,,,,,,,,,,,,,,,,,,,,,,,,,,,,,,,,,,,,,PPT25,001,2022-07-01_17h04.12.064,ABstudy,2022.1.4,59.93816778280159,
AB_Prac,Lag5_T1P_T2P,5,P,P,7,12,6,3,15,vacuum,Did you see the vacuum?,0.5,0.016,JPG\,fork07b,lightbulb01,manshoe,saw02b,shoelace,soap03a,vacuumcleaner01,floortile01,necklace,doll,cabbage,stapler03a,hanger02a,laptop01a,nailpolish03b,blankImage,blankImage,vacuumcleaner01,,,,,,,,0,6,6,2,,,,,,,,,,,,,,,132.70052670000587,133.70985620000283,133.69312700000592,134.27816899999743,134.27816899999743,None,left,3.3285464999789838,141.81464209998376,None,141.81464209998376,None,145.17176120000659,None,left,20.139029799989657,145.17176120000659,None,,,,,,,,,,,,,,,,,,,,,,,,,,,,,,,,,,,,,,,,,,,,,,,PPT25,001,2022-07-01_17h04.12.064,ABstudy,2022.1.4,59.93816778280159,
AB_Prac,Lag5_T1P_T2A,5,P,A,6,11,5,5,16,bread,Did you see the bread?,0.5,0.016,JPG\,cleaver01,clipboard,dustpan,hikingshoe01,notebook03a,baguette01,playingcard,pliers02b,styrofoamcup,rollingpin01a,swimgoggles,wineglass01,fryingpan02a,safetypin,syringe01,thimble,blankImage,baguette01,,,,,,,,0,7,7,8,,,,,,,,,,,,,,,165.34333469998091,166.35881629999494,166.3254619000072,166.906270699983,166.906270699983,None,left,3.190679099992849,175.0483161000011,None,175.0483161000011,None,178.27095879998524,None,right,0.5199032000091393,178.27095879998524,None,,,,,,,,,,,,,,,,,,,,,,,,,,,,,,,,,,,,,,,,,,,,,,,PPT25,001,2022-07-01_17h04.12.064,ABstudy,2022.1.4,59.93816778280159,
AB_Prac,Lag5_T1P_T2P,5,P,P,5,10,4,5,15,washing machine,Did you see the washing machine?,0.5,0.016,JPG\,waterbottle03,wheel01,flashlight02b,zucchini01,washingmachine,headphones02b,nutcracker01,paintroller01,paperclip03,stapler06,ribbon04,electricrazor,bottleofredwine01,pitabread,pot02a,blankImage,blankImage,washingmachine,,,,,,,,0,8,8,4,,,,,,,,,,,,,,,178.82639169998583,179.8393717999861,179.82250350000686,180.40194330000668,180.40194330000668,None,left,0.9810110999969766,187.9780083000078,None,187.9780083000078,None,188.98135260000709,None,left,0.3295889000000898,188.98135260000709,None,,,,,,,,,,,,,,,,,,,,,,,,,,,,,,,,,,,,,,,,,,,,,,,PPT25,001,2022-07-01_17h04.12.064,ABstudy,2022.1.4,59.93816778280159,
AB_Prac,Lag5_T1A_T2P,5,A,P,6,11,5,3,14,dog,Did you see the dog?,0.5,0.016,JPG\,bucket01a,doorlock,cookiecutter,fireextinguisher01,gluestick,highlighter02b,sportbag,spraybottle01,suitcase,thread02,stapler05,walnut01c,icecubetray01a,vikingmask01b,blankImage,blankImage,blankImage,None,,,,,,,,0,9,9,9,,,,,,,,,,,,,,,189.3340174999903,190.34939759998815,190.31602259998908,190.90392569999676,190.90392569999676,None,right,2.5849818999995477,197.91797579999547,None,197.91797579999547,None,200.5261332000082,None,left,0.6100987000099849,200.5261332000082,None,,,,,,,,,,,,,,,,,,,,,,,,,,,,,,,,,,,,,,,,,,,,,,,PPT25,001,2022-07-01_17h04.12.064,ABstudy,2022.1.4,59.93816778280159,
AB_Prac,Lag5_T1P_T2P,5,P,P,5,10,4,5,15,Vulture,Did you see the Vulture?,0.5,0.016,JPG\,shorts01,toast,ramekin01,bib,vulture,cracker02,date,glasses01a,hat03b,stapler01,measuringtape01,nail,pill,drum01,starfish01,blankImage,blankImage,vulture,,,,,,,,0,10,10,3,,,,,,,,,,,,,,,201.1669416000077,202.17806109998492,202.16130949999206,202.75754049999523,202.75754049999523,None,left,0.0651404999953229,210.24648929998511,None,210.24648929998511,None,210.3359488999995,None,left,0.8713811000052374,210.3359488999995,None,,,,,,,,,,,,,,,,,,,,,,,,,,,,,,,,,,,,,,,,,,,,,,,PPT25,001,2022-07-01_17h04.12.064,ABstudy,2022.1.4,59.93816778280159,
AB_Prac,Lag5_T1P_T2A,5,P,A,6,11,5,5,16,Wheat,Did you see the Wheat?,0.5,0.016,JPG\,bottleopener01,dentalfloss03b,cooler01,icecreamcone01a,paperclip01b,wheat,pencilsharpener02a,plasticbasket01a,toycar04,apricot,hairclip02,rock01a,honeydewmelon,antenna,blackberry,cardboardbox,blankImage,wheat,,,,,,,,0,11,11,7,,,,,,,,,,,,,,,211.23908679999295,212.23807059999672,212.221484699985,212.87525670000468,212.87525670000468,None,left,0.7361410000012256,220.96745150000788,None,220.96745150000788,None,221.73060049998458,None,right,0.22871870000381023,221.73060049998458,None,,,,,,,,,,,,,,,,,,,,,,,,,,,,,,,,,,,,,,,,,,,,,,,PPT25,001,2022-07-01_17h04.12.064,ABstudy,2022.1.4,59.93816778280159,
,,,,,,,,,,,,,,,,,,,,,,,,,,,,,,,,,,,,,,,,,,,,,,,,,,,,,,,,,,,,,,,,,,,,,,,,,,,,221.98096519999672,None,space,6.033677800005535,221.98096519999672,None,,,,,,,,,,,,,,,,,,,,,,,,,,,,,,,,,,,,,,,,,PPT25,001,2022-07-01_17h04.12.064,ABstudy,2022.1.4,59.93816778280159,
AB,Lag1_T1P_T2P,1,P,P,7,8,6,5,13,disco ball,Did you see the disco ball?,0.12,0.016,JPG\,candle01,paintbrush01,scissors01,fan,microscope,toothbrush03b,discoball,stapler03b,teabag,pencil01,lemon02,ashtray01,shirt02,blankImage,blankImage,blankImage,blankImage,discoball,,,,,,,,,,,,0,0,0,60,,,,,,,,,,,,,,,,,,,,,,,,,,,,,,,,,,,228.6998776999826,229.7051775,229.6885410999821,230.28657259998727,230.28657259998727,None,231.8989658000064,None,left,0.9487311000120826,231.8989658000064,None,232.87529050000012,None,left,0.11539399999310263,232.87529050000012,None,,,,,,,,,,,,,,,,,,,,,,,PPT25,001,2022-07-01_17h04.12.064,ABstudy,2022.1.4,59.93816778280159,
AB,Lag5_T1P_T2P,5,P,P,8,13,7,5,18,skis,Did you see the skis?,0.12,0.016,JPG\,tennisball01b,paintbrush01,medal02b,apple07,speaker04,iron01b,avocado01,downhillski,belt02a,toiletpaper01a,watermelon01,candle01,stapler01,cymbal,ashtray01,screwdriver04b,blankImage,downhillski,,,,,,,,,,,,0,1,1,106,,,,,,,,,,,,,,,,,,,,,,,,,,,,,,,,,,,233.0111298999982,234.0101911999809,233.99453530000756,234.59327690000646,234.59327690000646,None,236.48765530000674,None,left,1.006975500000408,236.48765530000674,None,237.51306339999428,None,right,0.3264964999980293,237.51306339999428,None,,,,,,,,,,,,,,,,,,,,,,,PPT25,001,2022-07-01_17h04.12.064,ABstudy,2022.1.4,59.93816778280159,
AB,Lag5_T1P_T2P,5,P,P,7,12,6,3,15,mail box,Did you see the mail box?,0.12,0.016,JPG\,key01,apple07,ring01,leaf02a,hammer01,tableknife02,postalmailbox01,sponge01,baseball01a,thermometer02b,celery,stapler06,grape01,cucumber,tennisball01b,blankImage,blankImage,postalmailbox01,,,,,,,,,,,,0,2,2,113,,,,,,,,,,,,,,,,,,,,,,,,,,,,,,,,,,,237.8691493999795,238.88137069999357,238.8647510999872,239.47769709999557,239.47769709999557,None,241.2477503999835,None,left,0.9358137999952305,241.2477503999835,None,242.20150550000835,None,right,0.30942719997256063,242.20150550000835,None,,,,,,,,,,,,,,,,,,,,,,,PPT25,001,2022-07-01_17h04.12.064,ABstudy,2022.1.4,59.93816778280159,
AB,Lag1_T1P_T2P,1,P,P,8,9,7,5,14,helicopter,Did you see the helicopter?,0.12,0.016,JPG\,broom01,globe,cellphone,tableknife02,cauliflower01,scissors01,ring01,helicopter,stapler01,toaster01,cigarette,grape01,microscope,cucumber,blankImage,blankImage,blankImage,helicopter,,,,,,,,,,,,0,3,3,85,,,,,,,,,,,,,,,,,,,,,,,,,,,,,,,,,,,242.5857175999845,243.58584189999965,243.5691705000063,244.14876739998,244.14876739998,None,245.83670960000018,None,left,0.7619563000043854,245.83670960000018,None,246.62204570000176,None,left,0.12067050000769086,246.62204570000176,None,,,,,,,,,,,,,,,,,,,,,,,PPT25,001,2022-07-01_17h04.12.064,ABstudy,2022.1.4,59.93816778280159,
AB,Lag5_T1P_T2P,5,P,P,5,10,4,5,15,baseball bat,Did you see the baseball bat?,0.12,0.016,JPG\,pizza,printer02,medal02b,spoon01,baseballbat,lighter01,belt02a,watermelon01,celery,stapler04b,screw02,comb02a,cauliflower01,lipstick02a,potato02b,blankImage,blankImage,baseballbat,,,,,,,,,,,,0,4,4,123,,,,,,,,,,,,,,,,,,,,,,,,,,,,,,,,,,,246.7744243000052,247.789875699993,247.75665540000773,248.3481335999968,248.3481335999968,None,250.2421844000055,None,left,0.396599800005788,250.2421844000055,None,250.65941379999276,None,left,0.12345169999753125,250.65941379999276,None,,,,,,,,,,,,,,,,,,,,,,,PPT25,001,2022-07-01_17h04.12.064,ABstudy,2022.1.4,59.93816778280159,
AB,Lag5_T1P_T2P,5,P,P,5,10,4,5,15,scorpion,Did you see the scorpion?,0.12,0.016,JPG\,fan,tomato01,candy,screwdriver04b,scorpion,cd,thermometer02b,apple07,button01,stapler01,brownsugar,lighter01,clock01a,envelope03a,clock04,blankImage,blankImage,scorpion,,,,,,,,,,,,0,5,5,97,,,,,,,,,,,,,,,,,,,,,,,,,,,,,,,,,,,250.8135726999899,251.8274023999984,251.79402649999247,252.37757399998372,252.37757399998372,None,254.2289261999831,None,left,0.42615079999086447,254.2289261999831,None,254.68044729999383,None,left,0.1184159999829717,254.68044729999383,None,,,,,,,,,,,,,,,,,,,,,,,PPT25,001,2022-07-01_17h04.12.064,ABstudy,2022.1.4,59.93816778280159,
AB,Lag5_T1P_T2A,5,P,A,8,13,7,3,16,Shelves,Did you see the Shelves?,0.12,0.016,JPG\,pineapple01a,leaf02a,grape01,toiletpaper01a,match,tennisball01b,spoon01,shelves,pig,measuringcup01,ring01,lemon02,dice05a,pizza,potato02b,eraser,blankImage,shelves,,,,,,,,,,,,0,6,6,222,,,,,,,,,,,,,,,,,,,,,,,,,,,,,,,,,,,254.83994199999142,255.8478710000054,255.83129349999945,256.4082201999845,256.4082201999845,None,258.3740084999881,None,left,0.5942744999774732,258.3740084999881,None,258.9989578999812,None,right,0.44908930000383407,258.9989578999812,None,,,,,,,,,,,,,,,,,,,,,,,PPT25,001,2022-07-01_17h04.12.064,ABstudy,2022.1.4,59.93816778280159,
AB,Lag5_T1P_T2P,5,P,P,5,10,4,4,14,bell,Did you see the bell?,0.12,0.016,JPG\,teabag,envelope03a,cellphone,apple07,callbell,orange,brownsugar,book01b,hammer01,stapler03b,toaster01,calculator01,globe,battery02b,blankImage,blankImage,blankImage,callbell,,,,,,,,,,,,0,7,7,147,,,,,,,,,,,,,,,,,,,,,,,,,,,,,,,,,,,259.4778366999817,260.48591220000526,260.4692024999822,261.04875889999676,261.04875889999676,None,262.7855050000071,None,left,0.46166609998908825,262.7855050000071,None,263.27216110000154,None,left,0.11895950001780875,263.27216110000154,None,,,,,,,,,,,,,,,,,,,,,,,PPT25,001,2022-07-01_17h04.12.064,ABstudy,2022.1.4,59.93816778280159,
AB,Lag1_T1A_T2P,1,A,P,5,6,4,3,9,Spider,Did you see the Spider?,0.12,0.016,JPG\,pen04b,speaker04,lighter01,cherry01,8ball,stapler04b,sock01a,toothbrush03b,broom01,blankImage,blankImage,blankImage,blankImage,blankImage,blankImage,blankImage,blankImage,bridge,,,,,,,,,,,,0,8,8,250,,,,,,,,,,,,,,,,,,,,,,,,,,,,,,,,,,,263.4237810999912,264.42334629999823,264.40697949999594,265.0052163999935,265.0052163999935,None,266.0906888000027,None,right,1.3167145000188611,266.0906888000027,None,267.4260979999963,None,right,0.1414842999947723,267.4260979999963,None,,,,,,,,,,,,,,,,,,,,,,,PPT25,001,2022-07-01_17h04.12.064,ABstudy,2022.1.4,59.93816778280159,
AB,Lag1_T1P_T2P,1,P,P,6,7,5,3,10,drum sticks,Did you see the drum sticks?,0.12,0.016,JPG\,pineapple01a,tennisball01b,computerkeyboard02,feather03a,belt02a,drumstick,stapler03b,blueberry01,medal02b,alligator,blankImage,blankImage,blankImage,blankImage,blankImage,blankImage,blankImage,drumstick,,,,,,,,,,,,0,9,9,61,,,,,,,,,,,,,,,,,,,,,,,,,,,,,,,,,,,267.59619559999555,268.5946108000062,268.5789631999796,269.17186740000034,269.17186740000034,None,270.3132307000051,None,left,0.7421468999818899,270.3132307000051,None,271.0798583999858,None,left,0.7356530000106432,271.0798583999858,None,,,,,,,,,,,,,,,,,,,,,,,PPT25,001,2022-07-01_17h04.12.064,ABstudy,2022.1.4,59.93816778280159,
AB,Lag1_T1A_T2A,1,A,A,6,7,5,5,12,flamingo,Did you see the flamingo?,0.12,0.016,JPG\,chain01,pen04b,birthdaycandle,watermelon01,broom01,scissors01,measuringcup01,candle01,hammer01,calculator01,ashtray01,feather03a,blankImage,blankImage,blankImage,blankImage,blankImage,witchhat,,,,,,,,,,,,0,10,10,288,,,,,,,,,,,,,,,,,,,,,,,,,,,,,,,,,,,271.8493926000083,272.86484490000294,272.8314796999912,273.40855900000315,273.40855900000315,None,274.90349810000043,None,right,1.167050999996718,274.90349810000043,None,276.1015636000084,None,right,0.2491005000192672,276.1015636000084,None,,,,,,,,,,,,,,,,,,,,,,,PPT25,001,2022-07-01_17h04.12.064,ABstudy,2022.1.4,59.93816778280159,
AB,Lag1_T1P_T2P,1,P,P,6,7,5,3,10,Pool table,Did you see the Pool table?,0.12,0.016,JPG\,tomato01,pen04b,shirt02,carrot01,lamp04a,pooltable,stapler06,avocado01,sewingmachine01a,apple07,blankImage,blankImage,blankImage,blankImage,blankImage,blankImage,blankImage,pooltable,,,,,,,,,,,,0,11,11,29,,,,,,,,,,,,,,,,,,,,,,,,,,,,,,,,,,,276.3758433999901,277.3860296999919,277.36934229999315,277.97820549999597,277.97820549999597,None,279.18635810000706,None,left,2.6690510000044014,279.18635810000706,None,281.8750669999863,None,left,0.13938839998445474,281.8750669999863,None,,,,,,,,,,,,,,,,,,,,,,,PPT25,001,2022-07-01_17h04.12.064,ABstudy,2022.1.4,59.93816778280159,
AB,Lag5_T1P_T2P,5,P,P,8,13,7,4,17,Accordion,Did you see the Accordion?,0.12,0.016,JPG\,toiletpaper01a,lipstick02a,potato02b,speaker04,globe,strawberry,carrot01,accordion01,sock01a,candle08b,pen04b,calculator01,stapler01,brick,pear01,fork03c,blankImage,accordion01,,,,,,,,,,,,0,12,12,162,,,,,,,,,,,,,,,,,,,,,,,,,,,,,,,,,,,282.0515984999947,283.05828909997945,283.04160900000716,283.66863820000435,283.66863820000435,None,285.52489840000635,None,left,1.2584273999964353,285.52489840000635,None,286.8120389999822,None,right,0.2192161999992095,286.8120389999822,None,,,,,,,,,,,,,,,,,,,,,,,PPT25,001,2022-07-01_17h04.12.064,ABstudy,2022.1.4,59.93816778280159,
AB,Lag5_T1P_T2A,5,P,A,6,11,5,5,16,hat,Did you see the hat?,0.12,0.016,JPG\,apple07,toiletpaper01a,pizza,dandelion,greenolive,pilgrimhat,microscope,violin,orange,lipstick02a,balloon01b,sandal,lighter01,fan,book01b,sewingmachine01a,blankImage,pilgrimhat,,,,,,,,,,,,0,13,13,206,,,,,,,,,,,,,,,,,,,,,,,,,,,,,,,,,,,287.06456599998637,288.0800323000003,288.0466048999806,288.6317589999817,288.6317589999817,None,290.63692560000345,None,left,1.097734600014519,290.63692560000345,None,291.76698190000025,None,left,0.15149409999139607,291.76698190000025,None,,,,,,,,,,,,,,,,,,,,,,,PPT25,001,2022-07-01_17h04.12.064,ABstudy,2022.1.4,59.93816778280159,
AB,Lag5_T1P_T2A,5,P,A,8,13,7,4,17,fountain,Did you see the fountain?,0.12,0.016,JPG\,printer02,envelope03a,potato02b,calculator01,tableknife02,cigarette,ashtray01,parkfountain,broom01,greenolive,candle08b,battery02b,strawberry,candle01,foosballtable,tennisball01b,blankImage,parkfountain,,,,,,,,,,,,0,14,14,219,,,,,,,,,,,,,,,,,,,,,,,,,,,,,,,,,,,291.95272750000004,292.95175599999493,292.93674179998925,293.6014162999927,293.51887729999726,None,295.4894268999924,None,left,1.2375540000211913,295.4894268999924,None,296.755253899988,None,right,0.1957717000041157,296.755253899988,None,,,,,,,,,,,,,,,,,,,,,,,PPT25,001,2022-07-01_17h04.12.064,ABstudy,2022.1.4,59.93816778280159,
AB,Lag1_T1A_T2P,1,A,P,6,7,5,3,10,curtain,Did you see the curtain?,0.12,0.016,JPG\,carrot01,greenolive,fork03c,chain01,ashtray01,watermelon01,stapler06,printer02,comb02a,toaster01,blankImage,blankImage,blankImage,blankImage,blankImage,blankImage,blankImage,birdhouse,,,,,,,,,,,,0,15,15,249,,,,,,,,,,,,,,,,,,,,,,,,,,,,,,,,,,,296.97448939998867,297.98999410000397,297.9565034999978,298.539386199991,298.539386199991,None,299.8089827999938,None,right,1.2137466999993194,299.8089827999938,None,301.0435148999968,None,right,0.18807340000057593,301.0435148999968,None,,,,,,,,,,,,,,,,,,,,,,,PPT25,001,2022-07-01_17h04.12.064,ABstudy,2022.1.4,59.93816778280159,
AB,Lag1_T1P_T2P,1,P,P,5,6,4,5,11,shark,Did you see the shark?,0.12,0.016,JPG\,cucumber,sponge01,alligator,pear01,greatwhiteshark,stapler06,clock04,battery02b,fork03c,binoculars01b,mushroom01,blankImage,blankImage,blankImage,blankImage,blankImage,blankImage,greatwhiteshark,,,,,,,,,,,,0,16,16,84,,,,,,,,,,,,,,,,,,,,,,,,,,,,,,,,,,,301.2639480000071,302.27765229999204,302.2609564999875,302.8481588999857,302.8481588999857,None,304.22941199998604,None,left,0.5773112999740988,304.22941199998604,None,304.8300191999879,None,left,0.1285638999834191,304.8300191999879,None,,,,,,,,,,,,,,,,,,,,,,,PPT25,001,2022-07-01_17h04.12.064,ABstudy,2022.1.4,59.93816778280159,
AB,Lag5_T1P_T2P,5,P,P,5,10,4,3,13,Sushi,Did you see the Sushi?,0.12,0.016,JPG\,carrot01,greenolive,fork03c,chain01,makiroll,watermelon01,tableknife02,printer02,comb02a,stapler03b,orange,rice,fan,blankImage,blankImage,blankImage,blankImage,makiroll,,,,,,,,,,,,0,17,17,135,,,,,,,,,,,,,,,,,,,,,,,,,,,,,,,,,,,304.98238760000095,305.98149559999,305.9648113999865,306.549440999981,306.549440999981,None,308.1352985999838,None,left,0.39131449998239987,308.1352985999838,None,308.56479629999376,None,left,0.11367009999230504,308.56479629999376,None,,,,,,,,,,,,,,,,,,,,,,,PPT25,001,2022-07-01_17h04.12.064,ABstudy,2022.1.4,59.93816778280159,
AB,Lag5_T1P_T2P,5,P,P,5,10,4,5,15,funnel,Did you see the funnel?,0.12,0.016,JPG\,pineapple01a,tennisball01b,computerkeyboard02,feather03a,funnel,acorn,violin,blueberry01,medal02b,stapler01,greenolive,screwdriver04b,potato02b,fork03c,cymbal,blankImage,blankImage,funnel,,,,,,,,,,,,0,18,18,109,,,,,,,,,,,,,,,,,,,,,,,,,,,,,,,,,,,308.71016429999145,309.7182562999951,309.70157509998535,310.2835637999815,310.2835637999815,None,312.02537079999456,None,right,1.685544599982677,312.02537079999456,None,313.7392918999831,None,left,0.6032062999729533,313.7392918999831,None,,,,,,,,,,,,,,,,,,,,,,,PPT25,001,2022-07-01_17h04.12.064,ABstudy,2022.1.4,59.93816778280159,
AB,Lag1_T1P_T2A,1,P,A,5,6,4,5,11,Electric toothbrush,Did you see the Electric toothbrush?,0.12,0.016,JPG\,carrot01,greenolive,fork03c,chain01,electrictoothbrush01c,watermelon01,tableknife02,printer02,comb02a,toaster01,orange,blankImage,blankImage,blankImage,blankImage,blankImage,blankImage,electrictoothbrush01c,,,,,,,,,,,,0,19,19,186,,,,,,,,,,,,,,,,,,,,,,,,,,,,,,,,,,,314.3832008999889,315.3915491999942,315.37588139998843,315.97752479999326,315.97752479999326,None,317.3664780999825,None,left,0.9609746999922208,317.3664780999825,None,318.36018699998385,None,right,0.1510668999981135,318.36018699998385,None,,,,,,,,,,,,,,,,,,,,,,,PPT25,001,2022-07-01_17h04.12.064,ABstudy,2022.1.4,59.93816778280159,
AB,Lag5_T1A_T2A,5,A,A,5,10,4,5,15,window,Did you see the window?,0.12,0.016,JPG\,leaf02a,apple07,cd,pineapple01a,envelope03a,paintbrush01,pig,canoftennisballs,rice,feather03a,lemon02,balloon01b,avocado01,calculator01,watermelon01,blankImage,blankImage,saxophone,,,,,,,,,,,,0,20,20,301,,,,,,,,,,,,,,,,,,,,,,,,,,,,,,,,,,,318.5441326999862,319.5447082000028,319.5279832999804,320.1298826999846,320.1298826999846,None,321.986837000004,None,right,0.9479552000120748,321.986837000004,None,322.9647107000055,None,right,0.15395770000759512,322.9647107000055,None,,,,,,,,,,,,,,,,,,,,,,,PPT25,001,2022-07-01_17h04.12.064,ABstudy,2022.1.4,59.93816778280159,
AB,Lag1_T1P_T2P,1,P,P,8,9,7,4,13,Doughnut,Did you see the Doughnut?,0.12,0.016,JPG\,brick,eraser,cucumber,ashtray01,thermometer02b,binoculars01b,lipstick02a,donut,stapler01,brownsugar,battery02b,iron01b,dice05a,blankImage,blankImage,blankImage,blankImage,donut,,,,,,,,,,,,0,21,21,39,,,,,,,,,,,,,,,,,,,,,,,,,,,,,,,,,,,323.15050180000253,324.1658993999881,324.13257739998517,324.7193539,324.7193539,None,326.32045860000653,None,left,1.2860808999976143,326.32045860000653,None,327.63674729998456,None,right,0.19372979999752715,327.63674729998456,None,,,,,,,,,,,,,,,,,,,,,,,PPT25,001,2022-07-01_17h04.12.064,ABstudy,2022.1.4,59.93816778280159,
AB,Lag5_T1A_T2A,5,A,A,5,10,4,5,15,truck,Did you see the truck?,0.12,0.016,JPG\,pizza,printer02,medal02b,spoon01,grape01,lighter01,belt02a,watermelon01,celery,battery02b,screw02,comb02a,cauliflower01,lipstick02a,potato02b,blankImage,blankImage,postalmailbox01,,,,,,,,,,,,0,22,22,297,,,,,,,,,,,,,,,,,,,,,,,,,,,,,,,,,,,327.8583573999931,328.8708888999827,328.8542948999966,329.45349980000174,329.45349980000174,None,331.2645564999839,None,right,1.5182234999956563,331.2645564999839,None,332.80900969999493,None,right,0.15759560000151396,332.80900969999493,None,,,,,,,,,,,,,,,,,,,,,,,PPT25,001,2022-07-01_17h04.12.064,ABstudy,2022.1.4,59.93816778280159,
AB,Lag5_T1A_T2P,5,A,P,7,12,6,3,15,hockey puck,Did you see the hockey puck?,0.12,0.016,JPG\,toiletpaper01a,lipstick02a,potato02b,speaker04,globe,strawberry,carrot01,plate01b,sock01a,candle08b,pen04b,stapler04b,foosballtable,brick,pear01,blankImage,blankImage,frisbee,,,,,,,,,,,,0,23,23,260,,,,,,,,,,,,,,,,,,,,,,,,,,,,,,,,,,,332.9991732999915,334.0091648999951,333.9927015999856,334.5826607999916,334.5826607999916,None,336.41448149998905,None,right,1.1120152999938,336.41448149998905,None,337.5457430999959,None,left,0.30957690000650473,337.5457430999959,None,,,,,,,,,,,,,,,,,,,,,,,PPT25,001,2022-07-01_17h04.12.064,ABstudy,2022.1.4,59.93816778280159,
AB,Lag1_T1A_T2A,1,A,A,5,6,4,3,9,Pigeon,Did you see the Pigeon?,0.12,0.016,JPG\,candle01,paintbrush01,scissors01,fan,microscope,toothbrush03b,candle08b,watermelon01,teabag,blankImage,blankImage,blankImage,blankImage,blankImage,blankImage,blankImage,blankImage,floorlamp,,,,,,,,,,,,0,24,24,286,,,,,,,,,,,,,,,,,,,,,,,,,,,,,,,,,,,337.8816411999869,338.89709789998597,338.8636931999936,339.43349809999927,339.43349809999927,None,340.5643974999839,None,right,1.7875179999973625,340.5643974999839,None,342.38433959998656,None,right,0.1665764999925159,342.38433959998656,None,,,,,,,,,,,,,,,,,,,,,,,PPT25,001,2022-07-01_17h04.12.064,ABstudy,2022.1.4,59.93816778280159,
AB,Lag1_T1P_T2P,1,P,P,7,8,6,3,11,locker,Did you see the locker?,0.12,0.016,JPG\,toiletpaper01a,lipstick02a,potato02b,speaker04,globe,strawberry,locker,stapler04b,sock01a,candle08b,pen04b,blankImage,blankImage,blankImage,blankImage,blankImage,blankImage,locker,,,,,,,,,,,,0,25,25,19,,,,,,,,,,,,,,,,,,,,,,,,,,,,,,,,,,,342.57192839999334,343.58551669999724,343.56871160000446,344.1689023000072,344.1689023000072,None,345.4959902999981,None,right,1.2240792000084184,345.4959902999981,None,346.7383162000042,None,left,0.28406489998451434,346.7383162000042,None,,,,,,,,,,,,,,,,,,,,,,,PPT25,001,2022-07-01_17h04.12.064,ABstudy,2022.1.4,59.93816778280159,
AB,Lag1_T1A_T2P,1,A,P,5,6,4,3,9,barrel,Did you see the barrel?,0.12,0.016,JPG\,clock01a,cellphone,toaster01,toothbrush03b,cauliflower01,stapler01,comb02a,paintbrush01,scarf,blankImage,blankImage,blankImage,blankImage,blankImage,blankImage,blankImage,blankImage,sheep,,,,,,,,,,,,0,26,26,243,,,,,,,,,,,,,,,,,,,,,,,,,,,,,,,,,,,347.0409522999835,348.0563870999904,348.0230901000032,348.6055841000052,348.6055841000052,None,349.76103689998854,None,right,1.17419270001119,349.76103689998854,None,350.9592961999879,None,left,0.18471209998824634,350.9592961999879,None,,,,,,,,,,,,,,,,,,,,,,,PPT25,001,2022-07-01_17h04.12.064,ABstudy,2022.1.4,59.93816778280159,
AB,Lag5_T1P_T2P,5,P,P,6,11,5,4,15,Witch hat,Did you see the Witch hat?,0.12,0.016,JPG\,pizza,watch02a,greenolive,cucumber,match,witchhat,scissors01,broom01,globe,cherry01,stapler03a,cigarette,microscope,cellphone,speaker04,blankImage,blankImage,witchhat,,,,,,,,,,,,0,27,27,101,,,,,,,,,,,,,,,,,,,,,,,,,,,,,,,,,,,351.17844519999926,352.19432579999557,352.160478899983,352.76482829998713,352.76482829998713,None,354.62437609999324,None,left,0.5258371999952942,354.62437609999324,None,355.182069100003,None,left,0.1208213999925647,355.182069100003,None,,,,,,,,,,,,,,,,,,,,,,,PPT25,001,2022-07-01_17h04.12.064,ABstudy,2022.1.4,59.93816778280159,
AB,Lag1_T1P_T2A,1,P,A,6,7,5,3,10,Dragon fly,Did you see the Dragon fly?,0.12,0.016,JPG\,leaf02a,pear01,measuringcup01,cigarette,fan,dragonfly01,teabag,tableknife02,ring01,pencil01,blankImage,blankImage,blankImage,blankImage,blankImage,blankImage,blankImage,dragonfly01,,,,,,,,,,,,0,28,28,185,,,,,,,,,,,,,,,,,,,,,,,,,,,,,,,,,,,355.33464529999765,356.3481314999808,356.3314074999944,356.91458109999076,356.91458109999076,None,358.1819834999915,None,left,1.1928123999969102,358.1819834999915,None,359.40095740000834,None,right,0.6137553999724332,359.40095740000834,None,,,,,,,,,,,,,,,,,,,,,,,PPT25,001,2022-07-01_17h04.12.064,ABstudy,2022.1.4,59.93816778280159,
AB,Lag5_T1P_T2P,5,P,P,7,12,6,3,15,lips,Did you see the lips?,0.12,0.016,JPG\,cigarette,fork03c,greenolive,broccoli01a,avocado01,tennisball01b,lip,leaf02a,pig,fan,clock01a,stapler03a,envelope03a,birthdaycandle,teabag,blankImage,blankImage,lip,,,,,,,,,,,,0,29,29,95,,,,,,,,,,,,,,,,,,,,,,,,,,,,,,,,,,,360.0386684999976,361.05288659999496,361.0195361999795,361.5994830999989,361.5994830999989,None,363.4036205000011,None,left,0.595520500006387,363.4036205000011,None,364.02300250000553,None,left,0.11994609999237582,364.02300250000553,None,,,,,,,,,,,,,,,,,,,,,,,PPT25,001,2022-07-01_17h04.12.064,ABstudy,2022.1.4,59.93816778280159,
AB,Lag5_T1P_T2P,5,P,P,6,11,5,5,16,sword,Did you see the sword?,0.12,0.016,JPG\,chain01,speaker04,avocado01,watermelon01,scarf,sword01,lamp04a,fork03c,toaster01,slipper03b,stapler03a,cucumber,teabag,ashtray01,computerkeyboard02,book01b,blankImage,sword01,,,,,,,,,,,,0,30,30,143,,,,,,,,,,,,,,,,,,,,,,,,,,,,,,,,,,,364.17742429999635,365.1901322999911,365.15665920000174,365.72982129998854,365.72982129998854,None,367.686403300002,None,left,0.37631249998230487,367.686403300002,None,368.0951858999906,None,left,0.13502009998774156,368.0951858999906,None,,,,,,,,,,,,,,,,,,,,,,,PPT25,001,2022-07-01_17h04.12.064,ABstudy,2022.1.4,59.93816778280159,
AB,Lag1_T1P_T2P,1,P,P,7,8,6,3,11,Daddy Long Legs,Did you see the Daddy Long Legs?,0.12,0.016,JPG\,lighter01,hammer01,spoon01,chain01,cymbal,sponge01,daddylonglegs,stapler03b,pig,watermelon01,cauliflower01,blankImage,blankImage,blankImage,blankImage,blankImage,blankImage,daddylonglegs,,,,,,,,,,,,0,31,31,86,,,,,,,,,,,,,,,,,,,,,,,,,,,,,,,,,,,368.26656739998725,369.2774640999851,369.2607950999809,369.833532699995,369.833532699995,None,371.19357939998736,None,right,4.5651057999930345,371.19357939998736,None,375.78453079998144,None,right,0.9101812999870162,375.78453079998144,None,,,,,,,,,,,,,,,,,,,,,,,PPT25,001,2022-07-01_17h04.12.064,ABstudy,2022.1.4,59.93816778280159,
AB,Lag5_T1P_T2P,5,P,P,6,11,5,3,14,wrench,Did you see the wrench?,0.12,0.016,JPG\,cherry01,cymbal,envelope03a,foosballtable,shirt02,stubbywrench01a,sewingmachine01a,candle08b,battery02b,apple07,stapler03b,screwdriver04b,strawberry,sunglasses04,blankImage,blankImage,blankImage,stubbywrench01a,,,,,,,,,,,,0,32,32,122,,,,,,,,,,,,,,,,,,,,,,,,,,,,,,,,,,,376.72210759998416,377.73619289998896,377.71950740000466,378.35957669999334,378.28341639999417,None,380.01740310000605,None,left,1.8211488999950234,380.01740310000605,None,381.85709289999795,None,right,0.38143149999086745,381.85709289999795,None,,,,,,,,,,,,,,,,,,,,,,,PPT25,001,2022-07-01_17h04.12.064,ABstudy,2022.1.4,59.93816778280159,
AB,Lag1_T1A_T2P,1,A,P,6,7,5,5,12,Ostrich,Did you see the Ostrich?,0.12,0.016,JPG\,thermometer02b,candle08b,comb02a,toothbrush03b,brick,computerkeyboard02,stapler05,pineapple01a,candy,birthdaycandle,clock04,hairclip03,blankImage,blankImage,blankImage,blankImage,blankImage,discoball,,,,,,,,,,,,0,33,33,232,,,,,,,,,,,,,,,,,,,,,,,,,,,,,,,,,,,382.26439229998505,383.2749114999897,383.25817590000224,383.8551300999825,383.8551300999825,None,385.3052886999794,None,right,1.389747899986105,385.3052886999794,None,386.71203880000394,None,right,0.6787375999847427,386.71203880000394,None,,,,,,,,,,,,,,,,,,,,,,,PPT25,001,2022-07-01_17h04.12.064,ABstudy,2022.1.4,59.93816778280159,
AB,Lag5_T1P_T2A,5,P,A,5,10,4,4,14,Ship in a bottle,Did you see the Ship in a bottle?,0.12,0.016,JPG\,sewingmachine01a,thermometer02b,sponge01,eraser,shipinabottle,fork03c,pizza,violin,belt02a,medal02b,pineapple01a,tennisball01b,dandelion,cauliflower01,blankImage,blankImage,blankImage,shipinabottle,,,,,,,,,,,,0,34,34,208,,,,,,,,,,,,,,,,,,,,,,,,,,,,,,,,,,,387.42047310000635,388.4301221999922,388.41337259998545,389.01903049999964,389.01903049999964,None,390.7029009999824,None,left,1.0320338999736123,390.7029009999824,None,391.7668619999895,None,right,0.7675795999821275,391.7668619999895,None,,,,,,,,,,,,,,,,,,,,,,,PPT25,001,2022-07-01_17h04.12.064,ABstudy,2022.1.4,59.93816778280159,
AB,Lag1_T1A_T2A,1,A,A,8,9,7,4,13,sword fish,Did you see the sword fish?,0.12,0.016,JPG\,pizza,strawberry,potato02b,speaker04,battery02b,iron01b,dice05a,cellphone,globe,banana01,medal02b,baseball01a,toaster01,blankImage,blankImage,blankImage,blankImage,ear,,,,,,,,,,,,0,35,35,295,,,,,,,,,,,,,,,,,,,,,,,,,,,,,,,,,,,392.5564696000074,393.5685487999872,393.55172550000134,394.166641799995,394.166641799995,None,395.70322319999104,None,right,1.1752968000073452,395.70322319999104,None,396.9055043999979,None,right,0.17301229998702183,396.9055043999979,None,,,,,,,,,,,,,,,,,,,,,,,PPT25,001,2022-07-01_17h04.12.064,ABstudy,2022.1.4,59.93816778280159,
AB,Lag5_T1A_T2P,5,A,P,5,10,4,3,13,flower,Did you see the flower?,0.12,0.016,JPG\,cucumber,ring01,lipstick02a,microscope,violin,garlic01a,celery,lighter01,cherry01,stapler03a,belt02a,key01,binoculars01b,blankImage,blankImage,blankImage,blankImage,christmastree,,,,,,,,,,,,0,36,36,284,,,,,,,,,,,,,,,,,,,,,,,,,,,,,,,,,,,397.10883799998555,398.1231060999853,398.089573699981,398.67208489999757,398.67208489999757,None,400.3631663999986,None,right,1.403336399991531,400.3631663999986,None,401.793273599993,None,right,0.12610269998549484,401.793273599993,None,,,,,,,,,,,,,,,,,,,,,,,PPT25,001,2022-07-01_17h04.12.064,ABstudy,2022.1.4,59.93816778280159,
AB,Lag1_T1A_T2P,1,A,P,8,9,7,4,13,nose,Did you see the nose?,0.12,0.016,JPG\,pizza,strawberry,potato02b,speaker04,battery02b,iron01b,dice05a,cellphone,stapler06,banana01,medal02b,baseball01a,toaster01,blankImage,blankImage,blankImage,blankImage,cow,,,,,,,,,,,,0,37,37,231,,,,,,,,,,,,,,,,,,,,,,,,,,,,,,,,,,,401.945664400002,402.9610646000074,402.927672299993,403.5381201999844,403.5381201999844,None,405.1021438000025,None,right,1.312238599988632,405.1021438000025,None,406.4313500999997,None,right,1.054817099997308,406.4313500999997,None,,,,,,,,,,,,,,,,,,,,,,,PPT25,001,2022-07-01_17h04.12.064,ABstudy,2022.1.4,59.93816778280159,
AB,Lag5_T1P_T2P,5,P,P,5,10,4,5,15,Eye,Did you see the Eye?,0.12,0.016,JPG\,apple07,toiletpaper01a,pizza,dandelion,eye,eraser,microscope,violin,orange,stapler01,balloon01b,sandal,lighter01,fan,book01b,blankImage,blankImage,eye,,,,,,,,,,,,0,38,38,171,,,,,,,,,,,,,,,,,,,,,,,,,,,,,,,,,,,407.51820229997975,408.533506799984,408.5000349000038,409.07835049999994,409.07835049999994,None,410.9743337999971,None,left,0.4398466999991797,410.9743337999971,None,411.43663439998636,None,left,0.12242450000485405,411.43663439998636,None,,,,,,,,,,,,,,,,,,,,,,,PPT25,001,2022-07-01_17h04.12.064,ABstudy,2022.1.4,59.93816778280159,
AB,Lag5_T1P_T2P,5,P,P,7,12,6,5,17,truck,Did you see the truck?,0.12,0.016,JPG\,binoculars01b,speaker04,sandal,envelope03a,plate01b,comb02a,boxtruck,chain01,measuringcup01,key01,medal02b,stapler05,tennisball01b,pizza,cigarette,sunglasses04,blankImage,boxtruck,,,,,,,,,,,,0,39,39,166,,,,,,,,,,,,,,,,,,,,,,,,,,,,,,,,,,,411.59035869999207,412.60428050000337,412.58744989999104,413.1644513999927,413.1644513999927,None,415.1453681999992,None,left,0.621857899997849,415.1453681999992,None,415.8046001000039,None,left,0.11350619999575429,415.8046001000039,None,,,,,,,,,,,,,,,,,,,,,,,PPT25,001,2022-07-01_17h04.12.064,ABstudy,2022.1.4,59.93816778280159,
AB,Lag1_T1A_T2P,1,A,P,6,7,5,5,12,Treadmill,Did you see the Treadmill?,0.12,0.016,JPG\,pencil01,broccoli01a,button01,sponge01,watermelon01,lipstick02a,stapler04b,fan,lighter01,sock01a,spoon01,blueberry01,blankImage,blankImage,blankImage,blankImage,blankImage,magneticcompass,,,,,,,,,,,,0,40,40,238,,,,,,,,,,,,,,,,,,,,,,,,,,,,,,,,,,,415.9497728999995,416.95832449998125,416.94159549998585,417.51144800000475,417.51144800000475,None,419.10787690000143,None,right,0.7949630999937654,419.10787690000143,None,419.92788279999513,None,left,0.15995329999714158,419.92788279999513,None,,,,,,,,,,,,,,,,,,,,,,,PPT25,001,2022-07-01_17h04.12.064,ABstudy,2022.1.4,59.93816778280159,
AB,Lag1_T1P_T2P,1,P,P,7,8,6,3,11,Moose,Did you see the Moose?,0.12,0.016,JPG\,sock01a,spoon01,alligator,comb02a,printer02,medal02b,moose,stapler03a,greenolive,computerkeyboard02,cauliflower01,blankImage,blankImage,blankImage,blankImage,blankImage,blankImage,moose,,,,,,,,,,,,0,41,41,67,,,,,,,,,,,,,,,,,,,,,,,,,,,,,,,,,,,420.11368909999146,421.12908539999626,421.0957938999927,421.68710139999166,421.68710139999166,None,423.0684903000074,None,left,0.913688300002832,423.0684903000074,None,423.99904049999896,None,right,0.1592874999914784,423.99904049999896,None,,,,,,,,,,,,,,,,,,,,,,,PPT25,001,2022-07-01_17h04.12.064,ABstudy,2022.1.4,59.93816778280159,
AB,Lag5_T1A_T2A,5,A,A,5,10,4,5,15,sword,Did you see the sword?,0.12,0.016,JPG\,pencil01,broccoli01a,button01,sponge01,watermelon01,lipstick02a,comb02a,fan,lighter01,sock01a,spoon01,blueberry01,belt02a,onion,grape01,blankImage,blankImage,parachute,,,,,,,,,,,,0,42,42,298,,,,,,,,,,,,,,,,,,,,,,,,,,,,,,,,,,,424.1863560999918,425.2001709000033,425.1833920000063,425.7445240999805,425.7445240999805,None,427.62537110000267,None,right,1.4143322000163607,427.62537110000267,None,429.0703610999917,None,left,0.16822519997367635,429.0703610999917,None,,,,,,,,,,,,,,,,,,,,,,,PPT25,001,2022-07-01_17h04.12.064,ABstudy,2022.1.4,59.93816778280159,
AB,Lag1_T1P_T2P,1,P,P,6,7,5,4,11,cash register,Did you see the cash register?,0.12,0.016,JPG\,leaf02a,apple07,cd,pineapple01a,envelope03a,cashregister01,stapler03b,8ball,rice,feather03a,lemon02,blankImage,blankImage,blankImage,blankImage,blankImage,blankImage,cashregister01,,,,,,,,,,,,0,43,43,79,,,,,,,,,,,,,,,,,,,,,,,,,,,,,,,,,,,429.27288269999553,430.28827709998586,430.2548962000001,430.83026970000356,430.83026970000356,None,432.17465979998815,None,left,0.9032952999987174,432.17465979998815,None,433.10768250000547,None,right,0.13838039999245666,433.10768250000547,None,,,,,,,,,,,,,,,,,,,,,,,PPT25,001,2022-07-01_17h04.12.064,ABstudy,2022.1.4,59.93816778280159,
AB,Lag5_T1P_T2P,5,P,P,6,11,5,5,16,table,Did you see the table?,0.12,0.016,JPG\,birthdaycandle,mushroom01,strawberry,match,cherry01,table01,hammer01,thermometer02b,sock01a,ring01,stapler06,banana01,toiletpaper01a,key01,sponge01,teabag,blankImage,table01,,,,,,,,,,,,0,44,44,144,,,,,,,,,,,,,,,,,,,,,,,,,,,,,,,,,,,433.2768992999918,434.29227079998236,434.25890650000656,434.75948579999385,434.75948579999385,None,436.8165825000033,None,left,0.43013570000766777,436.8165825000033,None,437.26150699998834,None,left,0.13672959999530576,437.26150699998834,None,,,,,,,,,,,,,,,,,,,,,,,PPT25,001,2022-07-01_17h04.12.064,ABstudy,2022.1.4,59.93816778280159,
AB,Lag5_T1P_T2P,5,P,P,6,11,5,3,14,ladder,Did you see the ladder?,0.12,0.016,JPG\,celery,orange,scissors01,balloon01b,avocado01,stepladder,mushroom01,sewingmachine01a,lighter01,dice05a,stapler01,fan,cd,sock01a,blankImage,blankImage,blankImage,stepladder,,,,,,,,,,,,0,45,45,119,,,,,,,,,,,,,,,,,,,,,,,,,,,,,,,,,,,437.4308577000047,438.4464405000035,438.41302439998253,438.9981654000003,438.9981654000003,None,440.74899140000343,None,left,0.5297143000061624,440.74899140000343,None,441.2991447999957,None,left,0.12357530000736006,441.2991447999957,None,,,,,,,,,,,,,,,,,,,,,,,PPT25,001,2022-07-01_17h04.12.064,ABstudy,2022.1.4,59.93816778280159,
AB,Lag1_T1P_T2P,1,P,P,6,7,5,5,12,snowman,Did you see the snowman?,0.12,0.016,JPG\,comb02a,watch02a,scissors01,dice05a,tableknife02,snowman,stapler03a,printer02,dandelion,spoon01,ashtray01,battery02b,blankImage,blankImage,blankImage,blankImage,blankImage,snowman,,,,,,,,,,,,0,46,46,4,,,,,,,,,,,,,,,,,,,,,,,,,,,,,,,,,,,441.45158599998103,442.4672947000072,442.43369760000496,443.0095839999849,443.0095839999849,None,444.4813940000022,None,left,0.7976683999877423,444.4813940000022,None,445.3035447000002,None,right,0.11848139998619445,445.3035447000002,None,,,,,,,,,,,,,,,,,,,,,,,PPT25,001,2022-07-01_17h04.12.064,ABstudy,2022.1.4,59.93816778280159,
AB,Lag1_T1A_T2P,1,A,P,5,6,4,4,10,Bull,Did you see the Bull?,0.12,0.016,JPG\,celery,pencil01,fan,foosballtable,iron01b,stapler01,potato02b,fork03c,button01,pineapple01a,blankImage,blankImage,blankImage,blankImage,blankImage,blankImage,blankImage,spiderweb,,,,,,,,,,,,0,47,47,244,,,,,,,,,,,,,,,,,,,,,,,,,,,,,,,,,,,445.46236139998655,446.471357500006,446.45446529999026,447.02191300000413,447.02191300000413,None,448.2529582999996,None,right,0.9773410999914631,448.2529582999996,None,449.25846819998696,None,right,0.7157299999962561,449.25846819998696,None,,,,,,,,,,,,,,,,,,,,,,,PPT25,001,2022-07-01_17h04.12.064,ABstudy,2022.1.4,59.93816778280159,
AB,Lag1_T1P_T2P,1,P,P,8,9,7,5,14,giraffe,Did you see the giraffe?,0.12,0.016,JPG\,pencil01,foosballtable,banana01,lipstick02a,toaster01,grape01,key01,giraffe,stapler03b,pineapple01a,strawberry,teabag,dandelion,paintbrush01,blankImage,blankImage,blankImage,giraffe,,,,,,,,,,,,0,48,48,0,,,,,,,,,,,,,,,,,,,,,,,,,,,,,,,,,,,449.9965802000079,451.00867499999003,450.99199310000404,451.56674270000076,451.56674270000076,None,453.2954883000057,None,left,0.4310737999912817,453.2954883000057,None,453.7453685000073,None,left,0.1330739000113681,453.7453685000073,None,,,,,,,,,,,,,,,,,,,,,,,PPT25,001,2022-07-01_17h04.12.064,ABstudy,2022.1.4,59.93816778280159,
AB,Lag1_T1P_T2A,1,P,A,8,9,7,5,14,Parrot,Did you see the Parrot?,0.12,0.016,JPG\,candy,brownsugar,dice05a,cd,sock01a,blueberry01,button01,parrot01,feather03a,grape01,dandelion,scissors01,watch02a,candle08b,blankImage,blankImage,blankImage,parrot01,,,,,,,,,,,,0,49,49,192,,,,,,,,,,,,,,,,,,,,,,,,,,,,,,,,,,,453.90142259999993,454.9129163000034,454.8961827000021,455.48664359998656,455.48664359998656,None,457.1921353999933,None,left,0.9181582000164781,457.1921353999933,None,458.13274410000304,None,right,0.15380719999666326,458.13274410000304,None,,,,,,,,,,,,,,,,,,,,,,,PPT25,001,2022-07-01_17h04.12.064,ABstudy,2022.1.4,59.93816778280159,
AB,Lag1_T1P_T2P,1,P,P,8,9,7,4,13,dart board,Did you see the dart board?,0.12,0.016,JPG\,rice,watermelon01,tableknife02,scarf,computerkeyboard02,cauliflower01,battery02b,dartboard,stapler01,sandal,sponge01,microscope,tomato01,blankImage,blankImage,blankImage,blankImage,dartboard,,,,,,,,,,,,0,50,50,80,,,,,,,,,,,,,,,,,,,,,,,,,,,,,,,,,,,458.3589806999953,459.36723289999645,459.3338783000072,459.9201042999921,459.9201042999921,None,461.5091374999902,None,left,0.8090378999768291,461.5091374999902,None,462.33719530000235,None,right,0.14994309999747202,462.33719530000235,None,,,,,,,,,,,,,,,,,,,,,,,PPT25,001,2022-07-01_17h04.12.064,ABstudy,2022.1.4,59.93816778280159,
AB,Lag1_T1P_T2P,1,P,P,8,9,7,3,12,snow globe,Did you see the Snow globe?,0.12,0.016,JPG\,eraser,measuringcup01,chain01,birthdaycandle,ring01,rice,8ball,stapler04b,stapler01,celery,microscope,sunglasses04,blankImage,blankImage,blankImage,blankImage,blankImage,snowglobe,,,,,,,,,,,,0,51,51,56,,,,,,,,,,,,,,,,,,,,,,,,,,,,,,,,,,,462.5090072999883,463.5216123999853,463.50488540000515,464.08038739999756,464.08038739999756,None,465.5112375000026,None,right,1.0072670000081416,465.5112375000026,None,466.5415299999877,None,left,0.16926570000941865,466.5415299999877,None,,,,,,,,,,,,,,,,,,,,,,,PPT25,001,2022-07-01_17h04.12.064,ABstudy,2022.1.4,59.93816778280159,
AB,Lag5_T1P_T2P,5,P,P,8,13,7,4,17,lamp,Did you see the lamp?,0.12,0.016,JPG\,globe,broccoli01a,binoculars01b,iron01b,avocado01,dandelion,pineapple01a,floorlamp,fan,pizza,celery,blueberry01,stapler01,dice05a,watermelon01,candy,blankImage,floorlamp,,,,,,,,,,,,0,52,52,99,,,,,,,,,,,,,,,,,,,,,,,,,,,,,,,,,,,466.8063934999809,467.8099975999794,467.7942403999914,468.43262390000746,468.43262390000746,None,470.23643719998654,None,left,1.5693495000014082,470.23643719998654,None,471.83074710000074,None,left,0.23981950001325458,471.83074710000074,None,,,,,,,,,,,,,,,,,,,,,,,PPT25,001,2022-07-01_17h04.12.064,ABstudy,2022.1.4,59.93816778280159,
AB,Lag5_T1A_T2P,5,A,P,8,13,7,5,18,fish,Did you see the fish?,0.12,0.016,JPG\,scissors01,grape01,mushroom01,toiletpaper01a,greenolive,pizza,cigarette,ashtray01,carrot01,pineapple01a,foosballtable,lipstick02a,stapler04b,tambourine02,potato02b,violin,blankImage,chimney,,,,,,,,,,,,0,53,53,283,,,,,,,,,,,,,,,,,,,,,,,,,,,,,,,,,,,472.10155279998435,473.11431189998984,473.0975661999837,473.675322199997,473.675322199997,None,475.6888430999825,None,right,0.7983529999910388,475.6888430999825,None,476.51788229998783,None,right,0.15337660000659525,476.51788229998783,None,,,,,,,,,,,,,,,,,,,,,,,PPT25,001,2022-07-01_17h04.12.064,ABstudy,2022.1.4,59.93816778280159,
AB,Lag5_T1P_T2A,5,P,A,7,12,6,3,15,helmet,Did you see the helmet?,0.12,0.016,JPG\,fork03c,belt02a,grape01,computerkeyboard02,lemon02,printer02,skihelmet01,toiletpaper01a,toaster01,lipstick02a,book01b,blueberry01,spoon01,apple07,avocado01,blankImage,blankImage,skihelmet01,,,,,,,,,,,,0,54,54,225,,,,,,,,,,,,,,,,,,,,,,,,,,,,,,,,,,,476.70498589999625,477.7189809999836,477.7021945999877,478.28435099998023,478.28435099998023,None,480.0985298999876,None,right,1.3313430999987759,480.0985298999876,None,481.4558143999893,None,left,0.25400899999658577,481.4558143999893,None,,,,,,,,,,,,,,,,,,,,,,,PPT25,001,2022-07-01_17h04.12.064,ABstudy,2022.1.4,59.93816778280159,
AB,Lag5_T1P_T2A,5,P,A,7,12,6,5,17,flower,Did you see the flower?,0.12,0.016,JPG\,cellphone,tomato01,comb02a,candy,celery,cucumber,craneflower,fan,feather03a,pen04b,lemon02,blueberry01,plate01b,cherry01,baseball01a,candle08b,blankImage,craneflower,,,,,,,,,,,,0,55,55,211,,,,,,,,,,,,,,,,,,,,,,,,,,,,,,,,,,,481.7417277999921,482.7572062999825,482.72386329999426,483.3005379999813,483.3005379999813,None,485.3267966999847,None,right,0.7196912999788765,485.3267966999847,None,486.07970589998877,None,right,0.13457049999851733,486.07970589998877,None,,,,,,,,,,,,,,,,,,,,,,,PPT25,001,2022-07-01_17h04.12.064,ABstudy,2022.1.4,59.93816778280159,
AB,Lag5_T1A_T2P,5,A,P,7,12,6,4,16,ear,Did you see the ear?,0.12,0.016,JPG\,candle01,shirt02,brick,orange,greenolive,toothbrush03b,pizza,thermometer02b,book01b,toiletpaper01a,sewingmachine01a,stapler01,candy,cymbal,potato02b,plate01b,blankImage,chair,,,,,,,,,,,,0,56,56,257,,,,,,,,,,,,,,,,,,,,,,,,,,,,,,,,,,,486.24591529997997,487.2455421999912,487.22995869998704,487.81048829999054,487.81048829999054,None,489.7474303999916,None,right,1.027888599986909,489.7474303999916,None,490.7988498999912,None,right,0.33492480000131764,490.7988498999912,None,,,,,,,,,,,,,,,,,,,,,,,PPT25,001,2022-07-01_17h04.12.064,ABstudy,2022.1.4,59.93816778280159,
AB,Lag1_T1P_T2P,1,P,P,6,7,5,5,12,owl,Did you see the owl?,0.12,0.016,JPG\,paintbrush01,eraser,medal02b,hammer01,speaker04,greathornowl,stapler01,comb02a,plate01b,clock01a,button01,globe,blankImage,blankImage,blankImage,blankImage,blankImage,greathornowl,,,,,,,,,,,,0,57,57,1,,,,,,,,,,,,,,,,,,,,,,,,,,,,,,,,,,,491.1683981999813,492.18345650000265,492.15015629999107,492.72891549998894,492.72891549998894,None,494.2464187000005,None,right,0.7433843000035267,494.2464187000005,None,495.01929850000306,None,left,0.33855250000488013,495.01929850000306,None,,,,,,,,,,,,,,,,,,,,,,,PPT25,001,2022-07-01_17h04.12.064,ABstudy,2022.1.4,59.93816778280159,
AB,Lag1_T1P_T2P,1,P,P,6,7,5,3,10,windmill,Did you see the windmill?,0.12,0.016,JPG\,pizza,printer02,medal02b,spoon01,grape01,windmill,stapler04b,watermelon01,celery,battery02b,blankImage,blankImage,blankImage,blankImage,blankImage,blankImage,blankImage,windmill,,,,,,,,,,,,0,58,58,75,,,,,,,,,,,,,,,,,,,,,,,,,,,,,,,,,,,495.3905713999993,496.40424420000636,496.387619599991,496.9912958999921,496.9912958999921,None,498.1736089999904,None,left,1.6720839000190608,498.1736089999904,None,499.8745837000024,None,right,0.6190686000045389,499.8745837000024,None,,,,,,,,,,,,,,,,,,,,,,,PPT25,001,2022-07-01_17h04.12.064,ABstudy,2022.1.4,59.93816778280159,
AB,Lag1_T1A_T2A,1,A,A,5,6,4,4,10,rose,Did you see the rose?,0.12,0.016,JPG\,sock01a,spoon01,alligator,comb02a,printer02,medal02b,lamp04a,cymbal,greenolive,computerkeyboard02,blankImage,blankImage,blankImage,blankImage,blankImage,blankImage,blankImage,cruiseship,,,,,,,,,,,,0,59,59,293,,,,,,,,,,,,,,,,,,,,,,,,,,,,,,,,,,,500.5275854000065,501.54265839999425,501.5093130999885,502.0959601000068,502.0959601000068,None,503.3434228999831,None,right,1.3746320999925956,503.3434228999831,None,504.7456556999823,None,left,0.23638219997519627,504.7456556999823,None,,,,,,,,,,,,,,,,,,,,,,,PPT25,001,2022-07-01_17h04.12.064,ABstudy,2022.1.4,59.93816778280159,
AB,Lag1_T1P_T2P,1,P,P,7,8,6,3,11,trampoline,Did you see the trampoline?,0.12,0.016,JPG\,dice05a,watch02a,pig,lighter01,button01,strawberry,trampoline,stapler03a,plate01b,pen04b,feather03a,blankImage,blankImage,blankImage,blankImage,blankImage,blankImage,trampoline,,,,,,,,,,,,0,60,60,73,,,,,,,,,,,,,,,,,,,,,,,,,,,,,,,,,,,505.01521499999217,506.03027240000665,505.9969427000033,506.57478550000815,506.57478550000815,None,507.91876649999176,None,left,1.039421499997843,507.91876649999176,None,508.9835843000037,None,left,0.13461849998566322,508.9835843000037,None,,,,,,,,,,,,,,,,,,,,,,,PPT25,001,2022-07-01_17h04.12.064,ABstudy,2022.1.4,59.93816778280159,
AB,Lag5_T1P_T2P,5,P,P,6,11,5,4,15,sword,Did you see the sword?,0.12,0.016,JPG\,8ball,banana01,scissors01,pig,shirt02,broadsword,pear01,sponge01,fork03c,tableknife02,stapler06,match,toothbrush03b,birthdaycandle,candle01,blankImage,blankImage,broadsword,,,,,,,,,,,,0,61,61,167,,,,,,,,,,,,,,,,,,,,,,,,,,,,,,,,,,,509.15407839999534,510.1678652999981,510.1511546999973,510.7377734000038,510.7377734000038,None,512.5518336999812,None,left,0.918745700008003,512.5518336999812,None,513.4877190999978,None,left,0.885923299996648,513.4877190999978,None,,,,,,,,,,,,,,,,,,,,,,,PPT25,001,2022-07-01_17h04.12.064,ABstudy,2022.1.4,59.93816778280159,
AB,Lag1_T1P_T2A,1,P,A,7,8,6,4,12,Steering wheel,Did you see the Steering wheel?,0.12,0.016,JPG\,alligator,banana01,apple07,tomato01,button01,spoon01,steeringwheel,fork03c,canoftennisballs,potato02b,grape01,leaf02a,blankImage,blankImage,blankImage,blankImage,blankImage,steeringwheel,,,,,,,,,,,,0,62,62,198,,,,,,,,,,,,,,,,,,,,,,,,,,,,,,,,,,,514.4077640000032,515.4228935999854,515.3895435000013,515.8901032999856,515.8901032999856,None,517.4224685999798,None,left,1.6793642999837175,517.4224685999798,None,519.1278648999869,None,right,0.6225313000031747,519.1278648999869,None,,,,,,,,,,,,,,,,,,,,,,,PPT25,001,2022-07-01_17h04.12.064,ABstudy,2022.1.4,59.93816778280159,
AB,Lag1_T1P_T2A,1,P,A,6,7,5,5,12,Barn,Did you see the Barn?,0.12,0.016,JPG\,celery,pencil01,fan,foosballtable,iron01b,barn,potato02b,fork03c,button01,pineapple01a,baseball01a,printer02,blankImage,blankImage,blankImage,blankImage,blankImage,barn,,,,,,,,,,,,0,63,63,181,,,,,,,,,,,,,,,,,,,,,,,,,,,,,,,,,,,519.7846495999838,520.795489799988,520.7787179999868,521.3754982999817,521.3754982999817,None,522.8366579999856,None,left,1.2172928999934811,522.8366579999856,None,524.0819991999888,None,right,0.644277699990198,524.0819991999888,None,,,,,,,,,,,,,,,,,,,,,,,PPT25,001,2022-07-01_17h04.12.064,ABstudy,2022.1.4,59.93816778280159,
AB,Lag5_T1P_T2P,5,P,P,5,10,4,5,15,hockey puck,Did you see the hockey puck?,0.12,0.016,JPG\,chain01,pen04b,birthdaycandle,watermelon01,hockeypuck,scissors01,measuringcup01,candle01,hammer01,stapler06,ashtray01,feather03a,sewingmachine01a,thermometer02b,alligator,blankImage,blankImage,hockeypuck,,,,,,,,,,,,0,64,64,110,,,,,,,,,,,,,,,,,,,,,,,,,,,,,,,,,,,524.7555729000014,525.7669013999985,525.7500577000028,526.3221297999844,526.3221297999844,None,528.1213824999868,None,right,1.516418800019892,528.1213824999868,None,529.6705530000036,None,right,0.678956499992637,529.6705530000036,None,,,,,,,,,,,,,,,,,,,,,,,PPT25,001,2022-07-01_17h04.12.064,ABstudy,2022.1.4,59.93816778280159,
AB,Lag1_T1P_T2P,1,P,P,5,6,4,3,9,dolphin,Did you see the dolphin?,0.12,0.016,JPG\,pig,belt02a,rice,screwdriver04b,dolphin01,stapler05,candle08b,pear01,feather03a,blankImage,blankImage,blankImage,blankImage,blankImage,blankImage,blankImage,blankImage,dolphin01,,,,,,,,,,,,0,65,65,10,,,,,,,,,,,,,,,,,,,,,,,,,,,,,,,,,,,530.3747709000017,531.3888995999878,531.3555356999859,531.8561463000078,531.8561463000078,None,533.0900009000034,None,left,0.8996736999833956,533.0900009000034,None,534.0081824999943,None,right,0.3506057999911718,534.0081824999943,None,,,,,,,,,,,,,,,,,,,,,,,PPT25,001,2022-07-01_17h04.12.064,ABstudy,2022.1.4,59.93816778280159,
AB,Lag5_T1P_T2P,5,P,P,8,13,7,3,16,church,Did you see the church?,0.12,0.016,JPG\,clock01a,cellphone,toaster01,toothbrush03b,cauliflower01,microscope,comb02a,church,scarf,clock04,sponge01,iron01b,stapler06,celery,ring01,ashtray01,blankImage,church,,,,,,,,,,,,0,66,66,129,,,,,,,,,,,,,,,,,,,,,,,,,,,,,,,,,,,534.3775164999824,535.3929478999926,535.359541199985,535.974811299995,535.974811299995,None,537.9087406999897,None,left,0.536887399997795,537.9087406999897,None,538.463114299986,None,left,0.13445800001500174,538.463114299986,None,,,,,,,,,,,,,,,,,,,,,,,PPT25,001,2022-07-01_17h04.12.064,ABstudy,2022.1.4,59.93816778280159,
AB,Lag5_T1A_T2P,5,A,P,5,10,4,4,14,duck,Did you see the duck?,0.12,0.016,JPG\,brick,eraser,cucumber,ashtray01,thermometer02b,binoculars01b,lipstick02a,screwdriver04b,grape01,stapler04b,battery02b,iron01b,dice05a,avocado01,blankImage,blankImage,blankImage,barrel01,,,,,,,,,,,,0,67,67,280,,,,,,,,,,,,,,,,,,,,,,,,,,,,,,,,,,,538.6324927999813,539.6311356000078,539.615853700001,540.3168868999928,540.2414805000008,None,541.9363807000045,None,right,0.8453673000039998,541.9363807000045,None,542.8006577999913,None,right,0.19763989999773912,542.8006577999913,None,,,,,,,,,,,,,,,,,,,,,,,PPT25,001,2022-07-01_17h04.12.064,ABstudy,2022.1.4,59.93816778280159,
AB,Lag1_T1P_T2A,1,P,A,7,8,6,5,13,Well,Did you see the Well?,0.12,0.016,JPG\,leaf02a,apple07,cd,pineapple01a,envelope03a,paintbrush01,well,acorn,rice,feather03a,lemon02,balloon01b,avocado01,blankImage,blankImage,blankImage,blankImage,well,,,,,,,,,,,,0,68,68,178,,,,,,,,,,,,,,,,,,,,,,,,,,,,,,,,,,,543.0204889999877,544.0349461000005,544.0015486000048,544.5843583999958,544.5843583999958,None,546.271394499985,None,left,0.7349725999811199,546.271394499985,None,547.037797099998,None,right,0.2008129000023473,547.037797099998,None,,,,,,,,,,,,,,,,,,,,,,,PPT25,001,2022-07-01_17h04.12.064,ABstudy,2022.1.4,59.93816778280159,
AB,Lag1_T1P_T2P,1,P,P,7,8,6,4,12,rooster,Did you see the rooster?,0.12,0.016,JPG\,pizza,strawberry,potato02b,speaker04,battery02b,iron01b,rooster,stapler03b,globe,banana01,medal02b,baseball01a,blankImage,blankImage,blankImage,blankImage,blankImage,rooster,,,,,,,,,,,,0,69,69,69,,,,,,,,,,,,,,,,,,,,,,,,,,,,,,,,,,,547.2736694999912,548.2893400999892,548.2559752999805,548.851657399995,548.851657399995,None,550.3562307999819,None,left,0.5619226999988314,550.3562307999819,None,550.942083300004,None,left,0.1279074999911245,550.942083300004,None,,,,,,,,,,,,,,,,,,,,,,,PPT25,001,2022-07-01_17h04.12.064,ABstudy,2022.1.4,59.93816778280159,
AB,Lag5_T1A_T2P,5,A,P,7,12,6,4,16,hand,Did you see the hand?,0.12,0.016,JPG\,celery,tennisball01b,calculator01,pear01,screw02,orange,button01,cellphone,onion,apple07,iron01b,stapler05,banana01,paintbrush01,dandelion,toothbrush03b,blankImage,bull,,,,,,,,,,,,0,70,70,281,,,,,,,,,,,,,,,,,,,,,,,,,,,,,,,,,,,551.0974208999833,552.1097461000027,552.092997300002,552.7332179000077,552.6590653999883,None,554.5742030999972,None,right,0.9513390000211075,554.5742030999972,None,555.5463425999915,None,left,0.23610690000350587,555.5463425999915,None,,,,,,,,,,,,,,,,,,,,,,,PPT25,001,2022-07-01_17h04.12.064,ABstudy,2022.1.4,59.93816778280159,
AB,Lag5_T1P_T2A,5,P,A,5,10,4,5,15,Shield,Did you see the Shield?,0.12,0.016,JPG\,cigarette,fork03c,greenolive,broccoli01a,shield02,tennisball01b,balloon01b,leaf02a,pig,fan,clock01a,strawberry,envelope03a,birthdaycandle,teabag,blankImage,blankImage,shield02,,,,,,,,,,,,0,71,71,223,,,,,,,,,,,,,,,,,,,,,,,,,,,,,,,,,,,555.8154521999822,556.8308189999952,556.7974845999852,557.368273,557.368273,None,559.2281543999852,None,left,0.9701832999999169,559.2281543999852,None,560.2179170000018,None,right,0.19556069999816827,560.2179170000018,None,,,,,,,,,,,,,,,,,,,,,,,PPT25,001,2022-07-01_17h04.12.064,ABstudy,2022.1.4,59.93816778280159,
AB,Lag1_T1P_T2P,1,P,P,6,7,5,3,10,fortune cookie,Did you see the fortune cookie?,0.12,0.016,JPG\,scissors01,grape01,mushroom01,toiletpaper01a,greenolive,fortunecookie,stapler03b,ashtray01,carrot01,pineapple01a,blankImage,blankImage,blankImage,blankImage,blankImage,blankImage,blankImage,fortunecookie,,,,,,,,,,,,0,72,72,42,,,,,,,,,,,,,,,,,,,,,,,,,,,,,,,,,,,560.4371233999846,561.4360912999837,561.4205596999964,562.0179252999951,562.0179252999951,None,563.2346696000022,None,left,0.9872300999995787,563.2346696000022,None,564.2389040999988,None,left,0.1430951000074856,564.2389040999988,None,,,,,,,,,,,,,,,,,,,,,,,PPT25,001,2022-07-01_17h04.12.064,ABstudy,2022.1.4,59.93816778280159,
AB,Lag5_T1P_T2P,5,P,P,6,11,5,5,16,scooter,Did you see the scooter?,0.12,0.016,JPG\,thermometer02b,candle08b,comb02a,toothbrush03b,brick,scooter,key01,pineapple01a,candy,birthdaycandle,stapler04b,canoftennisballs,teabag,medal02b,balloon01b,banana01,blankImage,scooter,,,,,,,,,,,,0,73,73,118,,,,,,,,,,,,,,,,,,,,,,,,,,,,,,,,,,,564.4095057999948,565.4230360999936,565.4063640999957,565.9726594999956,565.9726594999956,None,567.9159898000071,None,left,0.6337917000055313,567.9159898000071,None,568.5770339999872,None,left,0.14071129998774268,568.5770339999872,None,,,,,,,,,,,,,,,,,,,,,,,PPT25,001,2022-07-01_17h04.12.064,ABstudy,2022.1.4,59.93816778280159,
AB,Lag1_T1A_T2P,1,A,P,8,9,7,5,14,calendar,Did you see the calendar?,0.12,0.016,JPG\,foosballtable,candy,envelope03a,microscope,pencil01,leaf02a,scissors01,watermelon01,stapler04b,dandelion,pineapple01a,hammer01,celery,thermometer02b,blankImage,blankImage,blankImage,trampoline,,,,,,,,,,,,0,74,74,245,,,,,,,,,,,,,,,,,,,,,,,,,,,,,,,,,,,568.7486527999863,569.7602077999909,569.7435635000002,570.2441428999882,570.2441428999882,None,572.0315325999982,None,right,0.9757521999999881,572.0315325999982,None,573.030706199992,None,left,0.8149826000153553,573.030706199992,None,,,,,,,,,,,,,,,,,,,,,,,PPT25,001,2022-07-01_17h04.12.064,ABstudy,2022.1.4,59.93816778280159,
AB,Lag5_T1P_T2P,5,P,P,8,13,7,5,18,pipe,Did you see the pipe?,0.12,0.016,JPG\,scissors01,ashtray01,garlic01a,medal02b,cigarette,candle08b,leaf02a,smokingpipe,cucumber,rice,toiletpaper01a,greenolive,stapler01,cellphone,tableknife02,spoon01,blankImage,smokingpipe,,,,,,,,,,,,0,75,75,138,,,,,,,,,,,,,,,,,,,,,,,,,,,,,,,,,,,573.8703152999806,574.8824364999891,574.8656566999853,575.4513313999923,575.4513313999923,None,577.4029837999842,None,left,1.0186877999803983,577.4029837999842,None,578.4524735999876,None,left,0.12903290000394918,578.4524735999876,None,,,,,,,,,,,,,,,,,,,,,,,PPT25,001,2022-07-01_17h04.12.064,ABstudy,2022.1.4,59.93816778280159,
AB,Lag1_T1P_T2A,1,P,A,7,8,6,3,11,fish,Did you see the fish?,0.12,0.016,JPG\,rice,watermelon01,tableknife02,scarf,computerkeyboard02,cauliflower01,salmon,binoculars01b,book01b,sandal,sponge01,blankImage,blankImage,blankImage,blankImage,blankImage,blankImage,salmon,,,,,,,,,,,,0,76,76,179,,,,,,,,,,,,,,,,,,,,,,,,,,,,,,,,,,,578.6048200000077,579.6202928999846,579.5869178999856,580.1620522000012,580.1620522000012,None,581.5384305999905,None,left,1.4832278000249062,581.5384305999905,None,583.0407655999879,None,right,1.2128641000017524,583.0407655999879,None,,,,,,,,,,,,,,,,,,,,,,,PPT25,001,2022-07-01_17h04.12.064,ABstudy,2022.1.4,59.93816778280159,
AB,Lag5_T1A_T2P,5,A,P,5,10,4,4,14,Chefs hat,Did you see the Chefs hat?,0.12,0.016,JPG\,candle01,fork03c,plate01b,violin,computerkeyboard02,candy,calculator01,paintbrush01,cherry01,stapler06,teabag,banana01,cd,lighter01,blankImage,blankImage,blankImage,horseshoe,,,,,,,,,,,,0,77,77,278,,,,,,,,,,,,,,,,,,,,,,,,,,,,,,,,,,,584.2845652999822,585.2926765999873,585.2760578999878,585.8609794999938,585.8609794999938,None,587.5977213000006,None,right,22.185441999987233,587.5977213000006,None,609.8010002999799,None,right,0.22905549997813068,609.8010002999799,None,,,,,,,,,,,,,,,,,,,,,,,PPT25,001,2022-07-01_17h04.12.064,ABstudy,2022.1.4,59.93816778280159,
AB,Lag1_T1A_T2P,1,A,P,8,9,7,5,14,Wolf,Did you see the Wolf?,0.12,0.016,JPG\,carrot01,watch02a,clock04,microscope,toiletpaper01a,potato02b,alligator,ring01,stapler03b,watermelon01,cd,pencil01,measuringcup01,balloon01b,blankImage,blankImage,blankImage,dreamcatcher,,,,,,,,,,,,0,78,78,253,,,,,,,,,,,,,,,,,,,,,,,,,,,,,,,,,,,610.0545065999904,611.0683339999814,611.0349956999999,611.6163386999979,611.6163386999979,None,613.355808399996,None,right,1.163142200006405,613.355808399996,None,614.538344200002,None,right,0.7954924000077881,614.538344200002,None,,,,,,,,,,,,,,,,,,,,,,,PPT25,001,2022-07-01_17h04.12.064,ABstudy,2022.1.4,59.93816778280159,
AB,Lag5_T1A_T2P,5,A,P,5,10,4,5,15,Sushi,Did you see the Sushi?,0.12,0.016,JPG\,pineapple01a,leaf02a,grape01,toiletpaper01a,match,tennisball01b,spoon01,chain01,pig,stapler04b,ring01,lemon02,dice05a,pizza,potato02b,blankImage,blankImage,crown,,,,,,,,,,,,0,79,79,285,,,,,,,,,,,,,,,,,,,,,,,,,,,,,,,,,,,615.3590630999824,616.3734931999934,616.3402014999883,616.9204200999811,616.9204200999811,None,618.8132076000038,None,right,0.8324569999822415,618.8132076000038,None,619.6771776999813,None,left,0.24049479997484013,619.6771776999813,None,,,,,,,,,,,,,,,,,,,,,,,PPT25,001,2022-07-01_17h04.12.064,ABstudy,2022.1.4,59.93816778280159,
AB,Lag5_T1P_T2P,5,P,P,6,11,5,3,14,fish,Did you see the fish?,0.12,0.016,JPG\,broom01,globe,cellphone,tableknife02,cauliflower01,holdfast,ring01,alligator,rice,toaster01,stapler03b,grape01,microscope,cucumber,blankImage,blankImage,blankImage,holdfast,,,,,,,,,,,,0,80,80,133,,,,,,,,,,,,,,,,,,,,,,,,,,,,,,,,,,,619.9475571000075,620.9616303000075,620.9449390999798,621.5874199999962,621.5184065999929,None,623.256043100002,None,left,0.949483100004727,623.256043100002,None,624.2313307999866,None,left,0.1670841000159271,624.2313307999866,None,,,,,,,,,,,,,,,,,,,,,,,PPT25,001,2022-07-01_17h04.12.064,ABstudy,2022.1.4,59.93816778280159,
AB,Lag5_T1P_T2A,5,P,A,8,13,7,4,17,knife,Did you see the knife?,0.12,0.016,JPG\,lighter01,hammer01,spoon01,chain01,cymbal,sponge01,lipstick02a,knife03,pig,watermelon01,cauliflower01,lemon02,broccoli01a,tableknife02,tennisball01b,toothbrush03b,blankImage,knife03,,,,,,,,,,,,0,81,81,214,,,,,,,,,,,,,,,,,,,,,,,,,,,,,,,,,,,624.4171057000058,625.4324851999991,625.3991577999841,625.9737968999834,625.9737968999834,None,627.9147475000063,None,left,1.7067962999863084,627.9147475000063,None,629.653632600006,None,left,1.415949999995064,629.653632600006,None,,,,,,,,,,,,,,,,,,,,,,,PPT25,001,2022-07-01_17h04.12.064,ABstudy,2022.1.4,59.93816778280159,
AB,Lag5_T1A_T2P,5,A,P,6,11,5,3,14,saxophone,Did you see the saxophone?,0.12,0.016,JPG\,globe,belt02a,sponge01,violin,fork03c,tomato01,clock01a,microscope,balloon01b,scarf,stapler03b,pen04b,brick,brownsugar,blankImage,blankImage,blankImage,microphone01,,,,,,,,,,,,0,82,82,267,,,,,,,,,,,,,,,,,,,,,,,,,,,,,,,,,,,631.095227599988,632.1057484000048,632.0894693000009,632.6684276000015,632.6684276000015,None,634.2771126999869,None,right,0.9207751000067219,634.2771126999869,None,635.2259898000048,None,left,0.16378309999709018,635.2259898000048,None,,,,,,,,,,,,,,,,,,,,,,,PPT25,001,2022-07-01_17h04.12.064,ABstudy,2022.1.4,59.93816778280159,
AB,Lag5_T1P_T2P,5,P,P,5,10,4,3,13,bathtub,Did you see the bathtub?,0.12,0.016,JPG\,belt02a,sunglasses04,computerkeyboard02,cherry01,bathtub,eraser,watch02a,dice05a,blueberry01,stapler04b,match,leaf02a,iron01b,blankImage,blankImage,blankImage,blankImage,bathtub,,,,,,,,,,,,0,83,83,103,,,,,,,,,,,,,,,,,,,,,,,,,,,,,,,,,,,635.4128819000034,636.4270130999794,636.4102172999992,637.0403415999899,636.9677132999932,None,638.5678212000057,None,left,0.9260568000026979,638.5678212000057,None,639.5136026999971,None,left,0.18842280001263134,639.5136026999971,None,,,,,,,,,,,,,,,,,,,,,,,PPT25,001,2022-07-01_17h04.12.064,ABstudy,2022.1.4,59.93816778280159,
AB,Lag5_T1P_T2P,5,P,P,6,11,5,4,15,boxing glove,Did you see the boxing glove?,0.12,0.016,JPG\,button01,celery,birthdaycandle,apple07,avocado01,boxingglove01,dice05a,teabag,clock01a,feather03a,stapler06,scarf,orange,battery02b,thermometer02b,blankImage,blankImage,boxingglove01,,,,,,,,,,,,0,84,84,165,,,,,,,,,,,,,,,,,,,,,,,,,,,,,,,,,,,639.737898899999,640.7481230999983,640.7313959999883,641.3029820999946,641.3029820999946,None,643.1885251000058,None,left,0.3773681999882683,643.1885251000058,None,643.5851285999815,None,left,0.1486436999985017,643.5851285999815,None,,,,,,,,,,,,,,,,,,,,,,,PPT25,001,2022-07-01_17h04.12.064,ABstudy,2022.1.4,59.93816778280159,
AB,Lag1_T1A_T2P,1,A,P,7,8,6,3,11,Fox,Did you see the Fox?,0.12,0.016,JPG\,toaster01,chain01,sponge01,baseball01a,carrot01,belt02a,book01b,stapler03b,grape01,brick,celery,blankImage,blankImage,blankImage,blankImage,blankImage,blankImage,fingerprint,,,,,,,,,,,,0,85,85,234,,,,,,,,,,,,,,,,,,,,,,,,,,,,,,,,,,,643.814285600005,644.8185997999972,644.8019815000007,645.3941114000045,645.3941114000045,None,646.7063087999995,None,right,0.8596360000083223,646.7063087999995,None,647.5879162999918,None,right,0.17010930000105873,647.5879162999918,None,,,,,,,,,,,,,,,,,,,,,,,PPT25,001,2022-07-01_17h04.12.064,ABstudy,2022.1.4,59.93816778280159,
AB,Lag1_T1P_T2P,1,P,P,5,6,4,5,11,owl,Did you see the owl?,0.12,0.016,JPG\,cellphone,tomato01,comb02a,candy,barnowl,stapler03a,toaster01,fan,feather03a,pen04b,lemon02,blankImage,blankImage,blankImage,blankImage,blankImage,blankImage,barnowl,,,,,,,,,,,,0,86,86,33,,,,,,,,,,,,,,,,,,,,,,,,,,,,,,,,,,,647.7903592000075,648.8057998000004,648.7724395999976,649.3504420999961,649.3504420999961,None,650.7483322999906,None,left,0.8414933999883942,650.7483322999906,None,651.609884000005,None,right,0.3489375000062864,651.609884000005,None,,,,,,,,,,,,,,,,,,,,,,,PPT25,001,2022-07-01_17h04.12.064,ABstudy,2022.1.4,59.93816778280159,
AB,Lag1_T1P_T2P,1,P,P,8,9,7,3,12,Eiffel tower,Did you see the Eiffel tower?,0.12,0.016,JPG\,celery,tennisball01b,calculator01,pear01,screw02,orange,button01,eiffeltower,stapler03b,apple07,iron01b,brownsugar,blankImage,blankImage,blankImage,blankImage,blankImage,eiffeltower,,,,,,,,,,,,0,87,87,40,,,,,,,,,,,,,,,,,,,,,,,,,,,,,,,,,,,651.9844878999866,652.9935083999881,652.9770567999803,653.569078200002,653.569078200002,None,654.9297566000023,None,left,0.8122935999708716,654.9297566000023,None,655.7631630999967,None,left,0.154793099995004,655.7631630999967,None,,,,,,,,,,,,,,,,,,,,,,,PPT25,001,2022-07-01_17h04.12.064,ABstudy,2022.1.4,59.93816778280159,
AB,Lag5_T1A_T2P,5,A,P,7,12,6,4,16,scooter,Did you see the scooter?,0.12,0.016,JPG\,cigarette,pig,banana01,strawberry,clock01a,plate01b,spoon01,blueberry01,battery02b,pineapple01a,chain01,stapler05,candy,pen04b,teabag,birthdaycandle,blankImage,1nose,,,,,,,,,,,,0,88,88,268,,,,,,,,,,,,,,,,,,,,,,,,,,,,,,,,,,,655.9504162999801,656.9640298000013,656.947327700007,657.5342299999902,657.5342299999902,None,659.3836851999804,None,right,2.487183699995512,659.3836851999804,None,661.9024702000024,None,left,0.21568370002205484,661.9024702000024,None,,,,,,,,,,,,,,,,,,,,,,,PPT25,001,2022-07-01_17h04.12.064,ABstudy,2022.1.4,59.93816778280159,
AB,Lag1_T1P_T2P,1,P,P,7,8,6,3,11,tree,Did you see the tree?,0.12,0.016,JPG\,pear01,clock01a,cymbal,match,ashtray01,globe,tree,stapler03b,lemon02,pen04b,dice05a,blankImage,blankImage,blankImage,blankImage,blankImage,blankImage,tree,,,,,,,,,,,,0,89,89,51,,,,,,,,,,,,,,,,,,,,,,,,,,,,,,,,,,,662.1835773999919,663.1869336999953,663.1701690999907,663.7562514999881,663.7562514999881,None,665.0739099000057,None,left,0.9639341000001878,665.0739099000057,None,666.0572575999831,None,left,0.18844149998039939,666.0572575999831,None,,,,,,,,,,,,,,,,,,,,,,,PPT25,001,2022-07-01_17h04.12.064,ABstudy,2022.1.4,59.93816778280159,
AB,Lag5_T1P_T2A,5,P,A,6,11,5,3,14,toy truck,Did you see the toy truck?,0.12,0.016,JPG\,globe,belt02a,sponge01,violin,fork03c,bluecheese,clock01a,microscope,balloon01b,scarf,teabag,pen04b,brick,brownsugar,blankImage,blankImage,blankImage,bluecheese,,,,,,,,,,,,0,90,90,204,,,,,,,,,,,,,,,,,,,,,,,,,,,,,,,,,,,666.2793376999907,667.2914941000054,667.2757122000039,667.8991122999869,667.8991122999869,None,669.4967673000065,None,right,0.8526383999851532,669.4967673000065,None,670.3776339000033,None,right,0.3080449999833945,670.3776339000033,None,,,,,,,,,,,,,,,,,,,,,,,PPT25,001,2022-07-01_17h04.12.064,ABstudy,2022.1.4,59.93816778280159,
AB,Lag5_T1P_T2P,5,P,P,6,11,5,5,16,microwave,Did you see the microwave?,0.12,0.016,JPG\,pen04b,speaker04,lighter01,cherry01,weight04a,microwave,sock01a,toothbrush03b,broom01,sewingmachine01a,stapler06,iron01b,clock01a,sandal,cd,blueberry01,blankImage,microwave,,,,,,,,,,,,0,91,91,136,,,,,,,,,,,,,,,,,,,,,,,,,,,,,,,,,,,670.7167429999972,671.7287891999877,671.7120976999868,672.2968361999956,672.2968361999956,None,674.2226853999891,None,left,1.6630189999996219,674.2226853999891,None,675.9188215000031,None,left,0.12710289997630753,675.9188215000031,None,,,,,,,,,,,,,,,,,,,,,,,PPT25,001,2022-07-01_17h04.12.064,ABstudy,2022.1.4,59.93816778280159,
AB,Lag5_T1A_T2P,5,A,P,8,13,7,4,17,wrench,Did you see the wrench?,0.12,0.016,JPG\,clock01a,grape01,plate01b,key01,screwdriver04b,feather03a,pineapple01a,iron01b,toothbrush03b,comb02a,broom01,toaster01,stapler05,garlic01a,match,ashtray01,blankImage,seal,,,,,,,,,,,,0,92,92,272,,,,,,,,,,,,,,,,,,,,,,,,,,,,,,,,,,,676.075938199996,677.0837516000029,677.0670211999968,677.6475640999852,677.6475640999852,None,679.5580807999941,None,right,1.2150410000176635,679.5580807999941,None,680.804604200006,None,left,0.12863789999391884,680.804604200006,None,,,,,,,,,,,,,,,,,,,,,,,PPT25,001,2022-07-01_17h04.12.064,ABstudy,2022.1.4,59.93816778280159,
AB,Lag1_T1A_T2P,1,A,P,8,9,7,3,12,elbow,Did you see the elbow?,0.12,0.016,JPG\,watermelon01,cigarette,faucet,cymbal,cauliflower01,feather03a,cherry01,broom01,stapler01,key01,baseball01a,iron01b,blankImage,blankImage,blankImage,blankImage,blankImage,cashregister01,,,,,,,,,,,,0,93,93,251,,,,,,,,,,,,,,,,,,,,,,,,,,,,,,,,,,,680.9581279999984,681.9724983999913,681.9557426999963,682.606924199994,682.5229061999999,None,683.9941879999824,None,right,5.2669305999879725,683.9941879999824,None,689.2795214999933,None,left,0.2217485000146553,689.2795214999933,None,,,,,,,,,,,,,,,,,,,,,,,PPT25,001,2022-07-01_17h04.12.064,ABstudy,2022.1.4,59.93816778280159,
AB,Lag1_T1P_T2P,1,P,P,8,9,7,3,12,bridge,Did you see the bridge?,0.12,0.016,JPG\,speaker04,sewingmachine01a,eraser,violin,globe,belt02a,sunglasses04,bridge,stapler01,greenolive,alligator,pear01,blankImage,blankImage,blankImage,blankImage,blankImage,bridge,,,,,,,,,,,,0,94,94,78,,,,,,,,,,,,,,,,,,,,,,,,,,,,,,,,,,,689.5296775999886,690.5311368999828,690.5141797999968,691.0867015999975,691.0867015999975,None,692.6337573000055,None,left,1.0514477999822702,692.6337573000055,None,693.7169795999944,None,right,0.7294018999964464,693.7169795999944,None,,,,,,,,,,,,,,,,,,,,,,,PPT25,001,2022-07-01_17h04.12.064,ABstudy,2022.1.4,59.93816778280159,
AB,Lag1_T1P_T2P,1,P,P,5,6,4,3,9,Escalator,Did you see the Escalator?,0.12,0.016,JPG\,celery,pencil01,fan,foosballtable,escalator,stapler05,potato02b,fork03c,button01,blankImage,blankImage,blankImage,blankImage,blankImage,blankImage,blankImage,blankImage,escalator,,,,,,,,,,,,0,95,95,82,,,,,,,,,,,,,,,,,,,,,,,,,,,,,,,,,,,694.4699596999853,695.4856144999794,695.4522533999989,696.0673351000005,696.0673351000005,None,697.1904863999807,None,left,0.727020199992694,697.1904863999807,None,697.9379864000075,None,left,0.1555033999902662,697.9379864000075,None,,,,,,,,,,,,,,,,,,,,,,,PPT25,001,2022-07-01_17h04.12.064,ABstudy,2022.1.4,59.93816778280159,
AB,Lag5_T1P_T2P,5,P,P,5,10,4,3,13,Rabbit,Did you see the Rabbit?,0.12,0.016,JPG\,celery,tennisball01b,calculator01,pear01,jackrabbit,orange,button01,cellphone,onion,stapler06,iron01b,brownsugar,banana01,blankImage,blankImage,blankImage,blankImage,jackrabbit,,,,,,,,,,,,0,96,96,90,,,,,,,,,,,,,,,,,,,,,,,,,,,,,,,,,,,698.1267717999872,699.1392074000032,699.1225218999898,699.7074973999988,699.7074973999988,None,701.2801044999796,None,left,0.6848797000129707,701.2801044999796,None,701.9924107999832,None,left,0.13355759999831207,701.9924107999832,None,,,,,,,,,,,,,,,,,,,,,,,PPT25,001,2022-07-01_17h04.12.064,ABstudy,2022.1.4,59.93816778280159,
AB,Lag1_T1P_T2A,1,P,A,8,9,7,5,14,Ceiling fan,Did you see the Ceiling fan?,0.12,0.016,JPG\,cucumber,sponge01,alligator,pear01,ashtray01,hammer01,clock04,ceilingfan01,fork03c,binoculars01b,mushroom01,broccoli01a,leaf02a,acorn,blankImage,blankImage,blankImage,ceilingfan01,,,,,,,,,,,,0,97,97,183,,,,,,,,,,,,,,,,,,,,,,,,,,,,,,,,,,,702.1494187999924,703.160060299997,703.1434324999864,703.7213922999799,703.7213922999799,None,705.3296285999822,None,left,0.6443063999759033,705.3296285999822,None,705.9967414999846,None,right,0.2570447000034619,705.9967414999846,None,,,,,,,,,,,,,,,,,,,,,,,PPT25,001,2022-07-01_17h04.12.064,ABstudy,2022.1.4,59.93816778280159,
AB,Lag1_T1P_T2P,1,P,P,8,9,7,4,13,crab,Did you see the crab?,0.12,0.016,JPG\,candle01,fork03c,plate01b,violin,computerkeyboard02,candy,calculator01,crab01,stapler04b,sock01a,teabag,banana01,cd,blankImage,blankImage,blankImage,blankImage,crab01,,,,,,,,,,,,0,98,98,37,,,,,,,,,,,,,,,,,,,,,,,,,,,,,,,,,,,706.3295634999813,707.3308760999935,707.3141166999994,707.88878139999,707.88878139999,None,709.4892369000008,None,left,0.548271499981638,709.4892369000008,None,710.0667532999942,None,left,0.1467257999756839,710.0667532999942,None,,,,,,,,,,,,,,,,,,,,,,,PPT25,001,2022-07-01_17h04.12.064,ABstudy,2022.1.4,59.93816778280159,
AB,Lag1_T1P_T2A,1,P,A,7,8,6,3,11,Seagull,Did you see the Seagull?,0.12,0.016,JPG\,toiletpaper01a,mushroom01,medal02b,sandal,rice,cd,seagull,pizza,candle08b,garlic01a,toaster01,blankImage,blankImage,blankImage,blankImage,blankImage,blankImage,seagull,,,,,,,,,,,,0,99,99,176,,,,,,,,,,,,,,,,,,,,,,,,,,,,,,,,,,,710.2333140999835,711.2393241999962,711.2178516999993,711.8230510999856,711.8230510999856,None,713.2117727999866,None,left,0.7935085000062827,713.2117727999866,None,714.0373996999988,None,right,0.39173679999657907,714.0373996999988,None,,,,,,,,,,,,,,,,,,,,,,,PPT25,001,2022-07-01_17h04.12.064,ABstudy,2022.1.4,59.93816778280159,
AB,Lag1_T1P_T2P,1,P,P,7,8,6,4,12,trophy,Did you see the trophy?,0.12,0.016,JPG\,cherry01,cymbal,envelope03a,foosballtable,shirt02,cellphone,trophy01,stapler04b,battery02b,apple07,pencil01,screwdriver04b,blankImage,blankImage,blankImage,blankImage,blankImage,trophy01,,,,,,,,,,,,0,100,100,74,,,,,,,,,,,,,,,,,,,,,,,,,,,,,,,,,,,714.4576501999982,715.4722441000049,715.4389966999879,716.0222594999941,716.0222594999941,None,717.4776731999882,None,left,0.5355292999884114,717.4776731999882,None,718.0413411000045,None,left,0.13987760001327842,718.0413411000045,None,,,,,,,,,,,,,,,,,,,,,,,PPT25,001,2022-07-01_17h04.12.064,ABstudy,2022.1.4,59.93816778280159,
AB,Lag5_T1P_T2A,5,P,A,7,12,6,5,17,corn,Did you see the corn?,0.12,0.016,JPG\,avocado01,pingpongpaddle01c,match,cauliflower01,paintbrush01,clock01a,corn02,cd,balloon01b,cellphone,watch02a,pear01,toaster01,sponge01,orange,blueberry01,blankImage,corn02,,,,,,,,,,,,0,101,101,210,,,,,,,,,,,,,,,,,,,,,,,,,,,,,,,,,,,718.2082654999977,719.2093127999979,719.1926456000074,719.7817843999946,719.7817843999946,None,721.7450589000073,None,right,0.9160628000099678,721.7450589000073,None,722.6793101000076,None,right,0.1900737999822013,722.6793101000076,None,,,,,,,,,,,,,,,,,,,,,,,PPT25,001,2022-07-01_17h04.12.064,ABstudy,2022.1.4,59.93816778280159,
AB,Lag5_T1A_T2P,5,A,P,6,11,5,4,15,fish,Did you see the fish?,0.12,0.016,JPG\,pingpongpaddle01c,banana01,scissors01,pig,shirt02,leaf02a,pear01,sponge01,fork03c,tableknife02,stapler03a,match,toothbrush03b,birthdaycandle,candle01,blankImage,blankImage,lighthouse,,,,,,,,,,,,0,102,102,265,,,,,,,,,,,,,,,,,,,,,,,,,,,,,,,,,,,722.8984538000077,723.9138936999952,723.8805232000013,724.4681648999976,724.4681648999976,None,726.3339014999801,None,right,0.8152739999932237,726.3339014999801,None,727.1703182999918,None,left,0.14693630000692792,727.1703182999918,None,,,,,,,,,,,,,,,,,,,,,,,PPT25,001,2022-07-01_17h04.12.064,ABstudy,2022.1.4,59.93816778280159,
AB,Lag5_T1P_T2P,5,P,P,6,11,5,3,14,shower head,Did you see the shower head?,0.12,0.016,JPG\,belt02a,measuringcup01,spoon01,chain01,greenolive,showerhead01,computerkeyboard02,onion,fan,strawberry,stapler01,broom01,binoculars01b,ashtray01,blankImage,blankImage,blankImage,showerhead01,,,,,,,,,,,,0,103,103,98,,,,,,,,,,,,,,,,,,,,,,,,,,,,,,,,,,,727.3366700999904,728.3518622999836,728.3186517999857,728.9157186999801,728.9157186999801,None,730.5971948999795,None,left,0.8326455999922473,730.5971948999795,None,731.4550445000059,None,right,0.6777464000042528,731.4550445000059,None,,,,,,,,,,,,,,,,,,,,,,,PPT25,001,2022-07-01_17h04.12.064,ABstudy,2022.1.4,59.93816778280159,
AB,Lag1_T1P_T2P,1,P,P,7,8,6,4,12,cow,Did you see the cow?,0.12,0.016,JPG\,fork03c,plate01b,toiletpaper01a,greenolive,rice,blueberry01,cow,stapler01,envelope03a,orange,book01b,pencil01,blankImage,blankImage,blankImage,blankImage,blankImage,cow,,,,,,,,,,,,0,104,104,59,,,,,,,,,,,,,,,,,,,,,,,,,,,,,,,,,,,732.1588800000027,733.1732990999881,733.1398256999964,733.7148355999961,733.7148355999961,None,735.1901363999932,None,left,0.5347904000082053,735.1901363999932,None,735.7428651000082,None,left,0.13507879999815486,735.7428651000082,None,,,,,,,,,,,,,,,,,,,,,,,PPT25,001,2022-07-01_17h04.12.064,ABstudy,2022.1.4,59.93816778280159,
AB,Lag5_T1P_T2A,5,P,A,5,10,4,4,14,rocket,Did you see the rocket?,0.12,0.016,JPG\,fan,tomato01,candy,screwdriver04b,spacerocket,cd,thermometer02b,apple07,button01,plate01b,brownsugar,lighter01,clock01a,envelope03a,blankImage,blankImage,blankImage,spacerocket,,,,,,,,,,,,0,105,105,226,,,,,,,,,,,,,,,,,,,,,,,,,,,,,,,,,,,735.9125389999826,736.9270404999843,736.9102158999885,737.4835755999957,737.4835755999957,None,739.3167300999921,None,right,2.041266199987149,739.3167300999921,None,741.381821899995,None,right,0.1434484000201337,741.381821899995,None,,,,,,,,,,,,,,,,,,,,,,,PPT25,001,2022-07-01_17h04.12.064,ABstudy,2022.1.4,59.93816778280159,
AB,Lag5_T1A_T2P,5,A,P,5,10,4,3,13,License Plate,Did you see the License Plate?,0.12,0.016,JPG\,tomato01,pen04b,shirt02,carrot01,lamp04a,key01,pizza,avocado01,sewingmachine01a,stapler06,iron01b,book01b,chain01,blankImage,blankImage,blankImage,blankImage,porcupine,,,,,,,,,,,,0,106,106,270,,,,,,,,,,,,,,,,,,,,,,,,,,,,,,,,,,,741.5556503999978,742.5660110999888,742.549323299987,743.1374743999913,743.1374743999913,None,744.6945330000017,None,right,1.014836100017419,744.6945330000017,None,745.7355755000026,None,left,0.18945340000209399,745.7355755000026,None,,,,,,,,,,,,,,,,,,,,,,,PPT25,001,2022-07-01_17h04.12.064,ABstudy,2022.1.4,59.93816778280159,
AB,Lag1_T1P_T2P,1,P,P,7,8,6,3,11,harmonica,Did you see the harmonica?,0.12,0.016,JPG\,cucumber,ring01,lipstick02a,microscope,violin,garlic01a,harmonica,stapler03b,cherry01,sewingmachine01a,belt02a,blankImage,blankImage,blankImage,blankImage,blankImage,blankImage,harmonica,,,,,,,,,,,,0,107,107,43,,,,,,,,,,,,,,,,,,,,,,,,,,,,,,,,,,,745.954714499996,746.9701580999827,746.9367869999842,747.5030330999871,747.5030330999871,None,748.9525650999858,None,left,0.6853549999941606,748.9525650999858,None,749.656158800004,None,left,0.14979850000236183,749.656158800004,None,,,,,,,,,,,,,,,,,,,,,,,PPT25,001,2022-07-01_17h04.12.064,ABstudy,2022.1.4,59.93816778280159,
AB,Lag1_T1A_T2P,1,A,P,5,6,4,5,11,rake,Did you see the rake?,0.12,0.016,JPG\,candy,brownsugar,dice05a,cd,sock01a,stapler01,button01,potato02b,feather03a,grape01,dandelion,blankImage,blankImage,blankImage,blankImage,blankImage,blankImage,greatwhiteshark,,,,,,,,,,,,0,108,108,256,,,,,,,,,,,,,,,,,,,,,,,,,,,,,,,,,,,749.8252790999832,750.824630099989,750.808944199991,751.4048115999904,751.4048115999904,None,752.6644668999943,None,right,1.0043975000153296,752.6644668999943,None,753.70792049999,None,left,0.14586160000180826,753.70792049999,None,,,,,,,,,,,,,,,,,,,,,,,PPT25,001,2022-07-01_17h04.12.064,ABstudy,2022.1.4,59.93816778280159,
AB,Lag5_T1P_T2A,5,P,A,6,11,5,4,15,Spear,Did you see the Spear?,0.12,0.016,JPG\,belt02a,measuringcup01,spoon01,chain01,greenolive,spear02,computerkeyboard02,onion,fan,strawberry,candle01,broom01,binoculars01b,ashtray01,pingpongpaddle01c,blankImage,blankImage,spear02,,,,,,,,,,,,0,109,109,227,,,,,,,,,,,,,,,,,,,,,,,,,,,,,,,,,,,753.8883148999885,754.8957179999852,754.8801971999928,755.5473160999827,755.474278299982,None,757.3598747999931,None,left,0.7249978999898303,757.3598747999931,None,758.1150312999962,None,left,0.13072590000228956,758.1150312999962,None,,,,,,,,,,,,,,,,,,,,,,,PPT25,001,2022-07-01_17h04.12.064,ABstudy,2022.1.4,59.93816778280159,
AB,Lag1_T1P_T2P,1,P,P,6,7,5,5,12,exit sign,Did you see the exit sign?,0.12,0.016,JPG\,printer02,envelope03a,potato02b,calculator01,tableknife02,exitsign,stapler01,pig,broom01,greenolive,candle08b,battery02b,blankImage,blankImage,blankImage,blankImage,blankImage,exitsign,,,,,,,,,,,,0,110,110,41,,,,,,,,,,,,,,,,,,,,,,,,,,,,,,,,,,,758.2670295999851,759.2666541000071,759.251059400005,759.8558313999965,759.8558313999965,None,761.2948467999813,None,left,1.3991474999929778,761.2948467999813,None,762.7191646999854,None,right,0.5265834999736398,762.7191646999854,None,,,,,,,,,,,,,,,,,,,,,,,PPT25,001,2022-07-01_17h04.12.064,ABstudy,2022.1.4,59.93816778280159,
AB,Lag1_T1P_T2P,1,P,P,8,9,7,4,13,Bird House,Did you see the Bird House?,0.12,0.016,JPG\,toiletpaper01a,mushroom01,medal02b,sandal,rice,cd,feather03a,birdhouse,stapler01,garlic01a,toaster01,belt02a,cigarette,blankImage,blankImage,blankImage,blankImage,birdhouse,,,,,,,,,,,,0,111,111,77,,,,,,,,,,,,,,,,,,,,,,,,,,,,,,,,,,,763.2769660000049,764.2874094999861,764.2707692999975,764.8975884999963,764.8975884999963,None,766.3965812999813,None,left,0.84839679999277,766.3965812999813,None,767.2763145999925,None,left,0.12855900000431575,767.2763145999925,None,,,,,,,,,,,,,,,,,,,,,,,PPT25,001,2022-07-01_17h04.12.064,ABstudy,2022.1.4,59.93816778280159,
AB,Lag5_T1P_T2P,5,P,P,6,11,5,5,16,Parking meter,Did you see the Parking meter?,0.12,0.016,JPG\,dice05a,watch02a,pig,lighter01,button01,parkingmeter,paintbrush01,microscope,plate01b,pen04b,stapler03b,weight04a,carrot01,shirt02,globe,garlic01a,blankImage,parkingmeter,,,,,,,,,,,,0,112,112,172,,,,,,,,,,,,,,,,,,,,,,,,,,,,,,,,,,,767.4336990999873,768.4415294000064,768.42482689998,769.0071880999894,769.0071880999894,None,770.9853910999955,None,left,0.5880871000117622,770.9853910999955,None,771.5946495999815,None,left,0.13084900000831112,771.5946495999815,None,,,,,,,,,,,,,,,,,,,,,,,PPT25,001,2022-07-01_17h04.12.064,ABstudy,2022.1.4,59.93816778280159,
AB,Lag1_T1A_T2A,1,A,A,8,9,7,3,12,punching bag,Did you see the punching bag?,0.12,0.016,JPG\,key01,apple07,ring01,leaf02a,hammer01,tableknife02,violin,sponge01,baseball01a,thermometer02b,celery,calculator01,blankImage,blankImage,blankImage,blankImage,blankImage,bathtub,,,,,,,,,,,,0,113,113,291,,,,,,,,,,,,,,,,,,,,,,,,,,,,,,,,,,,771.8017133999965,772.8127275999868,772.796059299988,773.3788712999958,773.3788712999958,None,774.7720068999915,None,right,0.8260691999748815,774.7720068999915,None,775.6153305000043,None,right,0.1580627000075765,775.6153305000043,None,,,,,,,,,,,,,,,,,,,,,,,PPT25,001,2022-07-01_17h04.12.064,ABstudy,2022.1.4,59.93816778280159,
AB,Lag1_T1P_T2P,1,P,P,6,7,5,3,10,spider web,Did you see the spider web?,0.12,0.016,JPG\,toaster01,chain01,sponge01,baseball01a,carrot01,spiderweb,stapler03b,iron01b,grape01,brick,blankImage,blankImage,blankImage,blankImage,blankImage,blankImage,blankImage,spiderweb,,,,,,,,,,,,0,114,114,72,,,,,,,,,,,,,,,,,,,,,,,,,,,,,,,,,,,775.8021444999904,776.8164743999951,776.7998402999947,777.4549835000071,777.3689421000017,None,778.592284399987,None,left,0.7649082999851089,778.592284399987,None,779.3857754000055,None,right,0.23556110000936314,779.3857754000055,None,,,,,,,,,,,,,,,,,,,,,,,PPT25,001,2022-07-01_17h04.12.064,ABstudy,2022.1.4,59.93816778280159,
AB,Lag1_T1P_T2P,1,P,P,7,8,6,4,12,Christmas Tree,Did you see the Christmas Tree?,0.12,0.016,JPG\,sandal,fan,printer02,cellphone,mushroom01,candle08b,firtree,stapler03a,lamp04a,hammer01,teabag,aceofdiamond,blankImage,blankImage,blankImage,blankImage,blankImage,firtree,,,,,,,,,,,,0,115,115,6,,,,,,,,,,,,,,,,,,,,,,,,,,,,,,,,,,,779.7105464999913,780.7213741999876,780.7058026999875,781.3880187000032,781.3069228999957,None,782.6780424999888,None,left,1.6069454999815207,782.6780424999888,None,784.3077185000002,None,right,0.18623950000619516,784.3077185000002,None,,,,,,,,,,,,,,,,,,,,,,,PPT25,001,2022-07-01_17h04.12.064,ABstudy,2022.1.4,59.93816778280159,
AB,Lag5_T1A_T2P,5,A,P,5,10,4,4,14,mail box,Did you see the mail box?,0.12,0.016,JPG\,button01,celery,birthdaycandle,apple07,avocado01,tennisball01b,dice05a,teabag,clock01a,stapler05,tomato01,scarf,orange,battery02b,blankImage,blankImage,blankImage,jeep,,,,,,,,,,,,0,116,116,263,,,,,,,,,,,,,,,,,,,,,,,,,,,,,,,,,,,784.5297262999811,785.5422923000006,785.5255041999917,786.1041097999841,786.1041097999841,None,787.8120967999857,None,right,2.0651445999974385,787.8120967999857,None,789.8967771999887,None,right,0.16451420000521466,789.8967771999887,None,,,,,,,,,,,,,,,,,,,,,,,PPT25,001,2022-07-01_17h04.12.064,ABstudy,2022.1.4,59.93816778280159,
AB,Lag5_T1A_T2P,5,A,P,5,10,4,5,15,Eye patch,Did you see the Eye patch?,0.12,0.016,JPG\,scissors01,balloon01b,eraser,feather03a,banana01,candle01,measuringcup01,calculator01,thermometer02b,stapler03b,pear01,carrot01,globe,baseball01a,leaf02a,blankImage,blankImage,cross01,,,,,,,,,,,,0,117,117,258,,,,,,,,,,,,,,,,,,,,,,,,,,,,,,,,,,,790.1476645999937,791.1475437000045,791.1324670999893,791.7893772999814,791.7031859999988,None,793.4466959999991,None,right,1.1506054000055883,793.4466959999991,None,794.618087299983,None,right,0.17105890001403168,794.618087299983,None,,,,,,,,,,,,,,,,,,,,,,,PPT25,001,2022-07-01_17h04.12.064,ABstudy,2022.1.4,59.93816778280159,
AB,Lag5_T1P_T2P,5,P,P,6,11,5,4,15,shower,Did you see the shower?,0.12,0.016,JPG\,dice05a,watch02a,pig,lighter01,button01,shower,paintbrush01,microscope,plate01b,pen04b,stapler05,weight04a,carrot01,shirt02,globe,blankImage,blankImage,shower,,,,,,,,,,,,0,118,118,121,,,,,,,,,,,,,,,,,,,,,,,,,,,,,,,,,,,794.8217976999877,795.8356211000064,795.8189111999818,796.4685701999988,796.3926294999837,None,798.3074079999933,None,right,1.521827199991094,798.3074079999933,None,799.8565278000024,None,left,0.24459220000426285,799.8565278000024,None,,,,,,,,,,,,,,,,,,,,,,,PPT25,001,2022-07-01_17h04.12.064,ABstudy,2022.1.4,59.93816778280159,
AB,Lag5_T1A_T2P,5,A,P,8,13,7,5,18,lollipop,Did you see the lollipop?,0.12,0.016,JPG\,watermelon01,banana01,ring01,pencil01,tomato01,speaker04,cucumber,thermometer02b,key01,foosballtable,violin,spoon01,stapler04b,dice05a,pen04b,mushroom01,blankImage,jeans01,,,,,,,,,,,,0,119,119,262,,,,,,,,,,,,,,,,,,,,,,,,,,,,,,,,,,,800.1290477000002,801.1416912999994,801.1262105999922,801.8063242000062,801.7226498999808,None,803.681101299997,None,right,1.0522812999843154,803.681101299997,None,804.7610572999984,None,right,0.39597840001806617,804.7610572999984,None,,,,,,,,,,,,,,,,,,,,,,,PPT25,001,2022-07-01_17h04.12.064,ABstudy,2022.1.4,59.93816778280159,
AB,Lag5_T1P_T2P,5,P,P,8,13,7,5,18,Ping pong Table,Did you see the Ping pong Table?,0.12,0.016,JPG\,shirt02,match,screw02,foosballtable,blueberry01,pineapple01a,sewingmachine01a,pingpongtable,button01,comb02a,dice05a,measuringcup01,stapler04b,printer02,carrot01,watermelon01,blankImage,pingpongtable,,,,,,,,,,,,0,120,120,152,,,,,,,,,,,,,,,,,,,,,,,,,,,,,,,,,,,805.1828765999817,806.196097899985,806.1795750999881,806.77699079999,806.77699079999,None,808.725455799984,None,right,0.9511797000013757,808.725455799984,None,809.7003932999796,None,left,0.1763478000066243,809.7003932999796,None,,,,,,,,,,,,,,,,,,,,,,,PPT25,001,2022-07-01_17h04.12.064,ABstudy,2022.1.4,59.93816778280159,
AB,Lag1_T1P_T2P,1,P,P,7,8,6,3,11,swing,Did you see the swing?,0.12,0.016,JPG\,sewingmachine01a,thermometer02b,sponge01,eraser,broccoli01a,fork03c,swing,stapler03b,belt02a,medal02b,pineapple01a,blankImage,blankImage,blankImage,blankImage,blankImage,blankImage,swing,,,,,,,,,,,,0,121,121,30,,,,,,,,,,,,,,,,,,,,,,,,,,,,,,,,,,,809.9055485999852,810.9173546999809,810.9006150999921,811.4944038999965,811.4944038999965,None,812.789314499998,None,left,0.8565244999772403,812.789314499998,None,813.6727616999997,None,right,0.22815529999206774,813.6727616999997,None,,,,,,,,,,,,,,,,,,,,,,,PPT25,001,2022-07-01_17h04.12.064,ABstudy,2022.1.4,59.93816778280159,
AB,Lag5_T1P_T2A,5,P,A,8,13,7,5,18,Nunchuks,Did you see the Nunchuks?,0.12,0.016,JPG\,celery,tennisball01b,calculator01,pear01,screw02,orange,button01,nunchuk,onion,apple07,iron01b,brownsugar,banana01,paintbrush01,dandelion,toothbrush03b,blankImage,nunchuk,,,,,,,,,,,,0,122,122,218,,,,,,,,,,,,,,,,,,,,,,,,,,,,,,,,,,,813.9326793999935,814.955106199981,814.9067437000049,815.5743651000084,815.5008854999905,None,817.4623119999887,None,left,0.9665998999844305,817.4623119999887,None,818.4584140999941,None,right,0.19459139998070896,818.4584140999941,None,,,,,,,,,,,,,,,,,,,,,,,PPT25,001,2022-07-01_17h04.12.064,ABstudy,2022.1.4,59.93816778280159,
AB,Lag5_T1P_T2P,5,P,P,7,12,6,5,17,American football helmet,Did you see the American football helmet?,0.12,0.016,JPG\,alligator,banana01,apple07,tomato01,button01,spoon01,footballhelmet,fork03c,slipper03b,potato02b,grape01,stapler03b,teabag,screwdriver04b,hammer01,tennisball01b,blankImage,footballhelmet,,,,,,,,,,,,0,123,123,148,,,,,,,,,,,,,,,,,,,,,,,,,,,,,,,,,,,818.6776246999798,819.6928957999917,819.6595698999881,820.159637100005,820.159637100005,None,822.2994799999869,None,left,0.49890060001052916,822.2994799999869,None,822.8290604999929,None,left,0.136210900003789,822.8290604999929,None,,,,,,,,,,,,,,,,,,,,,,,PPT25,001,2022-07-01_17h04.12.064,ABstudy,2022.1.4,59.93816778280159,
AB,Lag5_T1P_T2P,5,P,P,7,12,6,4,16,window,Did you see the window?,0.12,0.016,JPG\,cigarette,pig,banana01,strawberry,clock01a,plate01b,dormer,blueberry01,battery02b,pineapple01a,chain01,stapler01,candy,pen04b,teabag,birthdaycandle,blankImage,dormer,,,,,,,,,,,,0,124,124,170,,,,,,,,,,,,,,,,,,,,,,,,,,,,,,,,,,,822.9981579000014,824.0135945999937,823.9801742999989,824.553087999986,824.553087999986,None,826.4334260000032,None,right,2.7395220000180416,826.4334260000032,None,829.2020271999936,None,left,0.16279750000103377,829.2020271999936,None,,,,,,,,,,,,,,,,,,,,,,,PPT25,001,2022-07-01_17h04.12.064,ABstudy,2022.1.4,59.93816778280159,
AB,Lag5_T1P_T2P,5,P,P,7,12,6,3,15,Rollerblade,Did you see the Rollerblade?,0.12,0.016,JPG\,hammer01,sponge01,toaster01,cherry01,feather03a,mushroom01,rollerblade,pencil01,tennisball01b,brick,clock04,stapler06,teabag,garlic01a,envelope03a,blankImage,blankImage,rollerblade,,,,,,,,,,,,0,125,125,116,,,,,,,,,,,,,,,,,,,,,,,,,,,,,,,,,,,829.3897401999857,830.4034950000059,830.3701888000069,830.9302356999833,830.9302356999833,None,832.7644174000015,None,left,0.9617970999970566,832.7644174000015,None,833.7565514000016,None,left,0.11269030001130886,833.7565514000016,None,,,,,,,,,,,,,,,,,,,,,,,PPT25,001,2022-07-01_17h04.12.064,ABstudy,2022.1.4,59.93816778280159,
AB,Lag1_T1P_T2A,1,P,A,5,6,4,5,11,Sailboat,Did you see the Sailboat?,0.12,0.016,JPG\,chain01,speaker04,avocado01,watermelon01,sailboat,comb02a,lamp04a,fork03c,toaster01,slipper03b,scissors01,blankImage,blankImage,blankImage,blankImage,blankImage,blankImage,sailboat,,,,,,,,,,,,0,126,126,193,,,,,,,,,,,,,,,,,,,,,,,,,,,,,,,,,,,833.8929205999884,834.9077049999905,834.8743024999858,835.4528551999829,835.4528551999829,None,836.7800402999856,None,left,2.5607777999830432,836.7800402999856,None,839.3625445000071,None,right,0.6346057999762706,839.3625445000071,None,,,,,,,,,,,,,,,,,,,,,,,PPT25,001,2022-07-01_17h04.12.064,ABstudy,2022.1.4,59.93816778280159,
AB,Lag1_T1P_T2A,1,P,A,5,6,4,5,11,Toaster oven,Did you see the Toaster oven?,0.12,0.016,JPG\,fork03c,toothbrush03b,cellphone,fan,toasteroven,clock01a,ring01,eraser,sunglasses04,thermometer02b,violin,blankImage,blankImage,blankImage,blankImage,blankImage,blankImage,toasteroven,,,,,,,,,,,,0,127,127,200,,,,,,,,,,,,,,,,,,,,,,,,,,,,,,,,,,,840.03513199999,841.0475251000025,841.0308625999896,841.638965399994,841.638965399994,None,842.968510799983,None,left,0.788853999983985,842.968510799983,None,843.7831918000011,None,right,0.30137239999021403,843.7831918000011,None,,,,,,,,,,,,,,,,,,,,,,,PPT25,001,2022-07-01_17h04.12.064,ABstudy,2022.1.4,59.93816778280159,
AB,Lag5_T1P_T2P,5,P,P,5,10,4,4,14,duck,Did you see the duck?,0.12,0.016,JPG\,celery,pencil01,fan,foosballtable,duck01,shirt02,potato02b,fork03c,button01,stapler03a,baseball01a,printer02,cauliflower01,dandelion,blankImage,blankImage,blankImage,duck01,,,,,,,,,,,,0,128,128,130,,,,,,,,,,,,,,,,,,,,,,,,,,,,,,,,,,,844.1191004999855,845.1345473999972,845.1011903999897,845.6789392000064,845.6789392000064,None,847.3083896999888,None,left,0.6562233000004198,847.3083896999888,None,847.988028199994,None,right,0.24954690001322888,847.988028199994,None,,,,,,,,,,,,,,,,,,,,,,,PPT25,001,2022-07-01_17h04.12.064,ABstudy,2022.1.4,59.93816778280159,
AB,Lag1_T1P_T2P,1,P,P,8,9,7,4,13,mattress,Did you see the mattress?,0.12,0.016,JPG\,button01,celery,birthdaycandle,apple07,avocado01,tennisball01b,dice05a,mattress,stapler01,feather03a,tomato01,scarf,orange,blankImage,blankImage,blankImage,blankImage,mattress,,,,,,,,,,,,0,129,129,22,,,,,,,,,,,,,,,,,,,,,,,,,,,,,,,,,,,848.2586065999931,849.272198599996,849.2553912999865,849.8627083000029,849.8627083000029,None,851.4686557999812,None,left,1.2176122999808285,851.4686557999812,None,852.7089917999983,None,left,0.11217629999737255,852.7089917999983,None,,,,,,,,,,,,,,,,,,,,,,,PPT25,001,2022-07-01_17h04.12.064,ABstudy,2022.1.4,59.93816778280159,
AB,Lag1_T1A_T2A,1,A,A,8,9,7,4,13,Recycling bin,Did you see the Recycling bin?,0.12,0.016,JPG\,brick,plate01b,pen04b,toaster01,screwdriver04b,candle01,envelope03a,feather03a,pig,ring01,orange,clock01a,lighter01,blankImage,blankImage,blankImage,blankImage,bumpercar,,,,,,,,,,,,0,130,130,292,,,,,,,,,,,,,,,,,,,,,,,,,,,,,,,,,,,852.8465953999839,853.8599715000018,853.8432675999939,854.4260456000047,854.4260456000047,None,855.9804373999941,None,right,1.144672399997944,855.9804373999941,None,857.146631999989,None,left,0.37061699997866526,857.146631999989,None,,,,,,,,,,,,,,,,,,,,,,,PPT25,001,2022-07-01_17h04.12.064,ABstudy,2022.1.4,59.93816778280159,
AB,Lag1_T1P_T2P,1,P,P,7,8,6,5,13,dream catcher,Did you see the dream catcher?,0.12,0.016,JPG\,clock01a,cellphone,toaster01,toothbrush03b,cauliflower01,microscope,dreamcatcher,stapler05,scarf,clock04,sponge01,iron01b,watch02a,blankImage,blankImage,blankImage,blankImage,dreamcatcher,,,,,,,,,,,,0,131,131,81,,,,,,,,,,,,,,,,,,,,,,,,,,,,,,,,,,,857.5498899999948,858.5645921999821,858.5312646999955,859.1146564999945,859.1146564999945,None,860.7037888999912,None,left,1.0133172999776434,860.7037888999912,None,861.7344194999896,None,right,0.7506668000132777,861.7344194999896,None,,,,,,,,,,,,,,,,,,,,,,,PPT25,001,2022-07-01_17h04.12.064,ABstudy,2022.1.4,59.93816778280159,
AB,Lag1_T1P_T2P,1,P,P,7,8,6,5,13,tiger,Did you see the tiger?,0.12,0.016,JPG\,globe,broccoli01a,binoculars01b,iron01b,avocado01,dandelion,tiger02,stapler03b,fan,pizza,celery,blueberry01,sewingmachine01a,blankImage,blankImage,blankImage,blankImage,tiger02,,,,,,,,,,,,0,132,132,50,,,,,,,,,,,,,,,,,,,,,,,,,,,,,,,,,,,862.5041522999818,863.5195440999814,863.4864552000072,864.079656899994,864.079656899994,None,865.7258282999974,None,left,1.023023199988529,865.7258282999974,None,866.7741787999985,None,right,0.2946141999855172,866.7741787999985,None,,,,,,,,,,,,,,,,,,,,,,,PPT25,001,2022-07-01_17h04.12.064,ABstudy,2022.1.4,59.93816778280159,
AB,Lag1_T1P_T2P,1,P,P,6,7,5,4,11,Bow,Did you see the Bow?,0.12,0.016,JPG\,broom01,plate01b,scissors01,garlic01a,paintbrush01,bow,stapler03a,shirt02,speaker04,celery,sandal,blankImage,blankImage,blankImage,blankImage,blankImage,blankImage,bow,,,,,,,,,,,,0,133,133,53,,,,,,,,,,,,,,,,,,,,,,,,,,,,,,,,,,,867.0969851999835,868.107757299993,868.09111139999,868.683810699993,868.683810699993,None,870.0335488999845,None,left,0.9471460999920964,870.0335488999845,None,871.0106327999965,None,right,0.1940018000022974,871.0106327999965,None,,,,,,,,,,,,,,,,,,,,,,,PPT25,001,2022-07-01_17h04.12.064,ABstudy,2022.1.4,59.93816778280159,
AB,Lag5_T1P_T2P,5,P,P,6,11,5,5,16,motorcycle,Did you see the motorcycle?,0.12,0.016,JPG\,cucumber,ring01,lipstick02a,microscope,violin,motorcycle,celery,lighter01,cherry01,sewingmachine01a,stapler04b,key01,binoculars01b,medal02b,watermelon01,dice05a,blankImage,motorcycle,,,,,,,,,,,,0,134,134,93,,,,,,,,,,,,,,,,,,,,,,,,,,,,,,,,,,,871.2311633999925,872.2450786999834,872.2283399000007,872.8366169999936,872.8366169999936,None,874.7351207000029,None,left,0.3899292999994941,874.7351207000029,None,875.1477653000038,None,left,0.14519399998243898,875.1477653000038,None,,,,,,,,,,,,,,,,,,,,,,,PPT25,001,2022-07-01_17h04.12.064,ABstudy,2022.1.4,59.93816778280159,
AB,Lag5_T1P_T2P,5,P,P,7,12,6,4,16,Fireplace,Did you see the Fireplace?,0.12,0.016,JPG\,printer02,leaf02a,cauliflower01,sock01a,brownsugar,paintbrush01,fireplace,orange,belt02a,shirt02,key01,stapler01,cigarette,scissors01,envelope03a,blueberry01,blankImage,fireplace,,,,,,,,,,,,0,135,135,88,,,,,,,,,,,,,,,,,,,,,,,,,,,,,,,,,,,875.3173229999957,876.3325620999967,876.2986613999819,876.9060786000045,876.9060786000045,None,878.8585815999832,None,right,0.8434798999805935,878.8585815999832,None,879.7189988000027,None,left,0.183026599988807,879.7189988000027,None,,,,,,,,,,,,,,,,,,,,,,,PPT25,001,2022-07-01_17h04.12.064,ABstudy,2022.1.4,59.93816778280159,
AB,Lag1_T1A_T2P,1,A,P,7,8,6,5,13,Ant,Did you see the Ant?,0.12,0.016,JPG\,rice,watermelon01,tableknife02,scarf,computerkeyboard02,cauliflower01,battery02b,stapler03b,book01b,sandal,sponge01,microscope,tomato01,blankImage,blankImage,blankImage,blankImage,sandcastle,,,,,,,,,,,,0,136,136,242,,,,,,,,,,,,,,,,,,,,,,,,,,,,,,,,,,,879.9221932000073,880.9368942999863,880.9035387999902,881.4815486999869,881.4815486999869,None,883.1222907000047,None,right,0.7945837999868672,883.1222907000047,None,883.9402742999955,None,right,0.22466890001669526,883.9402742999955,None,,,,,,,,,,,,,,,,,,,,,,,PPT25,001,2022-07-01_17h04.12.064,ABstudy,2022.1.4,59.93816778280159,
AB,Lag1_T1P_T2P,1,P,P,5,6,4,5,11,beaver,Did you see the beaver?,0.12,0.016,JPG\,belt02a,sunglasses04,computerkeyboard02,cherry01,beaver,stapler03a,watch02a,dice05a,blueberry01,spoon01,match,blankImage,blankImage,blankImage,blankImage,blankImage,blankImage,beaver,,,,,,,,,,,,0,137,137,55,,,,,,,,,,,,,,,,,,,,,,,,,,,,,,,,,,,884.1958839999861,885.2079687999794,885.1912209999864,885.7785348999896,885.7785348999896,None,887.1103351000056,None,left,0.5431427999865264,887.1103351000056,None,887.676868199982,None,right,0.1834404000255745,887.676868199982,None,,,,,,,,,,,,,,,,,,,,,,,PPT25,001,2022-07-01_17h04.12.064,ABstudy,2022.1.4,59.93816778280159,
