TrialType,CondType,Lag,T1_PA,T2_PA,T1Loc,T2Loc,PreDistractor,PostDistractor,TotalImg,cueWord,T1cue,StimLength,isi,PicFolder,Img1,Img2,Img3,Img4,Img5,Img6,Img7,Img8,Img9,Img10,Img11,Img12,Img13,Img14,Img15,Img16,Img17,T1_Identity,ImageType,T1PA,T2PA,Picture,Image,FullPathName,FilePath,Practice_Trials.thisRepN,Practice_Trials.thisTrialN,Practice_Trials.thisN,Practice_Trials.thisIndex,trials.thisRepN,trials.thisTrialN,trials.thisN,trials.thisIndex,trials_2.thisRepN,trials_2.thisTrialN,trials_2.thisN,trials_2.thisIndex,Practice_Ins.started,Practice_Ins.stopped,End_Prac_Ins.keys,End_Prac_Ins.rt,End_Prac_Ins.started,End_Prac_Ins.stopped,text_2.started,text_2.stopped,Fixation_Cross_2.started,Fixation_Cross_2.stopped,Rapid_Image_Present_2.started,Rapid_Image_Present_2.stopped,key_resp.keys,key_resp.rt,key_resp.started,key_resp.stopped,T1Response_2.started,T1Response_2.stopped,T2Response_2.started,T2Response_2.stopped,key_resp_4.keys,key_resp_4.rt,key_resp_4.started,key_resp_4.stopped,text.started,text.stopped,End_Instructions.keys,End_Instructions.rt,End_Instructions.started,End_Instructions.stopped,text_5.started,text_5.stopped,FC.started,FC.stopped,Rapid_Image_Present.started,Rapid_Image_Present.stopped,T1Response.started,T1Response.stopped,key_resp_2.keys,key_resp_2.rt,key_resp_2.started,key_resp_2.stopped,T2Response.started,T2Response.stopped,key_resp_3.keys,key_resp_3.rt,key_resp_3.started,key_resp_3.stopped,text_6.started,text_6.stopped,Fin_ins.keys,Fin_ins.rt,Fin_ins.started,Fin_ins.stopped,MemTest.started,MemTest.stopped,MemResponse.keys,MemResponse.rt,MemResponse.started,MemResponse.stopped,Display.started,Display.stopped,text_7.started,text_7.stopped,endOfExperiment.started,endOfExperiment.stopped,key_resp_5.keys,key_resp_5.rt,key_resp_5.started,key_resp_5.stopped,participant,session,date,expName,psychopyVersion,frameRate,
,,,,,,,,,,,,,,,,,,,,,,,,,,,,,,,,,,,,,,,,,,,,,,,,,,,,15.982243500009645,None,space,8.018043999996735,15.982243500009645,None,,,,,,,,,,,,,,,,,,,,,,,,,,,,,,,,,,,,,,,,,,,,,,,,,,,,,,,,,,,,,,,,,PPT22,001,2022-07-01_12h27.38.741,ABstudy,2022.1.4,59.965519821846875,
AB_Prac,Lag5_T1P_T2A,5,P,A,6,11,5,5,16,bread,Did you see the bread?,0.5,0.016,JPG\,cleaver01,clipboard,dustpan,hikingshoe01,notebook03a,baguette01,playingcard,pliers02b,styrofoamcup,rollingpin01a,swimgoggles,wineglass01,fryingpan02a,safetypin,syringe01,thimble,blankImage,baguette01,,,,,,,,0,0,0,8,,,,,,,,,,,,,,,24.088478699995903,25.101527199993143,25.084927599993534,25.720363200001884,25.720363200001884,None,left,2.050542899989523,33.78978500000085,None,33.78978500000085,None,35.863831700000446,None,left,1.784891500021331,35.863831700000446,None,,,,,,,,,,,,,,,,,,,,,,,,,,,,,,,,,,,,,,,,,,,,,,,PPT22,001,2022-07-01_12h27.38.741,ABstudy,2022.1.4,59.965519821846875,
AB_Prac,Lag5_T1A_T2A,5,A,A,6,11,5,5,16,castle,Did you see the castle?,0.5,0.016,JPG\,tape02a,englishmuffin,flask,ladle02a,monitor,peach01,keychain,squeegee01b,telephone01b,whisk,walkman,syringe02,baguette01,coaster,box01a,coffeepot03a,blankImage,None,,,,,,,,0,1,1,11,,,,,,,,,,,,,,,37.68698470000527,38.69847689999733,38.68162789999042,39.266666700015776,39.266666700015776,None,right,21.49078130000271,47.26926589998766,None,47.26926589998766,None,68.77826029999414,None,left,1.2063154999923427,68.77826029999414,None,,,,,,,,,,,,,,,,,,,,,,,,,,,,,,,,,,,,,,,,,,,,,,,PPT22,001,2022-07-01_12h27.38.741,ABstudy,2022.1.4,59.965519821846875,
AB_Prac,Lag1_T1A_T2A,1,A,A,8,9,7,3,12,Moose,Did you see the Moose?,0.5,0.016,JPG\,clothespin03b,corkscrew03a,drillbit03a,fusilli03a,needlenosepliers01,perfume01a,pistachio,scrubbingbrush05b,spatula03,toothpastetube,hinge,toydinosaur,blankImage,blankImage,blankImage,blankImage,blankImage,None,,,,,,,,0,2,2,10,,,,,,,,,,,,,,,70.02575299999444,71.03041149998899,70.99708930001361,71.57493219999014,71.57493219999014,None,right,1.0399526999972295,77.62507470001583,None,77.62507470001583,None,78.68878329999279,None,left,1.3437798999948427,78.68878329999279,None,,,,,,,,,,,,,,,,,,,,,,,,,,,,,,,,,,,,,,,,,,,,,,,PPT22,001,2022-07-01_12h27.38.741,ABstudy,2022.1.4,59.965519821846875,
AB_Prac,Lag1_T1P_T2P,1,P,P,8,9,7,5,14,Tennis racket,Did you see the Tennis racket?,0.5,0.016,JPG\,coconut,computermouse06,croissant01,deodorant02a,pillow01a,peanut01,boot02b,tennisracket,stapler03b,crayon,eggplant,marker01a,plant01,radish01,blankImage,blankImage,blankImage,tennisracket,,,,,,,,0,3,3,0,,,,,,,,,,,,,,,80.06615369999781,81.07396599999629,81.05712139999378,81.68373749998864,81.68373749998864,None,left,0.8097683000087272,88.65392730000895,None,88.65392730000895,None,89.48204530001385,None,left,1.3981545999995433,89.48204530001385,None,,,,,,,,,,,,,,,,,,,,,,,,,,,,,,,,,,,,,,,,,,,,,,,PPT22,001,2022-07-01_12h27.38.741,ABstudy,2022.1.4,59.965519821846875,
AB_Prac,Lag1_T1P_T2A,1,P,A,8,9,7,5,14,flower,Did you see the flower?,0.5,0.016,JPG\,razor01,axe01,binder03b,bowl01,kettle01,lettuce,lime,plasticflower01b,mitten04,pencilcase01,plunger02,strawbasket01,toothpick02,wallet02a,blankImage,blankImage,blankImage,plasticflower01b,,,,,,,,0,4,4,5,,,,,,,,,,,,,,,90.90380130000995,91.91801580000902,91.9013161000039,92.4857742000022,92.4857742000022,None,left,0.7858379999815952,99.54989570000907,None,99.54989570000907,None,100.35921339999186,None,left,1.1606173999898601,100.35921339999186,None,,,,,,,,,,,,,,,,,,,,,,,,,,,,,,,,,,,,,,,,,,,,,,,PPT22,001,2022-07-01_12h27.38.741,ABstudy,2022.1.4,59.965519821846875,
AB_Prac,Lag5_T1P_T2P,5,P,P,5,10,4,5,15,Vulture,Did you see the Vulture?,0.5,0.016,JPG\,shorts01,toast,ramekin01,bib,vulture,cracker02,date,glasses01a,hat03b,stapler01,measuringtape01,nail,pill,drum01,starfish01,blankImage,blankImage,vulture,,,,,,,,0,5,5,3,,,,,,,,,,,,,,,101.63865280000027,102.64524600000004,102.6285993999918,103.23702960001538,103.23702960001538,None,right,8.644700400007423,110.66670510001131,None,110.66670510001131,None,119.32928070001071,None,right,1.4622023999982048,119.32928070001071,None,,,,,,,,,,,,,,,,,,,,,,,,,,,,,,,,,,,,,,,,,,,,,,,PPT22,001,2022-07-01_12h27.38.741,ABstudy,2022.1.4,59.965519821846875,
AB_Prac,Lag1_T1P_T2P,1,P,P,6,7,5,5,12,triangle,Did you see the triangle?,0.5,0.016,JPG\,ginger,mousetrap,plum01,slipper01b,dropper01,triangle,stapler04b,pants,raspberry01,rope03,scale01a,vase01,blankImage,blankImage,blankImage,blankImage,blankImage,triangle,,,,,,,,0,6,6,1,,,,,,,,,,,,,,,120.82111009999062,121.83121989999199,121.81443729999592,122.42983460001415,122.42983460001415,None,left,9.492857399978675,128.46716369999922,None,128.46716369999922,None,137.9806147000054,None,left,5.434973099996569,137.9806147000054,None,,,,,,,,,,,,,,,,,,,,,,,,,,,,,,,,,,,,,,,,,,,,,,,PPT22,001,2022-07-01_12h27.38.741,ABstudy,2022.1.4,59.965519821846875,
AB_Prac,Lag5_T1P_T2P,5,P,P,7,12,6,3,15,vacuum,Did you see the vacuum?,0.5,0.016,JPG\,fork07b,lightbulb01,manshoe,saw02b,shoelace,soap03a,vacuumcleaner01,floortile01,necklace,doll,cabbage,stapler03a,hanger02a,laptop01a,nailpolish03b,blankImage,blankImage,vacuumcleaner01,,,,,,,,0,7,7,2,,,,,,,,,,,,,,,143.44428830000106,144.45354149999912,144.43684899999062,145.01161129999673,145.01161129999673,None,left,8.363280899997335,152.55591060000006,None,152.55591060000006,None,160.93661520001478,None,right,1.591033000004245,160.93661520001478,None,,,,,,,,,,,,,,,,,,,,,,,,,,,,,,,,,,,,,,,,,,,,,,,PPT22,001,2022-07-01_12h27.38.741,ABstudy,2022.1.4,59.965519821846875,
AB_Prac,Lag5_T1A_T2P,5,A,P,6,11,5,3,14,dog,Did you see the dog?,0.5,0.016,JPG\,bucket01a,doorlock,cookiecutter,fireextinguisher01,gluestick,highlighter02b,sportbag,spraybottle01,suitcase,thread02,stapler05,walnut01c,icecubetray01a,vikingmask01b,blankImage,blankImage,blankImage,None,,,,,,,,0,8,8,9,,,,,,,,,,,,,,,162.55737429999863,163.556250499998,163.54086519998964,164.22228170000017,164.13949480000883,None,right,0.9603658999840263,171.1671442000079,None,171.1671442000079,None,172.14772619999712,None,right,1.892078400007449,172.14772619999712,None,,,,,,,,,,,,,,,,,,,,,,,,,,,,,,,,,,,,,,,,,,,,,,,PPT22,001,2022-07-01_12h27.38.741,ABstudy,2022.1.4,59.965519821846875,
AB_Prac,Lag1_T1P_T2A,1,P,A,5,6,4,5,11,Webcam,Did you see the Webcam?,0.5,0.016,JPG\,pictureframe04,binder03b,straw,adjustablewrench01b,webcam,cane,hairdryer02a,icepack,kitchenscale01a,lifejacket,piggybank,blankImage,blankImage,blankImage,blankImage,blankImage,blankImage,webcam,,,,,,,,0,9,9,6,,,,,,,,,,,,,,,174.0698359000089,175.08427120000124,175.06772329998785,175.6595374000026,175.6595374000026,None,right,5.483412199973827,181.1797865999979,None,181.1797865999979,None,186.6958033000119,None,right,1.2163366000168025,186.6958033000119,None,,,,,,,,,,,,,,,,,,,,,,,,,,,,,,,,,,,,,,,,,,,,,,,PPT22,001,2022-07-01_12h27.38.741,ABstudy,2022.1.4,59.965519821846875,
AB_Prac,Lag5_T1P_T2A,5,P,A,6,11,5,5,16,Wheat,Did you see the Wheat?,0.5,0.016,JPG\,bottleopener01,dentalfloss03b,cooler01,icecreamcone01a,paperclip01b,wheat,pencilsharpener02a,plasticbasket01a,toycar04,apricot,hairclip02,rock01a,honeydewmelon,antenna,blackberry,cardboardbox,blankImage,wheat,,,,,,,,0,10,10,7,,,,,,,,,,,,,,,187.93601380000473,188.9482038000133,188.93145959998947,189.51801649999106,189.51801649999106,None,left,0.9711976999824401,197.54114380001556,None,197.54114380001556,None,198.54103590000886,None,right,2.7220220000017434,198.54103590000886,None,,,,,,,,,,,,,,,,,,,,,,,,,,,,,,,,,,,,,,,,,,,,,,,PPT22,001,2022-07-01_12h27.38.741,ABstudy,2022.1.4,59.965519821846875,
AB_Prac,Lag5_T1P_T2P,5,P,P,5,10,4,5,15,washing machine,Did you see the washing machine?,0.5,0.016,JPG\,waterbottle03,wheel01,flashlight02b,zucchini01,washingmachine,headphones02b,nutcracker01,paintroller01,paperclip03,stapler06,ribbon04,electricrazor,bottleofredwine01,pitabread,pot02a,blankImage,blankImage,washingmachine,,,,,,,,0,11,11,4,,,,,,,,,,,,,,,201.29598689998966,202.31171310000354,202.27802359999623,202.84963800001424,202.84963800001424,None,left,0.7234240999969188,210.44492670000182,None,210.44492670000182,None,211.20100000000093,None,right,1.166603199992096,211.20100000000093,None,,,,,,,,,,,,,,,,,,,,,,,,,,,,,,,,,,,,,,,,,,,,,,,PPT22,001,2022-07-01_12h27.38.741,ABstudy,2022.1.4,59.965519821846875,
,,,,,,,,,,,,,,,,,,,,,,,,,,,,,,,,,,,,,,,,,,,,,,,,,,,,,,,,,,,,,,,,,,,,,,,,,,,,212.38841049998882,None,space,24.819252199988114,212.38841049998882,None,,,,,,,,,,,,,,,,,,,,,,,,,,,,,,,,,,,,,,,,,PPT22,001,2022-07-01_12h27.38.741,ABstudy,2022.1.4,59.965519821846875,
AB,Lag1_T1P_T2P,1,P,P,6,7,5,3,10,handcuffs,Did you see the handcuffs?,0.12,0.016,JPG\,sewingmachine01a,scarf,carrot01,book01b,eraser,handcuffs,stapler05,lipstick02a,printer02,garlic01a,blankImage,blankImage,blankImage,blankImage,blankImage,blankImage,blankImage,handcuffs,,,,,,,,,,,,0,0,0,2,,,,,,,,,,,,,,,,,,,,,,,,,,,,,,,,,,,237.9688565999968,238.98095269998885,238.96428970000125,239.5739168,239.5739168,None,240.73872819999815,None,right,2.197153699991759,240.73872819999815,None,242.97027610000805,None,left,1.6209691999829374,242.97027610000805,None,,,,,,,,,,,,,,,,,,,,,,,PPT22,001,2022-07-01_12h27.38.741,ABstudy,2022.1.4,59.965519821846875,
AB,Lag1_T1P_T2P,1,P,P,8,9,7,3,12,snow globe,Did you see the Snow globe?,0.12,0.016,JPG\,eraser,measuringcup01,chain01,birthdaycandle,ring01,rice,8ball,stapler04b,stapler01,celery,microscope,sunglasses04,blankImage,blankImage,blankImage,blankImage,blankImage,snowglobe,,,,,,,,,,,,0,1,1,56,,,,,,,,,,,,,,,,,,,,,,,,,,,,,,,,,,,244.62637400001404,245.637742299994,245.6210546999937,246.2115926000115,246.2115926000115,None,247.73619369999506,None,left,16.230828400002792,247.73619369999506,None,263.9891917000059,None,left,1.1698605999990832,263.9891917000059,None,,,,,,,,,,,,,,,,,,,,,,,PPT22,001,2022-07-01_12h27.38.741,ABstudy,2022.1.4,59.965519821846875,
AB,Lag1_T1P_T2P,1,P,P,7,8,6,4,12,skunk,Did you see the skunk?,0.12,0.016,JPG\,fan,tomato01,candy,screwdriver04b,alligator,cd,skunk,stapler03b,button01,plate01b,brownsugar,lighter01,blankImage,blankImage,blankImage,blankImage,blankImage,skunk,,,,,,,,,,,,0,2,2,48,,,,,,,,,,,,,,,,,,,,,,,,,,,,,,,,,,,265.1926310000126,266.20810839999467,266.17468050000025,266.75513040000806,266.75513040000806,None,268.25099960001535,None,left,5.892633999988902,268.25099960001535,None,274.16595419999794,None,right,0.8015681999968365,274.16595419999794,None,,,,,,,,,,,,,,,,,,,,,,,PPT22,001,2022-07-01_12h27.38.741,ABstudy,2022.1.4,59.965519821846875,
AB,Lag5_T1P_T2P,5,P,P,6,11,5,4,15,punching bag,Did you see the punching bag?,0.12,0.016,JPG\,foosballtable,cigarette,pen04b,birthdaycandle,hammer01,punchingbag,binoculars01b,chain01,potato02b,cauliflower01,stapler04b,ashtray01,scarf,cellphone,calculator01,blankImage,blankImage,punchingbag,,,,,,,,,,,,0,3,3,156,,,,,,,,,,,,,,,,,,,,,,,,,,,,,,,,,,,275.0045349000138,276.01779449998867,276.00116099999286,276.50362360000145,276.50362360000145,None,278.45766990000266,None,right,1.0454818999860436,278.45766990000266,None,279.53562360000797,None,left,1.168120899994392,279.53562360000797,None,,,,,,,,,,,,,,,,,,,,,,,PPT22,001,2022-07-01_12h27.38.741,ABstudy,2022.1.4,59.965519821846875,
AB,Lag5_T1A_T2A,5,A,A,5,10,4,5,15,sword,Did you see the sword?,0.12,0.016,JPG\,pencil01,broccoli01a,button01,sponge01,watermelon01,lipstick02a,comb02a,fan,lighter01,sock01a,spoon01,blueberry01,belt02a,onion,grape01,blankImage,blankImage,parachute,,,,,,,,,,,,0,4,4,298,,,,,,,,,,,,,,,,,,,,,,,,,,,,,,,,,,,280.7247486000124,281.74016389998724,281.706789399992,282.28058489999967,282.28058489999967,None,284.16795100001036,None,right,1.7359652000013739,284.16795100001036,None,285.92806020000717,None,right,0.9596486000227742,285.92806020000717,None,,,,,,,,,,,,,,,,,,,,,,,PPT22,001,2022-07-01_12h27.38.741,ABstudy,2022.1.4,59.965519821846875,
AB,Lag1_T1P_T2P,1,P,P,5,6,4,3,9,Pumpkin,Did you see the Pumpkin?,0.12,0.016,JPG\,binoculars01b,speaker04,sandal,envelope03a,pumpkin,stapler03b,battery02b,chain01,measuringcup01,blankImage,blankImage,blankImage,blankImage,blankImage,blankImage,blankImage,blankImage,pumpkin,,,,,,,,,,,,0,5,5,23,,,,,,,,,,,,,,,,,,,,,,,,,,,,,,,,,,,286.91824679999263,287.93058129999554,287.9150990000053,288.5881381999934,288.5072879999934,None,289.5678887999966,None,left,6.439361600001575,289.5678887999966,None,296.03809829999227,None,right,1.1454608000058215,296.03809829999227,None,,,,,,,,,,,,,,,,,,,,,,,PPT22,001,2022-07-01_12h27.38.741,ABstudy,2022.1.4,59.965519821846875,
AB,Lag1_T1P_T2A,1,P,A,6,7,5,5,12,Tombstone,Did you see the Tombstone?,0.12,0.016,JPG\,cigarette,ashtray01,envelope03a,sandal,chain01,tombstone,broccoli01a,tomato01,dandelion,candle01,lemon02,button01,blankImage,blankImage,blankImage,blankImage,blankImage,tombstone,,,,,,,,,,,,0,6,6,196,,,,,,,,,,,,,,,,,,,,,,,,,,,,,,,,,,,297.2084077000036,298.22351949999575,298.1901387000107,298.75382489999174,298.75382489999174,None,300.2674883000145,None,right,5.763142100011464,300.2674883000145,None,306.0480894999928,None,right,1.102425499993842,306.0480894999928,None,,,,,,,,,,,,,,,,,,,,,,,PPT22,001,2022-07-01_12h27.38.741,ABstudy,2022.1.4,59.965519821846875,
AB,Lag5_T1P_T2P,5,P,P,7,12,6,4,16,Fireplace,Did you see the Fireplace?,0.12,0.016,JPG\,printer02,leaf02a,cauliflower01,sock01a,brownsugar,paintbrush01,fireplace,orange,belt02a,shirt02,key01,stapler01,cigarette,scissors01,envelope03a,blueberry01,blankImage,fireplace,,,,,,,,,,,,0,7,7,88,,,,,,,,,,,,,,,,,,,,,,,,,,,,,,,,,,,307.18523080000887,308.2002169000043,308.18356639999547,308.7583326000022,308.7583326000022,None,310.7091888000141,None,left,0.5949582000030205,310.7091888000141,None,311.33635309999227,None,left,1.6785845000122208,311.33635309999227,None,,,,,,,,,,,,,,,,,,,,,,,PPT22,001,2022-07-01_12h27.38.741,ABstudy,2022.1.4,59.965519821846875,
AB,Lag1_T1P_T2P,1,P,P,5,6,4,5,11,beaver,Did you see the beaver?,0.12,0.016,JPG\,belt02a,sunglasses04,computerkeyboard02,cherry01,beaver,stapler03a,watch02a,dice05a,blueberry01,spoon01,match,blankImage,blankImage,blankImage,blankImage,blankImage,blankImage,beaver,,,,,,,,,,,,0,8,8,55,,,,,,,,,,,,,,,,,,,,,,,,,,,,,,,,,,,313.04270369998994,314.05612739999196,314.03948639999726,314.62100879999343,314.62100879999343,None,315.93702819998725,None,left,4.013663699995959,315.93702819998725,None,319.9926747000136,None,right,0.7500983999925666,319.9926747000136,None,,,,,,,,,,,,,,,,,,,,,,,PPT22,001,2022-07-01_12h27.38.741,ABstudy,2022.1.4,59.965519821846875,
AB,Lag1_T1A_T2P,1,A,P,8,9,7,5,14,clock,Did you see the clock?,0.12,0.016,JPG\,speaker04,sewingmachine01a,eraser,violin,globe,belt02a,sunglasses04,cymbal,stapler01,greenolive,alligator,pear01,watch02a,screwdriver04b,blankImage,blankImage,blankImage,peacock,,,,,,,,,,,,0,9,9,240,,,,,,,,,,,,,,,,,,,,,,,,,,,,,,,,,,,320.77522909999243,321.7798400000029,321.74649930000305,322.3164812999894,322.3164812999894,None,324.0453708000132,None,right,1.4255913999804761,324.0453708000132,None,325.500713299989,None,right,0.4596756000246387,325.500713299989,None,,,,,,,,,,,,,,,,,,,,,,,PPT22,001,2022-07-01_12h27.38.741,ABstudy,2022.1.4,59.965519821846875,
AB,Lag5_T1P_T2P,5,P,P,8,13,7,3,16,Chefs hat,Did you see the Chefs hat?,0.12,0.016,JPG\,rice,watermelon01,tableknife02,scarf,computerkeyboard02,cauliflower01,battery02b,chefshat,book01b,sandal,sponge01,microscope,stapler01,fork03c,thermometer02b,apple07,blankImage,chefshat,,,,,,,,,,,,0,10,10,128,,,,,,,,,,,,,,,,,,,,,,,,,,,,,,,,,,,325.99413010000717,327.00253590001375,326.9871811000048,327.63607800001046,327.56088569998974,None,329.563830900006,None,left,0.7549975000147242,329.563830900006,None,330.35301640001126,None,right,0.27867240001796745,330.35301640001126,None,,,,,,,,,,,,,,,,,,,,,,,PPT22,001,2022-07-01_12h27.38.741,ABstudy,2022.1.4,59.965519821846875,
AB,Lag5_T1P_T2P,5,P,P,8,13,7,4,17,lamp,Did you see the lamp?,0.12,0.016,JPG\,globe,broccoli01a,binoculars01b,iron01b,avocado01,dandelion,pineapple01a,floorlamp,fan,pizza,celery,blueberry01,stapler01,dice05a,watermelon01,candy,blankImage,floorlamp,,,,,,,,,,,,0,11,11,99,,,,,,,,,,,,,,,,,,,,,,,,,,,,,,,,,,,330.6578087999951,331.67322749999585,331.63983729999745,332.22774579998804,332.22774579998804,None,334.2367484999995,None,right,0.9545557000092231,334.2367484999995,None,335.21048559999326,None,right,0.8199755999958143,335.21048559999326,None,,,,,,,,,,,,,,,,,,,,,,,PPT22,001,2022-07-01_12h27.38.741,ABstudy,2022.1.4,59.965519821846875,
AB,Lag5_T1P_T2A,5,P,A,5,10,4,5,15,Shield,Did you see the Shield?,0.12,0.016,JPG\,cigarette,fork03c,greenolive,broccoli01a,shield02,tennisball01b,balloon01b,leaf02a,pig,fan,clock01a,strawberry,envelope03a,birthdaycandle,teabag,blankImage,blankImage,shield02,,,,,,,,,,,,0,12,12,223,,,,,,,,,,,,,,,,,,,,,,,,,,,,,,,,,,,336.0665302000125,337.07880970000406,337.06206550000934,337.6495527999941,337.6495527999941,None,339.47259479999775,None,right,9.150523700023768,339.47259479999775,None,348.64156899999944,None,right,0.3654141000006348,348.64156899999944,None,,,,,,,,,,,,,,,,,,,,,,,PPT22,001,2022-07-01_12h27.38.741,ABstudy,2022.1.4,59.965519821846875,
AB,Lag5_T1A_T2A,5,A,A,6,11,5,5,16,shrimp,Did you see the shrimp?,0.12,0.016,JPG\,speaker04,sewingmachine01a,eraser,violin,globe,belt02a,sunglasses04,cymbal,cd,greenolive,alligator,pear01,watch02a,screwdriver04b,banana01,cigarette,blankImage,rollerblade,,,,,,,,,,,,0,13,13,300,,,,,,,,,,,,,,,,,,,,,,,,,,,,,,,,,,,349.03140169999097,350.0413170999964,350.0252831999969,350.60546290001366,350.60546290001366,None,352.5310616999923,None,right,1.1003547000000253,352.5310616999923,None,353.66218760001357,None,right,0.8732536000024993,353.66218760001357,None,,,,,,,,,,,,,,,,,,,,,,,PPT22,001,2022-07-01_12h27.38.741,ABstudy,2022.1.4,59.965519821846875,
AB,Lag1_T1A_T2P,1,A,P,8,9,7,4,13,Fireplace,Did you see the Fireplace?,0.12,0.016,JPG\,scissors01,ashtray01,garlic01a,medal02b,cigarette,candle08b,leaf02a,envelope03a,stapler06,rice,toiletpaper01a,greenolive,cymbal,blankImage,blankImage,blankImage,blankImage,dartboard,,,,,,,,,,,,0,14,14,252,,,,,,,,,,,,,,,,,,,,,,,,,,,,,,,,,,,354.5682506999874,355.5806966999953,355.56399840000086,356.13663890000316,356.13663890000316,None,357.645809300011,None,right,0.9618929999996908,357.645809300011,None,358.6337521999958,None,right,0.6936522999894805,358.6337521999958,None,,,,,,,,,,,,,,,,,,,,,,,PPT22,001,2022-07-01_12h27.38.741,ABstudy,2022.1.4,59.965519821846875,
AB,Lag1_T1A_T2A,1,A,A,5,6,4,4,10,rose,Did you see the rose?,0.12,0.016,JPG\,sock01a,spoon01,alligator,comb02a,printer02,medal02b,lamp04a,cymbal,greenolive,computerkeyboard02,blankImage,blankImage,blankImage,blankImage,blankImage,blankImage,blankImage,cruiseship,,,,,,,,,,,,0,15,15,293,,,,,,,,,,,,,,,,,,,,,,,,,,,,,,,,,,,359.4038834999956,360.4184722999926,360.40181189999566,360.988781299995,360.988781299995,None,362.12764839999727,None,right,0.9429109999909997,362.12764839999727,None,363.08783540001605,None,right,0.7025977000012062,363.08783540001605,None,,,,,,,,,,,,,,,,,,,,,,,PPT22,001,2022-07-01_12h27.38.741,ABstudy,2022.1.4,59.965519821846875,
AB,Lag5_T1P_T2A,5,P,A,7,12,6,5,17,shoulder,Did you see the shoulder?,0.12,0.016,JPG\,battery02b,sunglasses04,pear01,tennisball01b,clock01a,speaker04,shoulder,spoon01,alligator,pineapple01a,avocado01,grape01,blueberry01,violin,strawberry,sock01a,blankImage,shoulder,,,,,,,,,,,,0,16,16,224,,,,,,,,,,,,,,,,,,,,,,,,,,,,,,,,,,,363.82417390000774,364.8395860999881,364.8062181000132,365.3860152999987,365.3860152999987,None,367.3874746999936,None,left,0.6278375000110827,367.3874746999936,None,368.0572258000029,None,right,0.2701486000150908,368.0572258000029,None,,,,,,,,,,,,,,,,,,,,,,,PPT22,001,2022-07-01_12h27.38.741,ABstudy,2022.1.4,59.965519821846875,
AB,Lag5_T1P_T2P,5,P,P,6,11,5,4,15,sword,Did you see the sword?,0.12,0.016,JPG\,8ball,banana01,scissors01,pig,shirt02,broadsword,pear01,sponge01,fork03c,tableknife02,stapler06,match,toothbrush03b,birthdaycandle,candle01,blankImage,blankImage,broadsword,,,,,,,,,,,,0,17,17,167,,,,,,,,,,,,,,,,,,,,,,,,,,,,,,,,,,,368.41835729999,369.4277160000056,369.4109834000119,370.00119569999515,370.00119569999515,None,371.74317110000993,None,left,0.6487435000017285,371.74317110000993,None,372.4167499000032,None,right,0.17409909999696538,372.4167499000032,None,,,,,,,,,,,,,,,,,,,,,,,PPT22,001,2022-07-01_12h27.38.741,ABstudy,2022.1.4,59.965519821846875,
AB,Lag1_T1A_T2P,1,A,P,5,6,4,3,9,chimney,Did you see the chimney?,0.12,0.016,JPG\,cucumber,sponge01,alligator,pear01,ashtray01,stapler06,clock04,battery02b,fork03c,blankImage,blankImage,blankImage,blankImage,blankImage,blankImage,blankImage,blankImage,trophy01,,,,,,,,,,,,0,18,18,246,,,,,,,,,,,,,,,,,,,,,,,,,,,,,,,,,,,372.61442239998723,373.6151733000006,373.59846850001486,374.19088219999685,374.19088219999685,None,375.3111160999979,None,right,7.367653400026029,375.3111160999979,None,382.7077006000036,None,right,0.5396262999856845,382.7077006000036,None,,,,,,,,,,,,,,,,,,,,,,,PPT22,001,2022-07-01_12h27.38.741,ABstudy,2022.1.4,59.965519821846875,
AB,Lag1_T1P_T2A,1,P,A,5,6,4,4,10,paper airplane,Did you see the paper airplane?,0.12,0.016,JPG\,thermometer02b,avocado01,scissors01,tennisball01b,paperairplane,banana01,strawberry,cigarette,potato02b,pineapple01a,blankImage,blankImage,blankImage,blankImage,blankImage,blankImage,blankImage,paperairplane,,,,,,,,,,,,0,19,19,191,,,,,,,,,,,,,,,,,,,,,,,,,,,,,,,,,,,383.2771486999991,384.29265019999,384.259118499991,384.8607180000108,384.8607180000108,None,386.1031161000137,None,left,0.6401840000180528,386.1031161000137,None,386.7642707999912,None,right,0.7945043999934569,386.7642707999912,None,,,,,,,,,,,,,,,,,,,,,,,PPT22,001,2022-07-01_12h27.38.741,ABstudy,2022.1.4,59.965519821846875,
AB,Lag1_T1P_T2P,1,P,P,7,8,6,4,12,Dog House,Did you see the Dog House?,0.12,0.016,JPG\,pineapple01a,leaf02a,grape01,toiletpaper01a,match,tennisball01b,doghouse,stapler03b,pig,measuringcup01,ring01,lemon02,blankImage,blankImage,blankImage,blankImage,blankImage,doghouse,,,,,,,,,,,,0,20,20,44,,,,,,,,,,,,,,,,,,,,,,,,,,,,,,,,,,,387.59545600001,388.59694230000605,388.5800956999883,389.1604243000038,389.1604243000038,None,390.61786420000135,None,left,0.557395899988478,390.61786420000135,None,391.1991790999891,None,right,0.632267300010426,391.1991790999891,None,,,,,,,,,,,,,,,,,,,,,,,PPT22,001,2022-07-01_12h27.38.741,ABstudy,2022.1.4,59.965519821846875,
AB,Lag5_T1P_T2A,5,P,A,5,10,4,3,13,martini glass,Did you see the martini glass?,0.12,0.016,JPG\,brick,eraser,cucumber,ashtray01,martiniglass01b,binoculars01b,lipstick02a,screwdriver04b,grape01,brownsugar,battery02b,iron01b,dice05a,blankImage,blankImage,blankImage,blankImage,martiniglass01b,,,,,,,,,,,,0,21,21,217,,,,,,,,,,,,,,,,,,,,,,,,,,,,,,,,,,,391.85499490000075,392.8682384999993,392.8527188000153,393.47536010001204,393.47536010001204,None,395.02778060000855,None,left,0.6186812999949325,395.02778060000855,None,395.6709178999881,None,right,0.27981440001167357,395.6709178999881,None,,,,,,,,,,,,,,,,,,,,,,,PPT22,001,2022-07-01_12h27.38.741,ABstudy,2022.1.4,59.965519821846875,
AB,Lag1_T1P_T2A,1,P,A,7,8,6,3,11,Snowshoe,Did you see the Snowshoe?,0.12,0.016,JPG\,birthdaycandle,mushroom01,strawberry,match,cherry01,eraser,snowshoe,thermometer02b,sock01a,ring01,feather03a,blankImage,blankImage,blankImage,blankImage,blankImage,blankImage,snowshoe,,,,,,,,,,,,0,22,22,194,,,,,,,,,,,,,,,,,,,,,,,,,,,,,,,,,,,395.97710730001563,396.9884248999879,396.9717823000101,397.4719461000059,397.4719461000059,None,398.87121059998753,None,right,1.064794100006111,398.87121059998753,None,399.95901709998725,None,right,0.2875734999834094,399.95901709998725,None,,,,,,,,,,,,,,,,,,,,,,,PPT22,001,2022-07-01_12h27.38.741,ABstudy,2022.1.4,59.965519821846875,
AB,Lag1_T1A_T2P,1,A,P,6,7,5,3,10,curtain,Did you see the curtain?,0.12,0.016,JPG\,carrot01,greenolive,fork03c,chain01,ashtray01,watermelon01,stapler06,printer02,comb02a,toaster01,blankImage,blankImage,blankImage,blankImage,blankImage,blankImage,blankImage,birdhouse,,,,,,,,,,,,0,23,23,249,,,,,,,,,,,,,,,,,,,,,,,,,,,,,,,,,,,400.2812026999891,401.29280850000214,401.27626079999027,401.86184389999835,401.86184389999835,None,403.1177069999976,None,right,5.866121700004442,403.1177069999976,None,409.01458449999336,None,right,0.208244499983266,409.01458449999336,None,,,,,,,,,,,,,,,,,,,,,,,PPT22,001,2022-07-01_12h27.38.741,ABstudy,2022.1.4,59.965519821846875,
AB,Lag1_T1P_T2P,1,P,P,8,9,7,3,12,cactus,Did you see the cactus?,0.12,0.016,JPG\,tennisball01b,paintbrush01,medal02b,apple07,speaker04,iron01b,avocado01,cactus,stapler03b,toiletpaper01a,watermelon01,candle01,blankImage,blankImage,blankImage,blankImage,blankImage,cactus,,,,,,,,,,,,0,24,24,58,,,,,,,,,,,,,,,,,,,,,,,,,,,,,,,,,,,409.25737330000266,410.2681229999871,410.2513966000115,410.8431611999986,410.8431611999986,None,412.3352084000071,None,left,5.800157299992861,412.3352084000071,None,418.15977940001176,None,right,0.2713318000023719,418.15977940001176,None,,,,,,,,,,,,,,,,,,,,,,,PPT22,001,2022-07-01_12h27.38.741,ABstudy,2022.1.4,59.965519821846875,
AB,Lag5_T1P_T2P,5,P,P,7,12,6,3,15,Eye patch,Did you see the Eye patch?,0.12,0.016,JPG\,candle01,paintbrush01,scissors01,fan,microscope,toothbrush03b,eyepatch,watermelon01,teabag,pencil01,lemon02,stapler05,shirt02,cauliflower01,cd,blankImage,blankImage,eyepatch,,,,,,,,,,,,0,25,25,108,,,,,,,,,,,,,,,,,,,,,,,,,,,,,,,,,,,418.46897499999614,419.4774818000151,419.4607649999962,420.03722980001476,420.03722980001476,None,421.8551097000018,None,left,0.5751812999951653,421.8551097000018,None,422.4482615000161,None,right,0.2864689999842085,422.4482615000161,None,,,,,,,,,,,,,,,,,,,,,,,PPT22,001,2022-07-01_12h27.38.741,ABstudy,2022.1.4,59.965519821846875,
AB,Lag1_T1P_T2P,1,P,P,7,8,6,3,11,Daddy Long Legs,Did you see the Daddy Long Legs?,0.12,0.016,JPG\,lighter01,hammer01,spoon01,chain01,cymbal,sponge01,daddylonglegs,stapler03b,pig,watermelon01,cauliflower01,blankImage,blankImage,blankImage,blankImage,blankImage,blankImage,daddylonglegs,,,,,,,,,,,,0,26,26,86,,,,,,,,,,,,,,,,,,,,,,,,,,,,,,,,,,,422.81061889999546,423.81513319999794,423.79839979999815,424.3881953000091,424.3881953000091,None,425.67923430001247,None,right,0.9272242999868467,425.67923430001247,None,426.63440660000197,None,right,1.6759410999948159,426.63440660000197,None,,,,,,,,,,,,,,,,,,,,,,,PPT22,001,2022-07-01_12h27.38.741,ABstudy,2022.1.4,59.965519821846875,
AB,Lag5_T1A_T2P,5,A,P,7,12,6,4,16,hand,Did you see the hand?,0.12,0.016,JPG\,celery,tennisball01b,calculator01,pear01,screw02,orange,button01,cellphone,onion,apple07,iron01b,stapler05,banana01,paintbrush01,dandelion,toothbrush03b,blankImage,bull,,,,,,,,,,,,0,27,27,281,,,,,,,,,,,,,,,,,,,,,,,,,,,,,,,,,,,428.3383460000041,429.3537881000084,429.3203771999979,429.8956397000002,429.8956397000002,None,431.8993945000111,None,right,0.9718089000089094,431.8993945000111,None,432.89201139999204,None,right,0.9387110999959987,432.89201139999204,None,,,,,,,,,,,,,,,,,,,,,,,PPT22,001,2022-07-01_12h27.38.741,ABstudy,2022.1.4,59.965519821846875,
AB,Lag5_T1P_T2P,5,P,P,8,13,7,4,17,butterfly,Did you see the butterfly?,0.12,0.016,JPG\,speaker04,sewingmachine01a,eraser,violin,globe,belt02a,sunglasses04,butterfly,cd,greenolive,alligator,pear01,stapler01,screwdriver04b,banana01,cigarette,blankImage,butterfly,,,,,,,,,,,,0,28,28,126,,,,,,,,,,,,,,,,,,,,,,,,,,,,,,,,,,,433.8603688000003,434.87579369999,434.842458900006,435.4462268000061,435.4462268000061,None,437.3529816000082,None,left,0.5974502000026405,437.3529816000082,None,437.9790531999897,None,right,0.22720370002207346,437.9790531999897,None,,,,,,,,,,,,,,,,,,,,,,,PPT22,001,2022-07-01_12h27.38.741,ABstudy,2022.1.4,59.965519821846875,
AB,Lag5_T1P_T2P,5,P,P,8,13,7,4,17,cruise ship,Did you see the cruise ship?,0.12,0.016,JPG\,measuringcup01,dice05a,greenolive,lipstick02a,feather03a,balloon01b,lighter01,cruiseship,carrot01,plate01b,microscope,brick,stapler05,screw02,speaker04,spoon01,blankImage,cruiseship,,,,,,,,,,,,0,29,29,105,,,,,,,,,,,,,,,,,,,,,,,,,,,,,,,,,,,438.23423570001614,439.247014499997,439.2303491999919,439.82166760001564,439.82166760001564,None,441.71590099998866,None,left,6.874426800000947,441.71590099998866,None,448.62295150000136,None,right,1.5760979000187945,448.62295150000136,None,,,,,,,,,,,,,,,,,,,,,,,PPT22,001,2022-07-01_12h27.38.741,ABstudy,2022.1.4,59.965519821846875,
AB,Lag1_T1P_T2P,1,P,P,7,8,6,3,11,trampoline,Did you see the trampoline?,0.12,0.016,JPG\,dice05a,watch02a,pig,lighter01,button01,strawberry,trampoline,stapler03a,plate01b,pen04b,feather03a,blankImage,blankImage,blankImage,blankImage,blankImage,blankImage,trampoline,,,,,,,,,,,,0,30,30,73,,,,,,,,,,,,,,,,,,,,,,,,,,,,,,,,,,,450.22879439999815,451.2423388999887,451.2255531999981,451.8039187999966,451.8039187999966,None,453.15781979999156,None,right,1.6812724999908824,453.15781979999156,None,454.87696769999457,None,right,0.729223300004378,454.87696769999457,None,,,,,,,,,,,,,,,,,,,,,,,PPT22,001,2022-07-01_12h27.38.741,ABstudy,2022.1.4,59.965519821846875,
AB,Lag1_T1P_T2P,1,P,P,5,6,4,4,10,skateboard,Did you see the skateboard?,0.12,0.016,JPG\,binoculars01b,cymbal,pizza,candy,skateboard,stapler05,grape01,thermometer02b,speaker04,lemon02,blankImage,blankImage,blankImage,blankImage,blankImage,blankImage,blankImage,skateboard,,,,,,,,,,,,0,31,31,25,,,,,,,,,,,,,,,,,,,,,,,,,,,,,,,,,,,455.63252750001266,456.64773359999526,456.6143793000083,457.2355801000085,457.2355801000085,None,458.4520943000098,None,right,1.5465274000016507,458.4520943000098,None,460.01807160000317,None,right,2.101359299995238,460.01807160000317,None,,,,,,,,,,,,,,,,,,,,,,,PPT22,001,2022-07-01_12h27.38.741,ABstudy,2022.1.4,59.965519821846875,
AB,Lag5_T1P_T2P,5,P,P,7,12,6,4,16,window,Did you see the window?,0.12,0.016,JPG\,cigarette,pig,banana01,strawberry,clock01a,plate01b,dormer,blueberry01,battery02b,pineapple01a,chain01,stapler01,candy,pen04b,teabag,birthdaycandle,blankImage,dormer,,,,,,,,,,,,0,32,32,170,,,,,,,,,,,,,,,,,,,,,,,,,,,,,,,,,,,462.1408344999945,463.15445709999767,463.1377371000126,463.7087637000077,463.7087637000077,None,465.57589360000566,None,left,0.44774750000215136,465.57589360000566,None,466.0405724000011,None,right,0.26992850002716295,466.0405724000011,None,,,,,,,,,,,,,,,,,,,,,,,PPT22,001,2022-07-01_12h27.38.741,ABstudy,2022.1.4,59.965519821846875,
AB,Lag5_T1P_T2P,5,P,P,5,10,4,3,13,Rabbit,Did you see the Rabbit?,0.12,0.016,JPG\,celery,tennisball01b,calculator01,pear01,jackrabbit,orange,button01,cellphone,onion,stapler06,iron01b,brownsugar,banana01,blankImage,blankImage,blankImage,blankImage,jackrabbit,,,,,,,,,,,,0,33,33,90,,,,,,,,,,,,,,,,,,,,,,,,,,,,,,,,,,,466.37713259999873,467.39212340000086,467.3757864999934,467.9393695000035,467.9393695000035,None,469.5085281000065,None,left,0.5060079999966547,469.5085281000065,None,470.04430030001095,None,right,0.15447450001374818,470.04430030001095,None,,,,,,,,,,,,,,,,,,,,,,,PPT22,001,2022-07-01_12h27.38.741,ABstudy,2022.1.4,59.965519821846875,
AB,Lag5_T1P_T2A,5,P,A,5,10,4,3,13,fan,Did you see the fan?,0.12,0.016,JPG\,scissors01,grape01,mushroom01,toiletpaper01a,fanheater,pizza,cigarette,ashtray01,carrot01,pineapple01a,foosballtable,lipstick02a,teabag,blankImage,blankImage,blankImage,blankImage,fanheater,,,,,,,,,,,,0,34,34,220,,,,,,,,,,,,,,,,,,,,,,,,,,,,,,,,,,,470.23561470001005,471.2457843000011,471.22896750000655,471.8154991999909,471.8154991999909,None,473.4432760000054,None,left,1.6112763000128325,473.4432760000054,None,475.08263399999123,None,right,0.8126842000056058,475.08263399999123,None,,,,,,,,,,,,,,,,,,,,,,,PPT22,001,2022-07-01_12h27.38.741,ABstudy,2022.1.4,59.965519821846875,
AB,Lag1_T1P_T2P,1,P,P,7,8,6,3,11,tree,Did you see the tree?,0.12,0.016,JPG\,pear01,clock01a,cymbal,match,ashtray01,globe,tree,stapler03b,lemon02,pen04b,dice05a,blankImage,blankImage,blankImage,blankImage,blankImage,blankImage,tree,,,,,,,,,,,,0,35,35,51,,,,,,,,,,,,,,,,,,,,,,,,,,,,,,,,,,,475.9190934000071,476.93453249998856,476.90117910000845,477.48111520000384,477.48111520000384,None,478.8113825999899,None,left,0.7798356000275817,478.8113825999899,None,479.6206029999885,None,right,0.3856612000090536,479.6206029999885,None,,,,,,,,,,,,,,,,,,,,,,,PPT22,001,2022-07-01_12h27.38.741,ABstudy,2022.1.4,59.965519821846875,
AB,Lag1_T1P_T2P,1,P,P,6,7,5,4,11,Bow,Did you see the Bow?,0.12,0.016,JPG\,broom01,plate01b,scissors01,garlic01a,paintbrush01,bow,stapler03a,shirt02,speaker04,celery,sandal,blankImage,blankImage,blankImage,blankImage,blankImage,blankImage,bow,,,,,,,,,,,,0,36,36,53,,,,,,,,,,,,,,,,,,,,,,,,,,,,,,,,,,,480.0464961999969,481.0552497000026,481.03858190000756,481.60620259999996,481.60620259999996,None,483.0545291999879,None,left,4.832455099996878,483.0545291999879,None,487.91248339999584,None,left,0.5740482999826781,487.91248339999584,None,,,,,,,,,,,,,,,,,,,,,,,PPT22,001,2022-07-01_12h27.38.741,ABstudy,2022.1.4,59.965519821846875,
AB,Lag1_T1A_T2P,1,A,P,7,8,6,3,11,lion,Did you see the lion?,0.12,0.016,JPG\,sock01a,spoon01,alligator,comb02a,printer02,medal02b,lamp04a,stapler01,greenolive,computerkeyboard02,cauliflower01,blankImage,blankImage,blankImage,blankImage,blankImage,blankImage,bullet,,,,,,,,,,,,0,37,37,229,,,,,,,,,,,,,,,,,,,,,,,,,,,,,,,,,,,488.51516280000214,489.5307681999984,489.4973805999907,490.0918454999919,490.0918454999919,None,491.4241841000039,None,right,1.3899584999890067,491.4241841000039,None,492.8336646000098,None,right,0.5334590999991633,492.8336646000098,None,,,,,,,,,,,,,,,,,,,,,,,PPT22,001,2022-07-01_12h27.38.741,ABstudy,2022.1.4,59.965519821846875,
AB,Lag1_T1A_T2A,1,A,A,8,9,7,3,12,punching bag,Did you see the punching bag?,0.12,0.016,JPG\,key01,apple07,ring01,leaf02a,hammer01,tableknife02,violin,sponge01,baseball01a,thermometer02b,celery,calculator01,blankImage,blankImage,blankImage,blankImage,blankImage,bathtub,,,,,,,,,,,,0,38,38,291,,,,,,,,,,,,,,,,,,,,,,,,,,,,,,,,,,,493.3881740999932,494.4019935000106,494.385288999998,494.9686781000055,494.9686781000055,None,496.5230647000135,None,right,7.89944700000342,496.5230647000135,None,504.44567310001,None,right,0.40977609998662956,504.44567310001,None,,,,,,,,,,,,,,,,,,,,,,,PPT22,001,2022-07-01_12h27.38.741,ABstudy,2022.1.4,59.965519821846875,
AB,Lag5_T1P_T2A,5,P,A,6,11,5,4,15,Spear,Did you see the Spear?,0.12,0.016,JPG\,belt02a,measuringcup01,spoon01,chain01,greenolive,spear02,computerkeyboard02,onion,fan,strawberry,candle01,broom01,binoculars01b,ashtray01,pingpongpaddle01c,blankImage,blankImage,spear02,,,,,,,,,,,,0,39,39,227,,,,,,,,,,,,,,,,,,,,,,,,,,,,,,,,,,,504.883685400011,505.89691499999026,505.8801344000094,506.46256549999816,506.46256549999816,None,508.3248428000079,None,right,5.217990300006932,508.3248428000079,None,513.5724195000075,None,right,0.7542689999972936,513.5724195000075,None,,,,,,,,,,,,,,,,,,,,,,,PPT22,001,2022-07-01_12h27.38.741,ABstudy,2022.1.4,59.965519821846875,
AB,Lag1_T1P_T2P,1,P,P,8,9,7,4,13,Hula hoop,Did you see the Hula hoop?,0.12,0.016,JPG\,brownsugar,candle01,match,printer02,broom01,balloon01b,belt02a,hulahoop,stapler04b,feather03a,rice,mushroom01,pencil01,blankImage,blankImage,blankImage,blankImage,hulahoop,,,,,,,,,,,,0,40,40,64,,,,,,,,,,,,,,,,,,,,,,,,,,,,,,,,,,,514.3618447000044,515.3735046999936,515.3580354000151,515.889957300009,515.8698221000086,None,517.510113700002,None,right,8.656238399998983,517.510113700002,None,526.1838017000118,None,right,0.43911540001863614,526.1838017000118,None,,,,,,,,,,,,,,,,,,,,,,,PPT22,001,2022-07-01_12h27.38.741,ABstudy,2022.1.4,59.965519821846875,
AB,Lag5_T1P_T2A,5,P,A,7,12,6,3,15,Toy soldier,Did you see the Toy soldier?,0.12,0.016,JPG\,binoculars01b,cymbal,pizza,candy,paintbrush01,sponge01,toysoldier01b,thermometer02b,speaker04,lemon02,lipstick02a,strawberry,candle01,acorn,plate01b,blankImage,blankImage,toysoldier01b,,,,,,,,,,,,0,41,41,203,,,,,,,,,,,,,,,,,,,,,,,,,,,,,,,,,,,526.6612318000116,527.6689168000012,527.6531605999917,528.252662599989,528.252662599989,None,530.0529791000008,None,left,0.6500898000085726,530.0529791000008,None,530.7244737000146,None,right,0.7145011999818962,530.7244737000146,None,,,,,,,,,,,,,,,,,,,,,,,PPT22,001,2022-07-01_12h27.38.741,ABstudy,2022.1.4,59.965519821846875,
AB,Lag5_T1P_T2P,5,P,P,7,12,6,5,17,statue,Did you see the statue?,0.12,0.016,JPG\,pear01,clock01a,cymbal,match,ashtray01,globe,statue,button01,lemon02,pen04b,dice05a,stapler06,toothbrush03b,screwdriver04b,feather03a,key01,blankImage,statue,,,,,,,,,,,,0,42,42,100,,,,,,,,,,,,,,,,,,,,,,,,,,,,,,,,,,,531.4663388000045,532.4729591000068,532.4562840000144,533.0366707000067,533.0366707000067,None,535.0055920000013,None,left,0.5929350999940652,535.0055920000013,None,535.628483700013,None,right,0.18548019998706877,535.628483700013,None,,,,,,,,,,,,,,,,,,,,,,,PPT22,001,2022-07-01_12h27.38.741,ABstudy,2022.1.4,59.965519821846875,
AB,Lag1_T1P_T2P,1,P,P,6,7,5,3,10,elephant,Did you see the elephant?,0.12,0.016,JPG\,clock01a,grape01,plate01b,key01,screwdriver04b,africanelephant,stapler03b,iron01b,toothbrush03b,comb02a,blankImage,blankImage,blankImage,blankImage,blankImage,blankImage,blankImage,africanelephant,,,,,,,,,,,,0,43,43,31,,,,,,,,,,,,,,,,,,,,,,,,,,,,,,,,,,,535.8497064000112,536.8610200000112,536.8444414999976,537.4174128000159,537.4174128000159,None,538.6551158000075,None,left,0.6707324000017252,538.6551158000075,None,539.3470081000123,None,left,0.30705229999148287,539.3470081000123,None,,,,,,,,,,,,,,,,,,,,,,,PPT22,001,2022-07-01_12h27.38.741,ABstudy,2022.1.4,59.965519821846875,
AB,Lag5_T1P_T2P,5,P,P,7,12,6,3,15,mail box,Did you see the mail box?,0.12,0.016,JPG\,key01,apple07,ring01,leaf02a,hammer01,tableknife02,postalmailbox01,sponge01,baseball01a,thermometer02b,celery,stapler06,grape01,cucumber,tennisball01b,blankImage,blankImage,postalmailbox01,,,,,,,,,,,,0,44,44,113,,,,,,,,,,,,,,,,,,,,,,,,,,,,,,,,,,,539.735533900006,540.7480081999965,540.7313272999891,541.3064024999912,541.3064024999912,None,543.0765329000133,None,left,0.33752929998445325,543.0765329000133,None,543.434460599994,None,left,0.16353390002041124,543.434460599994,None,,,,,,,,,,,,,,,,,,,,,,,PPT22,001,2022-07-01_12h27.38.741,ABstudy,2022.1.4,59.965519821846875,
AB,Lag1_T1P_T2A,1,P,A,7,8,6,3,11,Armadillo,Did you see the Armadillo?,0.12,0.016,JPG\,clock01a,cellphone,toaster01,toothbrush03b,cauliflower01,microscope,armadillo,paintbrush01,scarf,clock04,sponge01,blankImage,blankImage,blankImage,blankImage,blankImage,blankImage,armadillo,,,,,,,,,,,,0,45,45,180,,,,,,,,,,,,,,,,,,,,,,,,,,,,,,,,,,,543.6221008000139,544.6353901000111,544.6021513000014,545.1918231000018,545.1918231000018,None,546.6246691000124,None,right,1.222010199999204,546.6246691000124,None,547.8721499000094,None,right,0.6778709999925923,547.8721499000094,None,,,,,,,,,,,,,,,,,,,,,,,PPT22,001,2022-07-01_12h27.38.741,ABstudy,2022.1.4,59.965519821846875,
AB,Lag5_T1P_T2P,5,P,P,5,10,4,5,15,Eye,Did you see the Eye?,0.12,0.016,JPG\,apple07,toiletpaper01a,pizza,dandelion,eye,eraser,microscope,violin,orange,stapler01,balloon01b,sandal,lighter01,fan,book01b,blankImage,blankImage,eye,,,,,,,,,,,,0,46,46,171,,,,,,,,,,,,,,,,,,,,,,,,,,,,,,,,,,,548.5777020000096,549.5903269000119,549.573679699999,550.1748075000069,550.1748075000069,None,551.9638796999934,None,left,0.3947030999988783,551.9638796999934,None,552.3762873999949,None,left,0.17433879998861812,552.3762873999949,None,,,,,,,,,,,,,,,,,,,,,,,PPT22,001,2022-07-01_12h27.38.741,ABstudy,2022.1.4,59.965519821846875,
AB,Lag1_T1P_T2A,1,P,A,6,7,5,5,12,Barn,Did you see the Barn?,0.12,0.016,JPG\,celery,pencil01,fan,foosballtable,iron01b,barn,potato02b,fork03c,button01,pineapple01a,baseball01a,printer02,blankImage,blankImage,blankImage,blankImage,blankImage,barn,,,,,,,,,,,,0,47,47,181,,,,,,,,,,,,,,,,,,,,,,,,,,,,,,,,,,,552.579609700013,553.5943784000119,553.560984700016,554.1416389000078,554.1416389000078,None,555.6102091000066,None,right,4.500663299986627,555.6102091000066,None,560.1344010999892,None,right,0.1516567000071518,560.1344010999892,None,,,,,,,,,,,,,,,,,,,,,,,PPT22,001,2022-07-01_12h27.38.741,ABstudy,2022.1.4,59.965519821846875,
AB,Lag1_T1P_T2A,1,P,A,8,9,7,5,14,Ceiling fan,Did you see the Ceiling fan?,0.12,0.016,JPG\,cucumber,sponge01,alligator,pear01,ashtray01,hammer01,clock04,ceilingfan01,fork03c,binoculars01b,mushroom01,broccoli01a,leaf02a,acorn,blankImage,blankImage,blankImage,ceilingfan01,,,,,,,,,,,,0,48,48,183,,,,,,,,,,,,,,,,,,,,,,,,,,,,,,,,,,,560.3294952000142,561.3350259000144,561.3182973999938,561.8882554000011,561.8882554000011,None,563.526064900012,None,left,10.504449300002307,563.526064900012,None,574.0478767000022,None,right,0.26263230000040494,574.0478767000022,None,,,,,,,,,,,,,,,,,,,,,,,PPT22,001,2022-07-01_12h27.38.741,ABstudy,2022.1.4,59.965519821846875,
AB,Lag5_T1A_T2P,5,A,P,7,12,6,4,16,scooter,Did you see the scooter?,0.12,0.016,JPG\,cigarette,pig,banana01,strawberry,clock01a,plate01b,spoon01,blueberry01,battery02b,pineapple01a,chain01,stapler05,candy,pen04b,teabag,birthdaycandle,blankImage,1nose,,,,,,,,,,,,0,49,49,268,,,,,,,,,,,,,,,,,,,,,,,,,,,,,,,,,,,574.3876973000006,575.3997754000011,575.3841083000007,576.0166619000083,575.9995921000082,None,577.7685468000127,None,right,1.4290670999907888,577.7685468000127,None,579.2196130999946,None,left,0.8270312999957241,579.2196130999946,None,,,,,,,,,,,,,,,,,,,,,,,PPT22,001,2022-07-01_12h27.38.741,ABstudy,2022.1.4,59.965519821846875,
AB,Lag1_T1P_T2A,1,P,A,7,8,6,3,11,fish,Did you see the fish?,0.12,0.016,JPG\,rice,watermelon01,tableknife02,scarf,computerkeyboard02,cauliflower01,salmon,binoculars01b,book01b,sandal,sponge01,blankImage,blankImage,blankImage,blankImage,blankImage,blankImage,salmon,,,,,,,,,,,,0,50,50,179,,,,,,,,,,,,,,,,,,,,,,,,,,,,,,,,,,,580.0727492000151,581.0881603000162,581.0548217000032,581.649937500013,581.649937500013,None,583.047416299989,None,left,1.190870199992787,583.047416299989,None,584.2594105000026,None,right,0.36395170001196675,584.2594105000026,None,,,,,,,,,,,,,,,,,,,,,,,PPT22,001,2022-07-01_12h27.38.741,ABstudy,2022.1.4,59.965519821846875,
AB,Lag1_T1A_T2A,1,A,A,5,6,4,3,9,Pigeon,Did you see the Pigeon?,0.12,0.016,JPG\,candle01,paintbrush01,scissors01,fan,microscope,toothbrush03b,candle08b,watermelon01,teabag,blankImage,blankImage,blankImage,blankImage,blankImage,blankImage,blankImage,blankImage,floorlamp,,,,,,,,,,,,0,51,51,286,,,,,,,,,,,,,,,,,,,,,,,,,,,,,,,,,,,584.7104133999965,585.710467500001,585.6936093000113,586.1934419999889,586.2976622999995,None,587.3069894000073,None,right,7.690563400014071,587.3069894000073,None,595.018693799997,None,right,0.7153945000027306,595.018693799997,None,,,,,,,,,,,,,,,,,,,,,,,PPT22,001,2022-07-01_12h27.38.741,ABstudy,2022.1.4,59.965519821846875,
AB,Lag5_T1P_T2P,5,P,P,8,13,7,3,16,shrimp,Did you see the shrimp?,0.12,0.016,JPG\,globe,belt02a,sponge01,violin,fork03c,tomato01,clock01a,cocktailshrimp02,balloon01b,scarf,teabag,pen04b,stapler03a,brownsugar,speaker04,screwdriver04b,blankImage,cocktailshrimp02,,,,,,,,,,,,0,52,52,169,,,,,,,,,,,,,,,,,,,,,,,,,,,,,,,,,,,595.755046700011,596.7704333000001,596.7370975000085,597.3293774999911,597.3293774999911,None,599.2837656000047,None,right,5.897869900014484,599.2837656000047,None,605.2121633999923,None,right,0.17742249998264015,605.2121633999923,None,,,,,,,,,,,,,,,,,,,,,,,PPT22,001,2022-07-01_12h27.38.741,ABstudy,2022.1.4,59.965519821846875,
AB,Lag5_T1P_T2P,5,P,P,8,13,7,3,16,banjo,Did you see the banjo?,0.12,0.016,JPG\,celery,brownsugar,key01,sunglasses04,leaf02a,toothbrush03b,dice05a,banjo,scarf,globe,paintbrush01,scissors01,stapler03a,battery02b,feather03a,cymbal,blankImage,banjo,,,,,,,,,,,,0,53,53,102,,,,,,,,,,,,,,,,,,,,,,,,,,,,,,,,,,,605.4179743000132,606.4300355000014,606.4133798000112,606.9931945000135,606.9931945000135,None,608.8498238000029,None,right,4.707702700019581,608.8498238000029,None,613.5871657000098,None,right,0.2031585999939125,613.5871657000098,None,,,,,,,,,,,,,,,,,,,,,,,PPT22,001,2022-07-01_12h27.38.741,ABstudy,2022.1.4,59.965519821846875,
AB,Lag5_T1P_T2P,5,P,P,5,10,4,5,15,Bee,Did you see the Bee?,0.12,0.016,JPG\,fork03c,dandelion,dice05a,belt02a,honeybee,watch02a,key01,globe,eraser,stapler03a,greenolive,shirt02,candle08b,cigarette,garlic01a,blankImage,blankImage,honeybee,,,,,,,,,,,,0,54,54,149,,,,,,,,,,,,,,,,,,,,,,,,,,,,,,,,,,,613.8230618000089,614.8385168999957,614.8051445999881,615.4127448000072,615.4127448000072,None,617.2413767999969,None,left,0.4680476999783423,617.2413767999969,None,617.7256122000108,None,left,0.16067650000331923,617.7256122000108,None,,,,,,,,,,,,,,,,,,,,,,,PPT22,001,2022-07-01_12h27.38.741,ABstudy,2022.1.4,59.965519821846875,
AB,Lag1_T1P_T2A,1,P,A,6,7,5,5,12,foot,Did you see the foot?,0.12,0.016,JPG\,watermelon01,cigarette,weight04a,cymbal,cauliflower01,foot,cherry01,broom01,battery02b,key01,baseball01a,iron01b,blankImage,blankImage,blankImage,blankImage,blankImage,foot,,,,,,,,,,,,0,55,55,188,,,,,,,,,,,,,,,,,,,,,,,,,,,,,,,,,,,617.9114247999969,618.9261005000153,618.8925739999977,619.4865952999971,619.4865952999971,None,620.9507961999916,None,left,0.7747525000013411,620.9507961999916,None,621.7455791000102,None,right,0.25993269999162294,621.7455791000102,None,,,,,,,,,,,,,,,,,,,,,,,PPT22,001,2022-07-01_12h27.38.741,ABstudy,2022.1.4,59.965519821846875,
AB,Lag5_T1A_T2A,5,A,A,6,11,5,3,14,mirror,Did you see the mirror?,0.12,0.016,JPG\,foosballtable,candy,envelope03a,microscope,pencil01,leaf02a,scissors01,watermelon01,grape01,dandelion,pineapple01a,hammer01,celery,thermometer02b,blankImage,blankImage,blankImage,shower,,,,,,,,,,,,0,56,56,305,,,,,,,,,,,,,,,,,,,,,,,,,,,,,,,,,,,622.0820434000052,623.0968148999964,623.0801129000029,623.5828138999932,623.5828138999932,None,625.3363243000058,None,right,1.1093906000023708,625.3363243000058,None,626.467301800003,None,right,0.37837829999625683,626.467301800003,None,,,,,,,,,,,,,,,,,,,,,,,PPT22,001,2022-07-01_12h27.38.741,ABstudy,2022.1.4,59.965519821846875,
AB,Lag1_T1P_T2P,1,P,P,8,9,7,4,13,Bird House,Did you see the Bird House?,0.12,0.016,JPG\,toiletpaper01a,mushroom01,medal02b,sandal,rice,cd,feather03a,birdhouse,stapler01,garlic01a,toaster01,belt02a,cigarette,blankImage,blankImage,blankImage,blankImage,birdhouse,,,,,,,,,,,,0,57,57,77,,,,,,,,,,,,,,,,,,,,,,,,,,,,,,,,,,,626.8746358999924,627.885148500005,627.8684859999921,628.4636248000024,628.4636248000024,None,630.0913741000113,None,left,0.6266127999988385,630.0913741000113,None,630.7391948000004,None,right,0.2914685999858193,630.7391948000004,None,,,,,,,,,,,,,,,,,,,,,,,PPT22,001,2022-07-01_12h27.38.741,ABstudy,2022.1.4,59.965519821846875,
AB,Lag5_T1P_T2P,5,P,P,8,13,7,5,18,pipe,Did you see the pipe?,0.12,0.016,JPG\,scissors01,ashtray01,garlic01a,medal02b,cigarette,candle08b,leaf02a,smokingpipe,cucumber,rice,toiletpaper01a,greenolive,stapler01,cellphone,tableknife02,spoon01,blankImage,smokingpipe,,,,,,,,,,,,0,58,58,138,,,,,,,,,,,,,,,,,,,,,,,,,,,,,,,,,,,631.0606054000091,632.072267999989,632.0555798000132,632.6283148000075,632.6283148000075,None,634.541840299993,None,left,0.42434359999606386,634.541840299993,None,634.9918480000051,None,left,0.44599059998290613,634.9918480000051,None,,,,,,,,,,,,,,,,,,,,,,,PPT22,001,2022-07-01_12h27.38.741,ABstudy,2022.1.4,59.965519821846875,
AB,Lag1_T1P_T2P,1,P,P,5,6,4,3,9,mail box,Did you see the mail box?,0.12,0.016,JPG\,watermelon01,banana01,ring01,pencil01,mailbox02,stapler04b,cucumber,thermometer02b,key01,blankImage,blankImage,blankImage,blankImage,blankImage,blankImage,blankImage,blankImage,mailbox02,,,,,,,,,,,,0,59,59,21,,,,,,,,,,,,,,,,,,,,,,,,,,,,,,,,,,,635.4634662999888,636.4766817000054,636.4600106000144,637.0482305999903,637.0482305999903,None,638.1630937999871,None,left,0.6509965999866836,638.1630937999871,None,638.8454750000092,None,right,0.1280558000144083,638.8454750000092,None,,,,,,,,,,,,,,,,,,,,,,,PPT22,001,2022-07-01_12h27.38.741,ABstudy,2022.1.4,59.965519821846875,
AB,Lag1_T1P_T2P,1,P,P,8,9,7,5,14,helicopter,Did you see the helicopter?,0.12,0.016,JPG\,broom01,globe,cellphone,tableknife02,cauliflower01,scissors01,ring01,helicopter,stapler01,toaster01,cigarette,grape01,microscope,cucumber,blankImage,blankImage,blankImage,helicopter,,,,,,,,,,,,0,60,60,85,,,,,,,,,,,,,,,,,,,,,,,,,,,,,,,,,,,638.99918720001,640.0135287999874,639.9800853999914,640.5524653999892,640.5524653999892,None,642.2428654000105,None,left,2.3073599000053946,642.2428654000105,None,644.5681089000136,None,left,1.1903419999871403,644.5681089000136,None,,,,,,,,,,,,,,,,,,,,,,,PPT22,001,2022-07-01_12h27.38.741,ABstudy,2022.1.4,59.965519821846875,
AB,Lag5_T1P_T2P,5,P,P,7,12,6,5,17,Pigeon,Did you see the Pigeon?,0.12,0.016,JPG\,strawberry,leaf02a,clock04,candle01,avocado01,paintbrush01,pigeon,brownsugar,ring01,lemon02,fork03c,stapler01,cauliflower01,tableknife02,tennisball01b,thermometer02b,blankImage,pigeon,,,,,,,,,,,,0,61,61,151,,,,,,,,,,,,,,,,,,,,,,,,,,,,,,,,,,,645.7885161000013,646.8036434999958,646.7702653000015,647.3528375999886,647.3528375999886,None,649.2783447999973,None,left,4.3118421000253875,649.2783447999973,None,653.6103886000055,None,left,0.2999251000001095,653.6103886000055,None,,,,,,,,,,,,,,,,,,,,,,,PPT22,001,2022-07-01_12h27.38.741,ABstudy,2022.1.4,59.965519821846875,
AB,Lag1_T1P_T2P,1,P,P,7,8,6,5,13,disco ball,Did you see the disco ball?,0.12,0.016,JPG\,candle01,paintbrush01,scissors01,fan,microscope,toothbrush03b,discoball,stapler03b,teabag,pencil01,lemon02,ashtray01,shirt02,blankImage,blankImage,blankImage,blankImage,discoball,,,,,,,,,,,,0,62,62,60,,,,,,,,,,,,,,,,,,,,,,,,,,,,,,,,,,,653.9300056000066,654.9450714999984,654.9116676000122,655.4820636000077,655.4820636000077,None,657.0814720999915,None,left,0.9882814000011422,657.0814720999915,None,658.0986895000096,None,right,0.32321899998351,658.0986895000096,None,,,,,,,,,,,,,,,,,,,,,,,PPT22,001,2022-07-01_12h27.38.741,ABstudy,2022.1.4,59.965519821846875,
AB,Lag1_T1A_T2P,1,A,P,8,9,7,4,13,Rabbit,Did you see the Rabbit?,0.12,0.016,JPG\,lamp04a,broccoli01a,alligator,garlic01a,dandelion,brownsugar,avocado01,ring01,stapler06,cellphone,medal02b,cd,calculator01,blankImage,blankImage,blankImage,blankImage,escalator,,,,,,,,,,,,0,63,63,254,,,,,,,,,,,,,,,,,,,,,,,,,,,,,,,,,,,658.4544550999999,659.4664007000101,659.4496677000134,660.0654223999882,660.0654223999882,None,661.6452529999951,None,right,1.2652242000040133,661.6452529999951,None,662.9365808000148,None,left,0.28507600000011735,662.9365808000148,None,,,,,,,,,,,,,,,,,,,,,,,PPT22,001,2022-07-01_12h27.38.741,ABstudy,2022.1.4,59.965519821846875,
AB,Lag1_T1P_T2P,1,P,P,7,8,6,3,11,swing,Did you see the swing?,0.12,0.016,JPG\,sewingmachine01a,thermometer02b,sponge01,eraser,broccoli01a,fork03c,swing,stapler03b,belt02a,medal02b,pineapple01a,blankImage,blankImage,blankImage,blankImage,blankImage,blankImage,swing,,,,,,,,,,,,0,64,64,30,,,,,,,,,,,,,,,,,,,,,,,,,,,,,,,,,,,663.2548705000081,664.254597799998,664.2380548999936,664.8885013000108,664.8885013000108,None,666.1487632000062,None,right,5.272719700005837,666.1487632000062,None,671.4447844999959,None,right,0.3453936000005342,671.4447844999959,None,,,,,,,,,,,,,,,,,,,,,,,PPT22,001,2022-07-01_12h27.38.741,ABstudy,2022.1.4,59.965519821846875,
AB,Lag5_T1P_T2A,5,P,A,7,12,6,3,15,helmet,Did you see the helmet?,0.12,0.016,JPG\,fork03c,belt02a,grape01,computerkeyboard02,lemon02,printer02,skihelmet01,toiletpaper01a,toaster01,lipstick02a,book01b,blueberry01,spoon01,apple07,avocado01,blankImage,blankImage,skihelmet01,,,,,,,,,,,,0,65,65,225,,,,,,,,,,,,,,,,,,,,,,,,,,,,,,,,,,,671.8145019999938,672.8296981999883,672.7962915000098,673.3979804000119,673.3979804000119,None,675.2403150000027,None,left,4.453494999994291,675.2403150000027,None,679.720793799992,None,left,0.38871369999833405,679.720793799992,None,,,,,,,,,,,,,,,,,,,,,,,PPT22,001,2022-07-01_12h27.38.741,ABstudy,2022.1.4,59.965519821846875,
AB,Lag5_T1A_T2P,5,A,P,5,10,4,5,15,parachute,Did you see the parachute?,0.12,0.016,JPG\,binoculars01b,speaker04,sandal,envelope03a,plate01b,comb02a,battery02b,chain01,measuringcup01,stapler03b,medal02b,lamp04a,tennisball01b,pizza,cigarette,blankImage,blankImage,knee,,,,,,,,,,,,0,66,66,264,,,,,,,,,,,,,,,,,,,,,,,,,,,,,,,,,,,680.1439292000141,681.1550540000026,681.1380754999991,681.7339002999943,681.7339002999943,None,683.5749872000015,None,right,7.950586700026179,683.5749872000015,None,691.5485654000076,None,right,0.24131809998652898,691.5485654000076,None,,,,,,,,,,,,,,,,,,,,,,,PPT22,001,2022-07-01_12h27.38.741,ABstudy,2022.1.4,59.965519821846875,
AB,Lag1_T1P_T2P,1,P,P,7,8,6,4,12,trophy,Did you see the trophy?,0.12,0.016,JPG\,cherry01,cymbal,envelope03a,foosballtable,shirt02,cellphone,trophy01,stapler04b,battery02b,apple07,pencil01,screwdriver04b,blankImage,blankImage,blankImage,blankImage,blankImage,trophy01,,,,,,,,,,,,0,67,67,74,,,,,,,,,,,,,,,,,,,,,,,,,,,,,,,,,,,691.8216469000035,692.8331633000053,692.816353000002,693.3840723999892,693.3840723999892,None,694.8149582000042,None,left,6.262699199985946,694.8149582000042,None,701.1076957999903,None,left,0.2429965000192169,701.1076957999903,None,,,,,,,,,,,,,,,,,,,,,,,PPT22,001,2022-07-01_12h27.38.741,ABstudy,2022.1.4,59.965519821846875,
AB,Lag5_T1A_T2P,5,A,P,5,10,4,4,14,Chefs hat,Did you see the Chefs hat?,0.12,0.016,JPG\,candle01,fork03c,plate01b,violin,computerkeyboard02,candy,calculator01,paintbrush01,cherry01,stapler06,teabag,banana01,cd,lighter01,blankImage,blankImage,blankImage,horseshoe,,,,,,,,,,,,0,68,68,278,,,,,,,,,,,,,,,,,,,,,,,,,,,,,,,,,,,701.3777999999875,702.3766123999958,702.3611767000111,703.0575318000047,702.9801625999971,None,704.7020660999988,None,right,1.0714322000276297,704.7020660999988,None,705.7956837000092,None,left,0.3057228999969084,705.7956837000092,None,,,,,,,,,,,,,,,,,,,,,,,PPT22,001,2022-07-01_12h27.38.741,ABstudy,2022.1.4,59.965519821846875,
AB,Lag5_T1P_T2P,5,P,P,8,13,7,5,18,bed,Did you see the bed?,0.12,0.016,JPG\,pencil01,broccoli01a,button01,sponge01,watermelon01,lipstick02a,comb02a,bed,lighter01,sock01a,spoon01,blueberry01,stapler04b,onion,grape01,avocado01,blankImage,bed,,,,,,,,,,,,0,69,69,124,,,,,,,,,,,,,,,,,,,,,,,,,,,,,,,,,,,706.1314895999967,707.1470140999882,707.1136097999988,707.6808537000034,707.6808537000034,None,709.6355634999927,None,left,0.48211800001445226,709.6355634999927,None,710.150346600014,None,left,0.15126169999712147,710.150346600014,None,,,,,,,,,,,,,,,,,,,,,,,PPT22,001,2022-07-01_12h27.38.741,ABstudy,2022.1.4,59.965519821846875,
AB,Lag1_T1P_T2P,1,P,P,5,6,4,3,9,Escalator,Did you see the Escalator?,0.12,0.016,JPG\,celery,pencil01,fan,foosballtable,escalator,stapler05,potato02b,fork03c,button01,blankImage,blankImage,blankImage,blankImage,blankImage,blankImage,blankImage,blankImage,escalator,,,,,,,,,,,,0,70,70,82,,,,,,,,,,,,,,,,,,,,,,,,,,,,,,,,,,,710.3387824000092,711.351416999998,711.3346878000011,711.9218963999883,711.9218963999883,None,712.983000200009,None,left,1.5983997999865096,712.983000200009,None,714.6050595999986,None,left,0.2812007000029553,714.6050595999986,None,,,,,,,,,,,,,,,,,,,,,,,PPT22,001,2022-07-01_12h27.38.741,ABstudy,2022.1.4,59.965519821846875,
AB,Lag5_T1A_T2P,5,A,P,7,12,6,3,15,hockey puck,Did you see the hockey puck?,0.12,0.016,JPG\,toiletpaper01a,lipstick02a,potato02b,speaker04,globe,strawberry,carrot01,plate01b,sock01a,candle08b,pen04b,stapler04b,foosballtable,brick,pear01,blankImage,blankImage,frisbee,,,,,,,,,,,,0,71,71,260,,,,,,,,,,,,,,,,,,,,,,,,,,,,,,,,,,,714.9549082999874,715.9559897000145,715.939278100006,716.5371142000076,716.5371142000076,None,718.3357752999873,None,left,7.973734500003047,718.3357752999873,None,726.3326105999877,None,left,1.777574400010053,726.3326105999877,None,,,,,,,,,,,,,,,,,,,,,,,PPT22,001,2022-07-01_12h27.38.741,ABstudy,2022.1.4,59.965519821846875,
AB,Lag1_T1P_T2P,1,P,P,7,8,6,5,13,horse,Did you see the horse?,0.12,0.016,JPG\,watermelon01,pencil01,microscope,blueberry01,computerkeyboard02,lamp04a,horse,stapler03b,sock01a,key01,binoculars01b,cauliflower01,ashtray01,blankImage,blankImage,blankImage,blankImage,horse,,,,,,,,,,,,0,72,72,3,,,,,,,,,,,,,,,,,,,,,,,,,,,,,,,,,,,728.144450199994,729.1529415000114,729.1373558999912,729.741724499996,729.741724499996,None,731.3349466999935,None,left,0.751159799983725,731.3349466999935,None,732.1051630000002,None,left,1.1167535000131465,732.1051630000002,None,,,,,,,,,,,,,,,,,,,,,,,PPT22,001,2022-07-01_12h27.38.741,ABstudy,2022.1.4,59.965519821846875,
AB,Lag5_T1P_T2A,5,P,A,8,13,7,3,16,Shelves,Did you see the Shelves?,0.12,0.016,JPG\,pineapple01a,leaf02a,grape01,toiletpaper01a,match,tennisball01b,spoon01,shelves,pig,measuringcup01,ring01,lemon02,dice05a,pizza,potato02b,eraser,blankImage,shelves,,,,,,,,,,,,0,73,73,222,,,,,,,,,,,,,,,,,,,,,,,,,,,,,,,,,,,733.2431301999895,734.2415554999898,734.226133499993,734.9142239000066,734.8380402000039,None,736.7808726000076,None,right,1.0733209000027273,736.7808726000076,None,737.8918504999892,None,right,0.5054950999910943,737.8918504999892,None,,,,,,,,,,,,,,,,,,,,,,,PPT22,001,2022-07-01_12h27.38.741,ABstudy,2022.1.4,59.965519821846875,
AB,Lag5_T1P_T2A,5,P,A,7,12,6,4,16,Bear,Did you see the Bear?,0.12,0.016,JPG\,comb02a,key01,medal02b,battery02b,lighter01,microscope,grizzly,sandal,pig,cellphone,computerkeyboard02,calculator01,cymbal,clock04,cucumber,avocado01,blankImage,grizzly,,,,,,,,,,,,0,74,74,213,,,,,,,,,,,,,,,,,,,,,,,,,,,,,,,,,,,738.4393117,739.4463633999985,739.4291229000082,740.0058999999892,740.0058999999892,None,741.924037299992,None,right,2.065148900001077,741.924037299992,None,744.0182805999939,None,right,0.35491659998660907,744.0182805999939,None,,,,,,,,,,,,,,,,,,,,,,,PPT22,001,2022-07-01_12h27.38.741,ABstudy,2022.1.4,59.965519821846875,
AB,Lag5_T1P_T2P,5,P,P,6,11,5,4,15,shovel,Did you see the shovel?,0.12,0.016,JPG\,carrot01,watch02a,clock04,microscope,toiletpaper01a,shovel01,alligator,ring01,brick,watermelon01,stapler03b,pencil01,measuringcup01,balloon01b,computerkeyboard02,blankImage,blankImage,shovel01,,,,,,,,,,,,0,75,75,139,,,,,,,,,,,,,,,,,,,,,,,,,,,,,,,,,,,744.4067121999979,745.4187835000048,745.4020822999883,746.0218358999991,746.0218358999991,None,747.780803600006,None,right,5.9847612000012305,747.780803600006,None,753.7938395999954,None,right,0.41286750001017936,753.7938395999954,None,,,,,,,,,,,,,,,,,,,,,,,PPT22,001,2022-07-01_12h27.38.741,ABstudy,2022.1.4,59.965519821846875,
AB,Lag5_T1P_T2P,5,P,P,6,11,5,5,16,table,Did you see the table?,0.12,0.016,JPG\,birthdaycandle,mushroom01,strawberry,match,cherry01,table01,hammer01,thermometer02b,sock01a,ring01,stapler06,banana01,toiletpaper01a,key01,sponge01,teabag,blankImage,table01,,,,,,,,,,,,0,76,76,144,,,,,,,,,,,,,,,,,,,,,,,,,,,,,,,,,,,754.2310527999944,755.2451405999891,755.228328600002,755.7317971999873,755.7150886000018,None,757.733214500011,None,left,0.47296000001369976,757.733214500011,None,758.2311255999957,None,left,0.2061917000100948,758.2311255999957,None,,,,,,,,,,,,,,,,,,,,,,,PPT22,001,2022-07-01_12h27.38.741,ABstudy,2022.1.4,59.965519821846875,
AB,Lag5_T1P_T2A,5,P,A,5,10,4,3,13,Totem Pole,Did you see the Totem Pole?,0.12,0.016,JPG\,canoftennisballs,banana01,scissors01,pig,totempole,leaf02a,pear01,sponge01,fork03c,tableknife02,balloon01b,match,toothbrush03b,blankImage,blankImage,blankImage,blankImage,totempole,,,,,,,,,,,,0,77,77,202,,,,,,,,,,,,,,,,,,,,,,,,,,,,,,,,,,,758.468168899999,759.4824319999898,759.4657529999968,760.100987599988,760.0272729000135,None,761.7378390000085,None,right,9.283913599996595,761.7378390000085,None,771.0443261000037,None,right,0.5687578000070062,771.0443261000037,None,,,,,,,,,,,,,,,,,,,,,,,PPT22,001,2022-07-01_12h27.38.741,ABstudy,2022.1.4,59.965519821846875,
AB,Lag1_T1P_T2P,1,P,P,7,8,6,4,12,Christmas Tree,Did you see the Christmas Tree?,0.12,0.016,JPG\,sandal,fan,printer02,cellphone,mushroom01,candle08b,firtree,stapler03a,lamp04a,hammer01,teabag,aceofdiamond,blankImage,blankImage,blankImage,blankImage,blankImage,firtree,,,,,,,,,,,,0,78,78,6,,,,,,,,,,,,,,,,,,,,,,,,,,,,,,,,,,,771.6473299000063,772.6625275000115,772.6292185999919,773.212518299988,773.212518299988,None,774.7413491999905,None,left,0.7686538000125438,774.7413491999905,None,775.5331202000089,None,right,0.48872690001735464,775.5331202000089,None,,,,,,,,,,,,,,,,,,,,,,,PPT22,001,2022-07-01_12h27.38.741,ABstudy,2022.1.4,59.965519821846875,
AB,Lag5_T1A_T2P,5,A,P,5,10,4,5,15,shower,Did you see the shower?,0.12,0.016,JPG\,sewingmachine01a,thermometer02b,sponge01,eraser,broccoli01a,fork03c,pizza,violin,belt02a,stapler04b,pineapple01a,tennisball01b,dandelion,cauliflower01,lemon02,blankImage,blankImage,redfox,,,,,,,,,,,,0,79,79,271,,,,,,,,,,,,,,,,,,,,,,,,,,,,,,,,,,,776.0540717999975,777.0670126999903,777.0499348000158,777.626679900015,777.626679900015,None,779.4879751999979,None,right,2.2216602999833412,779.4879751999979,None,781.7384976999892,None,right,0.6033569000137504,781.7384976999892,None,,,,,,,,,,,,,,,,,,,,,,,PPT22,001,2022-07-01_12h27.38.741,ABstudy,2022.1.4,59.965519821846875,
AB,Lag5_T1P_T2A,5,P,A,8,13,7,4,17,Tarantula,Did you see the Tarantula?,0.12,0.016,JPG\,binoculars01b,speaker04,sandal,envelope03a,plate01b,comb02a,battery02b,tarantula,measuringcup01,key01,medal02b,lamp04a,tennisball01b,pizza,cigarette,sunglasses04,blankImage,tarantula,,,,,,,,,,,,0,80,80,201,,,,,,,,,,,,,,,,,,,,,,,,,,,,,,,,,,,782.3754379999882,783.3900042999885,783.3731743000099,783.9518865999999,783.9518865999999,None,785.8654515999951,None,left,7.837045399995986,785.8654515999951,None,793.7332571000152,None,right,0.20838090000324883,793.7332571000152,None,,,,,,,,,,,,,,,,,,,,,,,PPT22,001,2022-07-01_12h27.38.741,ABstudy,2022.1.4,59.965519821846875,
AB,Lag1_T1P_T2P,1,P,P,8,9,7,5,14,bullet,Did you see the bullet?,0.12,0.016,JPG\,measuringcup01,dice05a,greenolive,lipstick02a,feather03a,balloon01b,lighter01,bullet,stapler04b,plate01b,microscope,brick,thermometer02b,screw02,blankImage,blankImage,blankImage,bullet,,,,,,,,,,,,0,81,81,57,,,,,,,,,,,,,,,,,,,,,,,,,,,,,,,,,,,793.9690158999874,794.9844249000016,794.9510945999937,795.5345712999988,795.5345712999988,None,797.2909995999944,None,left,0.7068945000064559,797.2909995999944,None,798.021230000013,None,right,0.3526015999959782,798.021230000013,None,,,,,,,,,,,,,,,,,,,,,,,PPT22,001,2022-07-01_12h27.38.741,ABstudy,2022.1.4,59.965519821846875,
AB,Lag1_T1P_T2P,1,P,P,6,7,5,5,12,owl,Did you see the owl?,0.12,0.016,JPG\,paintbrush01,eraser,medal02b,hammer01,speaker04,greathornowl,stapler01,comb02a,plate01b,clock01a,button01,globe,blankImage,blankImage,blankImage,blankImage,blankImage,greathornowl,,,,,,,,,,,,0,82,82,1,,,,,,,,,,,,,,,,,,,,,,,,,,,,,,,,,,,798.407656299998,799.4222397000121,799.3888280999963,799.9653601000027,799.9653601000027,None,801.4459841999924,None,left,5.01517800000147,801.4459841999924,None,806.4796227999905,None,left,0.5334416000114288,806.4796227999905,None,,,,,,,,,,,,,,,,,,,,,,,PPT22,001,2022-07-01_12h27.38.741,ABstudy,2022.1.4,59.965519821846875,
AB,Lag5_T1A_T2P,5,A,P,7,12,6,4,16,flower,Did you see the flower?,0.12,0.016,JPG\,printer02,envelope03a,potato02b,calculator01,tableknife02,cigarette,ashtray01,pig,broom01,greenolive,candle08b,stapler03a,strawberry,candle01,foosballtable,tennisball01b,blankImage,calendar,,,,,,,,,,,,0,83,83,282,,,,,,,,,,,,,,,,,,,,,,,,,,,,,,,,,,,807.0339602000022,808.0477581000014,808.0311344999936,808.6119173000043,808.6119173000043,None,810.6520877000003,None,right,0.7931949000048917,810.6520877000003,None,811.4687827999878,None,right,2.3924587999936193,811.4687827999878,None,,,,,,,,,,,,,,,,,,,,,,,PPT22,001,2022-07-01_12h27.38.741,ABstudy,2022.1.4,59.965519821846875,
AB,Lag1_T1A_T2A,1,A,A,8,9,7,4,13,Recycling bin,Did you see the Recycling bin?,0.12,0.016,JPG\,brick,plate01b,pen04b,toaster01,screwdriver04b,candle01,envelope03a,feather03a,pig,ring01,orange,clock01a,lighter01,blankImage,blankImage,blankImage,blankImage,bumpercar,,,,,,,,,,,,0,84,84,292,,,,,,,,,,,,,,,,,,,,,,,,,,,,,,,,,,,813.8950982000097,814.9047247999988,814.8879822999879,815.4746715000074,815.4746715000074,None,817.0286748000071,None,right,0.8645819000084884,817.0286748000071,None,817.9383447,None,left,1.2272511000046507,817.9383447,None,,,,,,,,,,,,,,,,,,,,,,,PPT22,001,2022-07-01_12h27.38.741,ABstudy,2022.1.4,59.965519821846875,
AB,Lag1_T1P_T2P,1,P,P,6,7,5,3,10,jelly beans,Did you see the jelly beans?,0.12,0.016,JPG\,lipstick02a,cucumber,candle08b,printer02,grape01,jellybean,stapler01,lighter01,belt02a,balloon01b,blankImage,blankImage,blankImage,blankImage,blankImage,blankImage,blankImage,jellybean,,,,,,,,,,,,0,85,85,15,,,,,,,,,,,,,,,,,,,,,,,,,,,,,,,,,,,819.2054190000053,820.2093507999962,820.1760100999963,820.7483899999934,820.7483899999934,None,822.0435563999927,None,left,0.8177312999905553,822.0435563999927,None,822.878870799992,None,left,0.23041360001661815,822.878870799992,None,,,,,,,,,,,,,,,,,,,,,,,PPT22,001,2022-07-01_12h27.38.741,ABstudy,2022.1.4,59.965519821846875,
AB,Lag1_T1P_T2P,1,P,P,5,6,4,5,11,squirrel,Did you see the squirrel?,0.12,0.016,JPG\,pencil01,orange,clock01a,sponge01,squirrel,stapler05,lipstick02a,strawberry,book01b,mushroom01,envelope03a,blankImage,blankImage,blankImage,blankImage,blankImage,blankImage,squirrel,,,,,,,,,,,,0,86,86,5,,,,,,,,,,,,,,,,,,,,,,,,,,,,,,,,,,,823.1368767000095,824.1468331000069,824.1301969999913,824.7256507000129,824.7256507000129,None,826.0540461000055,None,right,1.3112006000010297,826.0540461000055,None,827.3845053999976,None,left,0.4858208000077866,827.3845053999976,None,,,,,,,,,,,,,,,,,,,,,,,PPT22,001,2022-07-01_12h27.38.741,ABstudy,2022.1.4,59.965519821846875,
AB,Lag1_T1P_T2P,1,P,P,8,9,7,4,13,peacock,Did you see the peacock?,0.12,0.016,JPG\,hammer01,sponge01,toaster01,cherry01,feather03a,mushroom01,measuringcup01,peacock,stapler03a,brick,clock04,medal02b,teabag,blankImage,blankImage,blankImage,blankImage,peacock,,,,,,,,,,,,0,87,87,68,,,,,,,,,,,,,,,,,,,,,,,,,,,,,,,,,,,827.9067398000043,828.9189001999912,828.9036898000049,829.5523400999955,829.4838421999884,None,831.0307882000052,None,left,5.6552602000010666,831.0307882000052,None,836.7101198000018,None,right,0.9914357000088785,836.7101198000018,None,,,,,,,,,,,,,,,,,,,,,,,PPT22,001,2022-07-01_12h27.38.741,ABstudy,2022.1.4,59.965519821846875,
AB,Lag5_T1A_T2A,5,A,A,7,12,6,4,16,Eye,Did you see the Eye?,0.12,0.016,JPG\,rice,watermelon01,tableknife02,scarf,computerkeyboard02,cauliflower01,battery02b,binoculars01b,book01b,sandal,sponge01,microscope,tomato01,fork03c,thermometer02b,apple07,blankImage,scooter,,,,,,,,,,,,0,88,88,302,,,,,,,,,,,,,,,,,,,,,,,,,,,,,,,,,,,837.7312734000152,838.7453259000031,838.7284834999882,839.4036296000122,839.3271183999896,None,841.236851099995,None,right,1.0565733999828808,841.236851099995,None,842.3152414000069,None,right,0.17822800000431016,842.3152414000069,None,,,,,,,,,,,,,,,,,,,,,,,PPT22,001,2022-07-01_12h27.38.741,ABstudy,2022.1.4,59.965519821846875,
AB,Lag1_T1P_T2P,1,P,P,5,6,4,3,9,camel,Did you see the camel?,0.12,0.016,JPG\,iron01b,brick,broccoli01a,balloon01b,dromedary,stapler05,sandal,teabag,scissors01,blankImage,blankImage,blankImage,blankImage,blankImage,blankImage,blankImage,blankImage,dromedary,,,,,,,,,,,,0,89,89,11,,,,,,,,,,,,,,,,,,,,,,,,,,,,,,,,,,,842.5202329999884,843.532818000007,843.5161191000079,844.096357900009,844.096357900009,None,845.1908448000031,None,left,4.853986000001896,845.1908448000031,None,850.0730410999968,None,left,0.38003940001362935,850.0730410999968,None,,,,,,,,,,,,,,,,,,,,,,,PPT22,001,2022-07-01_12h27.38.741,ABstudy,2022.1.4,59.965519821846875,
AB,Lag1_T1P_T2P,1,P,P,5,6,4,5,11,Basketball,Did you see the Basketball?,0.12,0.016,JPG\,pencil01,microscope,banana01,computerkeyboard02,basketball01,stapler04b,scissors01,sock01a,book01b,onion,dice05a,blankImage,blankImage,blankImage,blankImage,blankImage,blankImage,basketball01,,,,,,,,,,,,0,90,90,34,,,,,,,,,,,,,,,,,,,,,,,,,,,,,,,,,,,850.4784923999978,851.491002499999,851.474524099991,852.0872204999905,852.0872204999905,None,853.3807406999986,None,left,0.4487999000120908,853.3807406999986,None,853.8598657000111,None,left,0.1376977000036277,853.8598657000111,None,,,,,,,,,,,,,,,,,,,,,,,PPT22,001,2022-07-01_12h27.38.741,ABstudy,2022.1.4,59.965519821846875,
AB,Lag1_T1A_T2P,1,A,P,8,9,7,5,14,Wolf,Did you see the Wolf?,0.12,0.016,JPG\,carrot01,watch02a,clock04,microscope,toiletpaper01a,potato02b,alligator,ring01,stapler03b,watermelon01,cd,pencil01,measuringcup01,balloon01b,blankImage,blankImage,blankImage,dreamcatcher,,,,,,,,,,,,0,91,91,253,,,,,,,,,,,,,,,,,,,,,,,,,,,,,,,,,,,854.0323599000112,855.0448871999979,855.0295496000035,855.6130006999883,855.6130006999883,None,857.3194033000036,None,right,0.8212601999985054,857.3194033000036,None,858.1638237000152,None,right,0.24169850000180304,858.1638237000152,None,,,,,,,,,,,,,,,,,,,,,,,PPT22,001,2022-07-01_12h27.38.741,ABstudy,2022.1.4,59.965519821846875,
AB,Lag5_T1P_T2A,5,P,A,8,13,7,5,18,telescope,Did you see the telescope?,0.12,0.016,JPG\,globe,broccoli01a,binoculars01b,iron01b,avocado01,dandelion,pineapple01a,handheldtelescope,fan,pizza,celery,blueberry01,sewingmachine01a,dice05a,watermelon01,candy,blankImage,handheldtelescope,,,,,,,,,,,,0,92,92,228,,,,,,,,,,,,,,,,,,,,,,,,,,,,,,,,,,,858.433019899996,859.4484103000141,859.4150891999889,860.0023265999916,860.0023265999916,None,861.9213159999927,None,left,1.7399636000045575,861.9213159999927,None,863.6865518999984,None,right,0.6782759000197984,863.6865518999984,None,,,,,,,,,,,,,,,,,,,,,,,PPT22,001,2022-07-01_12h27.38.741,ABstudy,2022.1.4,59.965519821846875,
AB,Lag5_T1A_T2P,5,A,P,5,10,4,5,15,Eye patch,Did you see the Eye patch?,0.12,0.016,JPG\,scissors01,balloon01b,eraser,feather03a,banana01,candle01,measuringcup01,calculator01,thermometer02b,stapler03b,pear01,carrot01,globe,baseball01a,leaf02a,blankImage,blankImage,cross01,,,,,,,,,,,,0,93,93,258,,,,,,,,,,,,,,,,,,,,,,,,,,,,,,,,,,,864.4555789000005,865.4548253999965,865.4548253999965,866.0314490000019,866.0314490000019,None,867.8410177000042,None,right,1.7171811999869533,867.8410177000042,None,869.5758157999953,None,left,0.39720710000256076,869.5758157999953,None,,,,,,,,,,,,,,,,,,,,,,,PPT22,001,2022-07-01_12h27.38.741,ABstudy,2022.1.4,59.965519821846875,
AB,Lag1_T1P_T2P,1,P,P,8,9,7,3,12,apron,Did you see the apron?,0.12,0.016,JPG\,avocado01,tambourine02,match,cauliflower01,paintbrush01,clock01a,pig,apron,stapler03a,cellphone,watch02a,pear01,blankImage,blankImage,blankImage,blankImage,blankImage,apron,,,,,,,,,,,,0,94,94,32,,,,,,,,,,,,,,,,,,,,,,,,,,,,,,,,,,,869.9973786000046,871.0103566999896,870.9936052999983,871.6817343000148,871.6817343000148,None,873.0835230000084,None,left,4.5940353000187315,873.0835230000084,None,877.7001580999931,None,right,0.45733850001124665,877.7001580999931,None,,,,,,,,,,,,,,,,,,,,,,,PPT22,001,2022-07-01_12h27.38.741,ABstudy,2022.1.4,59.965519821846875,
AB,Lag5_T1A_T2P,5,A,P,6,11,5,3,14,Kiwi,Did you see the Kiwi?,0.12,0.016,JPG\,paintbrush01,dice05a,watermelon01,broccoli01a,hammer01,leaf02a,match,tennisball01b,lemon02,fan,stapler06,grape01,envelope03a,sponge01,blankImage,blankImage,blankImage,granolabar01,,,,,,,,,,,,0,95,95,261,,,,,,,,,,,,,,,,,,,,,,,,,,,,,,,,,,,878.1899303999962,879.2016524999926,879.1850314000039,879.7642180999974,879.7642180999974,None,881.4933958000038,None,right,6.335915700008627,881.4933958000038,None,887.8602887000015,None,right,0.8409587000205647,887.8602887000015,None,,,,,,,,,,,,,,,,,,,,,,,PPT22,001,2022-07-01_12h27.38.741,ABstudy,2022.1.4,59.965519821846875,
AB,Lag5_T1A_T2P,5,A,P,6,11,5,4,15,fish,Did you see the fish?,0.12,0.016,JPG\,pingpongpaddle01c,banana01,scissors01,pig,shirt02,leaf02a,pear01,sponge01,fork03c,tableknife02,stapler03a,match,toothbrush03b,birthdaycandle,candle01,blankImage,blankImage,lighthouse,,,,,,,,,,,,0,96,96,265,,,,,,,,,,,,,,,,,,,,,,,,,,,,,,,,,,,888.7299717999995,889.7294812999899,889.7139703000139,890.358490899991,890.2850865999935,None,892.1121036999975,None,right,1.036731400003191,892.1121036999975,None,893.1659614999953,None,right,1.3590952999948058,893.1659614999953,None,,,,,,,,,,,,,,,,,,,,,,,PPT22,001,2022-07-01_12h27.38.741,ABstudy,2022.1.4,59.965519821846875,
AB,Lag1_T1P_T2P,1,P,P,8,9,7,3,12,Wheelchair,Did you see the Wheelchair?,0.12,0.016,JPG\,cigarette,pig,banana01,strawberry,clock01a,plate01b,spoon01,wheelchair,stapler03b,pineapple01a,chain01,paintbrush01,blankImage,blankImage,blankImage,blankImage,blankImage,wheelchair,,,,,,,,,,,,0,97,97,27,,,,,,,,,,,,,,,,,,,,,,,,,,,,,,,,,,,894.5570191000006,895.5684021000052,895.5513803999929,896.1507306999993,896.1507306999993,None,897.6031494000053,None,left,0.5944285000150558,897.6031494000053,None,898.2210654999944,None,right,0.4794543000170961,898.2210654999944,None,,,,,,,,,,,,,,,,,,,,,,,PPT22,001,2022-07-01_12h27.38.741,ABstudy,2022.1.4,59.965519821846875,
AB,Lag5_T1A_T2A,5,A,A,5,10,4,5,15,truck,Did you see the truck?,0.12,0.016,JPG\,pizza,printer02,medal02b,spoon01,grape01,lighter01,belt02a,watermelon01,celery,battery02b,screw02,comb02a,cauliflower01,lipstick02a,potato02b,blankImage,blankImage,postalmailbox01,,,,,,,,,,,,0,98,98,297,,,,,,,,,,,,,,,,,,,,,,,,,,,,,,,,,,,898.7251005000144,899.7389205000072,899.7221071000095,900.3159448000079,900.3159448000079,None,902.1417215999973,None,right,0.7989026000141166,902.1417215999973,None,902.9590117000043,None,right,1.0455463000107557,902.9590117000043,None,,,,,,,,,,,,,,,,,,,,,,,PPT22,001,2022-07-01_12h27.38.741,ABstudy,2022.1.4,59.965519821846875,
AB,Lag1_T1P_T2P,1,P,P,8,9,7,4,13,ladder,Did you see the ladder?,0.12,0.016,JPG\,cigarette,fork03c,greenolive,broccoli01a,avocado01,tennisball01b,balloon01b,ladder,stapler03b,fan,clock01a,strawberry,envelope03a,blankImage,blankImage,blankImage,blankImage,ladder,,,,,,,,,,,,0,99,99,45,,,,,,,,,,,,,,,,,,,,,,,,,,,,,,,,,,,904.0301830999961,905.0442495000025,905.0274267999921,905.6137342000147,905.6137342000147,None,907.2249587000115,None,right,2.5638232000055723,907.2249587000115,None,909.8182983000006,None,left,0.23429910000413656,909.8182983000006,None,,,,,,,,,,,,,,,,,,,,,,,PPT22,001,2022-07-01_12h27.38.741,ABstudy,2022.1.4,59.965519821846875,
AB,Lag5_T1P_T2P,5,P,P,6,11,5,4,15,saxophone,Did you see the saxophone?,0.12,0.016,JPG\,pizza,strawberry,potato02b,speaker04,battery02b,saxophone,dice05a,cellphone,globe,banana01,stapler03b,baseball01a,toaster01,broom01,ring01,blankImage,blankImage,saxophone,,,,,,,,,,,,0,100,100,117,,,,,,,,,,,,,,,,,,,,,,,,,,,,,,,,,,,910.0959876000124,911.1000930999871,911.0833785000141,911.6694982000045,911.6694982000045,None,913.4996956000105,None,left,1.432785299984971,913.4996956000105,None,914.9544799000141,None,left,0.6662801999773365,914.9544799000141,None,,,,,,,,,,,,,,,,,,,,,,,PPT22,001,2022-07-01_12h27.38.741,ABstudy,2022.1.4,59.965519821846875,
AB,Lag5_T1P_T2P,5,P,P,6,11,5,3,14,ladder,Did you see the ladder?,0.12,0.016,JPG\,celery,orange,scissors01,balloon01b,avocado01,stepladder,mushroom01,sewingmachine01a,lighter01,dice05a,stapler01,fan,cd,sock01a,blankImage,blankImage,blankImage,stepladder,,,,,,,,,,,,0,101,101,119,,,,,,,,,,,,,,,,,,,,,,,,,,,,,,,,,,,915.6423821999924,916.6557619000087,916.6391237000062,917.2229173000087,917.2229173000087,None,918.9004481000011,None,left,4.8644605000154115,918.9004481000011,None,923.7963298000104,None,right,0.4402907000039704,923.7963298000104,None,,,,,,,,,,,,,,,,,,,,,,,PPT22,001,2022-07-01_12h27.38.741,ABstudy,2022.1.4,59.965519821846875,
AB,Lag5_T1A_T2P,5,A,P,8,13,7,5,18,fish,Did you see the fish?,0.12,0.016,JPG\,scissors01,grape01,mushroom01,toiletpaper01a,greenolive,pizza,cigarette,ashtray01,carrot01,pineapple01a,foosballtable,lipstick02a,stapler04b,tambourine02,potato02b,violin,blankImage,chimney,,,,,,,,,,,,0,102,102,283,,,,,,,,,,,,,,,,,,,,,,,,,,,,,,,,,,,924.2641510000103,925.2637134999968,925.2477418000053,925.8003430000099,925.8003430000099,None,927.9016573000117,None,right,0.7589739999966696,927.9016573000117,None,928.6842869000102,None,right,0.9361510000017006,928.6842869000102,None,,,,,,,,,,,,,,,,,,,,,,,PPT22,001,2022-07-01_12h27.38.741,ABstudy,2022.1.4,59.965519821846875,
AB,Lag5_T1P_T2P,5,P,P,6,11,5,5,16,Car,Did you see the Car?,0.12,0.016,JPG\,leaf02a,apple07,cd,pineapple01a,envelope03a,car,pig,canoftennisballs,rice,feather03a,stapler03a,balloon01b,avocado01,calculator01,watermelon01,teabag,blankImage,car,,,,,,,,,,,,0,103,103,127,,,,,,,,,,,,,,,,,,,,,,,,,,,,,,,,,,,929.6545179999957,930.6695603000117,930.6362260000024,931.2143595000089,931.2143595000089,None,933.1827692000079,None,left,1.1105691000120714,933.1827692000079,None,934.3233484000084,None,right,0.7776944999932311,934.3233484000084,None,,,,,,,,,,,,,,,,,,,,,,,PPT22,001,2022-07-01_12h27.38.741,ABstudy,2022.1.4,59.965519821846875,
AB,Lag1_T1A_T2A,1,A,A,8,9,7,5,14,Ping pong Table,Did you see the Ping pong Table?,0.12,0.016,JPG\,pineapple01a,tennisball01b,computerkeyboard02,feather03a,belt02a,acorn,violin,blueberry01,medal02b,alligator,greenolive,screwdriver04b,potato02b,fork03c,blankImage,blankImage,blankImage,statue,,,,,,,,,,,,0,104,104,287,,,,,,,,,,,,,,,,,,,,,,,,,,,,,,,,,,,935.1317210000125,936.1418455000094,936.125125599996,936.7202080000134,936.7202080000134,None,938.3952493999968,None,right,0.8738634999899659,938.3952493999968,None,939.3080376000144,None,left,0.9050476000120398,939.3080376000144,None,,,,,,,,,,,,,,,,,,,,,,,PPT22,001,2022-07-01_12h27.38.741,ABstudy,2022.1.4,59.965519821846875,
AB,Lag1_T1P_T2P,1,P,P,5,6,4,3,9,dolphin,Did you see the dolphin?,0.12,0.016,JPG\,pig,belt02a,rice,screwdriver04b,dolphin01,stapler05,candle08b,pear01,feather03a,blankImage,blankImage,blankImage,blankImage,blankImage,blankImage,blankImage,blankImage,dolphin01,,,,,,,,,,,,0,105,105,10,,,,,,,,,,,,,,,,,,,,,,,,,,,,,,,,,,,940.2489748999942,941.2636417000031,941.2300898999965,941.7307431999943,941.7307431999943,None,942.916072699998,None,left,0.6412320000235923,942.916072699998,None,943.5826830000151,None,left,0.21453860000474378,943.5826830000151,None,,,,,,,,,,,,,,,,,,,,,,,PPT22,001,2022-07-01_12h27.38.741,ABstudy,2022.1.4,59.965519821846875,
AB,Lag5_T1P_T2P,5,P,P,7,12,6,4,16,Recycling bin,Did you see the Recycling bin?,0.12,0.016,JPG\,broccoli01a,scissors01,toothbrush03b,foosballtable,iron01b,brick,recyclingbin,toiletpaper01a,cd,garlic01a,carrot01,stapler03a,envelope03a,battery02b,balloon01b,broom01,blankImage,recyclingbin,,,,,,,,,,,,0,106,106,157,,,,,,,,,,,,,,,,,,,,,,,,,,,,,,,,,,,943.8709331999999,944.8840445000096,944.8674841999891,945.4786902999913,945.4786902999913,None,947.3234912999906,None,left,0.33007749999524094,947.3234912999906,None,947.6703557000146,None,left,0.1746530999953393,947.6703557000146,None,,,,,,,,,,,,,,,,,,,,,,,PPT22,001,2022-07-01_12h27.38.741,ABstudy,2022.1.4,59.965519821846875,
AB,Lag1_T1P_T2A,1,P,A,5,6,4,4,10,flower,Did you see the flower?,0.12,0.016,JPG\,broom01,globe,cellphone,tableknife02,daffodil,scissors01,ring01,alligator,rice,toaster01,blankImage,blankImage,blankImage,blankImage,blankImage,blankImage,blankImage,daffodil,,,,,,,,,,,,0,107,107,184,,,,,,,,,,,,,,,,,,,,,,,,,,,,,,,,,,,947.8749303999939,948.8879267000011,948.8711602000112,949.4442941999878,949.4442941999878,None,950.7061053999932,None,left,0.6986247999884654,950.7061053999932,None,951.4235708999913,None,right,0.16511739999987185,951.4235708999913,None,,,,,,,,,,,,,,,,,,,,,,,PPT22,001,2022-07-01_12h27.38.741,ABstudy,2022.1.4,59.965519821846875,
AB,Lag5_T1P_T2P,5,P,P,7,12,6,5,17,American football helmet,Did you see the American football helmet?,0.12,0.016,JPG\,alligator,banana01,apple07,tomato01,button01,spoon01,footballhelmet,fork03c,slipper03b,potato02b,grape01,stapler03b,teabag,screwdriver04b,hammer01,tennisball01b,blankImage,footballhelmet,,,,,,,,,,,,0,108,108,148,,,,,,,,,,,,,,,,,,,,,,,,,,,,,,,,,,,951.6118691999873,952.6250018000137,952.6084894000087,953.111203700013,953.111203700013,None,955.1855015000037,None,left,0.2189422000083141,955.1855015000037,None,955.4274924999918,None,left,0.22598860002472065,955.4274924999918,None,,,,,,,,,,,,,,,,,,,,,,,PPT22,001,2022-07-01_12h27.38.741,ABstudy,2022.1.4,59.965519821846875,
AB,Lag5_T1P_T2P,5,P,P,8,13,7,3,16,parachute,Did you see the parachute?,0.12,0.016,JPG\,brick,plate01b,pen04b,toaster01,screwdriver04b,candle01,envelope03a,parachute,pig,ring01,orange,clock01a,stapler03b,calculator01,mushroom01,chain01,blankImage,parachute,,,,,,,,,,,,0,109,109,114,,,,,,,,,,,,,,,,,,,,,,,,,,,,,,,,,,,955.7340391000034,956.7461177000077,956.7306046999875,957.3372223000042,957.3372223000042,None,959.182520900009,None,left,1.1107706000038888,959.182520900009,None,960.3156932000129,None,left,0.5366790000116453,960.3156932000129,None,,,,,,,,,,,,,,,,,,,,,,,PPT22,001,2022-07-01_12h27.38.741,ABstudy,2022.1.4,59.965519821846875,
AB,Lag1_T1P_T2P,1,P,P,7,8,6,3,11,harmonica,Did you see the harmonica?,0.12,0.016,JPG\,cucumber,ring01,lipstick02a,microscope,violin,garlic01a,harmonica,stapler03b,cherry01,sewingmachine01a,belt02a,blankImage,blankImage,blankImage,blankImage,blankImage,blankImage,harmonica,,,,,,,,,,,,0,110,110,43,,,,,,,,,,,,,,,,,,,,,,,,,,,,,,,,,,,960.8852333000104,961.9005829000089,961.8672394999885,962.4476852999942,962.4476852999942,None,963.8703792000015,None,right,6.4545677000132855,963.8703792000015,None,970.3427794000017,None,right,0.6775396000011824,970.3427794000017,None,,,,,,,,,,,,,,,,,,,,,,,PPT22,001,2022-07-01_12h27.38.741,ABstudy,2022.1.4,59.965519821846875,
AB,Lag5_T1P_T2A,5,P,A,6,11,5,5,16,hat,Did you see the hat?,0.12,0.016,JPG\,apple07,toiletpaper01a,pizza,dandelion,greenolive,pilgrimhat,microscope,violin,orange,lipstick02a,balloon01b,sandal,lighter01,fan,book01b,sewingmachine01a,blankImage,pilgrimhat,,,,,,,,,,,,0,111,111,206,,,,,,,,,,,,,,,,,,,,,,,,,,,,,,,,,,,971.0453227999969,972.0608206999896,972.0274419999914,972.6180390999943,972.6180390999943,None,974.5590718000021,None,right,1.2135067000053823,974.5590718000021,None,975.7981585999951,None,left,0.4391501000209246,975.7981585999951,None,,,,,,,,,,,,,,,,,,,,,,,PPT22,001,2022-07-01_12h27.38.741,ABstudy,2022.1.4,59.965519821846875,
AB,Lag5_T1P_T2P,5,P,P,5,10,4,5,15,sword fish,Did you see the sword fish?,0.12,0.016,JPG\,scissors01,balloon01b,eraser,feather03a,swordfish,candle01,measuringcup01,calculator01,thermometer02b,stapler04b,pear01,carrot01,globe,baseball01a,leaf02a,blankImage,blankImage,swordfish,,,,,,,,,,,,0,112,112,160,,,,,,,,,,,,,,,,,,,,,,,,,,,,,,,,,,,976.2702633000154,977.2829724999901,977.266233900009,977.8332083999994,977.8332083999994,None,979.7737686999899,None,left,0.34296129998983815,979.7737686999899,None,980.1358583999972,None,left,0.15672180001274683,980.1358583999972,None,,,,,,,,,,,,,,,,,,,,,,,PPT22,001,2022-07-01_12h27.38.741,ABstudy,2022.1.4,59.965519821846875,
AB,Lag5_T1P_T2A,5,P,A,8,13,7,4,17,Drum set,Did you see the Drum set?,0.12,0.016,JPG\,pencil01,microscope,banana01,computerkeyboard02,celery,cellphone,scissors01,drumset,book01b,onion,dice05a,binoculars01b,baseball01a,iron01b,screw02,fork03c,blankImage,drumset,,,,,,,,,,,,0,113,113,212,,,,,,,,,,,,,,,,,,,,,,,,,,,,,,,,,,,980.3257541999919,981.3369492999918,981.3203057000064,981.8846751000092,981.8846751000092,None,983.8131901999877,None,left,5.617685100005474,983.8131901999877,None,989.4618997999933,None,right,0.48705820000031963,989.4618997999933,None,,,,,,,,,,,,,,,,,,,,,,,PPT22,001,2022-07-01_12h27.38.741,ABstudy,2022.1.4,59.965519821846875,
AB,Lag1_T1P_T2P,1,P,P,6,7,5,4,11,bowling pin,Did you see the bowling pin?,0.12,0.016,JPG\,strawberry,leaf02a,clock04,candle01,avocado01,bowlingpin,stapler03a,brownsugar,ring01,lemon02,fork03c,blankImage,blankImage,blankImage,blankImage,blankImage,blankImage,bowlingpin,,,,,,,,,,,,0,114,114,8,,,,,,,,,,,,,,,,,,,,,,,,,,,,,,,,,,,989.9857539999939,990.9971847000124,990.9817919000052,991.6922080999939,991.6211661999987,None,992.9019299999927,None,left,0.871179999987362,992.9019299999927,None,993.7990276000055,None,right,0.3830861000169534,993.7990276000055,None,,,,,,,,,,,,,,,,,,,,,,,PPT22,001,2022-07-01_12h27.38.741,ABstudy,2022.1.4,59.965519821846875,
AB,Lag1_T1P_T2P,1,P,P,8,9,7,3,12,zebra,Did you see the zebra?,0.12,0.016,JPG\,apple07,toiletpaper01a,pizza,dandelion,greenolive,eraser,microscope,zebra,stapler03b,lipstick02a,balloon01b,sandal,blankImage,blankImage,blankImage,blankImage,blankImage,zebra,,,,,,,,,,,,0,115,115,28,,,,,,,,,,,,,,,,,,,,,,,,,,,,,,,,,,,994.2068194999883,995.2173055000021,995.2005213999946,995.7919499000127,995.7919499000127,None,997.2279395000078,None,left,0.6094592000008561,997.2279395000078,None,997.8700113999948,None,left,0.14293870000983588,997.8700113999948,None,,,,,,,,,,,,,,,,,,,,,,,PPT22,001,2022-07-01_12h27.38.741,ABstudy,2022.1.4,59.965519821846875,
AB,Lag5_T1P_T2P,5,P,P,6,11,5,5,16,sword,Did you see the sword?,0.12,0.016,JPG\,chain01,speaker04,avocado01,watermelon01,scarf,sword01,lamp04a,fork03c,toaster01,slipper03b,stapler03a,cucumber,teabag,ashtray01,computerkeyboard02,book01b,blankImage,sword01,,,,,,,,,,,,0,116,116,143,,,,,,,,,,,,,,,,,,,,,,,,,,,,,,,,,,,998.0407294000033,999.0544298999885,999.0378214000084,999.6192334000079,999.6192334000079,None,1001.5572375000047,None,left,0.5032172000210267,1001.5572375000047,None,1002.0905856000027,None,left,0.16980400000466034,1002.0905856000027,None,,,,,,,,,,,,,,,,,,,,,,,PPT22,001,2022-07-01_12h27.38.741,ABstudy,2022.1.4,59.965519821846875,
AB,Lag5_T1P_T2A,5,P,A,7,12,6,5,17,corn,Did you see the corn?,0.12,0.016,JPG\,avocado01,pingpongpaddle01c,match,cauliflower01,paintbrush01,clock01a,corn02,cd,balloon01b,cellphone,watch02a,pear01,toaster01,sponge01,orange,blueberry01,blankImage,corn02,,,,,,,,,,,,0,117,117,210,,,,,,,,,,,,,,,,,,,,,,,,,,,,,,,,,,,1002.2930524999974,1003.3084845000121,1003.2751275000046,1003.8559271999984,1003.8559271999984,None,1005.8320063000137,None,left,0.47696679999353364,1005.8320063000137,None,1006.3282828000083,None,left,0.17252880000160076,1006.3282828000083,None,,,,,,,,,,,,,,,,,,,,,,,PPT22,001,2022-07-01_12h27.38.741,ABstudy,2022.1.4,59.965519821846875,
AB,Lag5_T1P_T2P,5,P,P,6,11,5,4,15,Bumper car,Did you see the Bumper car?,0.12,0.016,JPG\,eraser,measuringcup01,chain01,birthdaycandle,ring01,bumpercar,weight04a,pig,cauliflower01,celery,stapler01,sunglasses04,greenolive,candy,strawberry,blankImage,blankImage,bumpercar,,,,,,,,,,,,0,118,118,104,,,,,,,,,,,,,,,,,,,,,,,,,,,,,,,,,,,1006.5318744000106,1007.5462835000071,1007.512864999997,1008.0943183999916,1008.0943183999916,None,1009.9368231999979,None,right,1.2678540000051726,1009.9368231999979,None,1011.2343079000129,None,left,0.2503996000159532,1011.2343079000129,None,,,,,,,,,,,,,,,,,,,,,,,PPT22,001,2022-07-01_12h27.38.741,ABstudy,2022.1.4,59.965519821846875,
AB,Lag1_T1P_T2P,1,P,P,8,9,7,5,14,finger print,Did you see the finger print?,0.12,0.016,JPG\,chain01,pen04b,birthdaycandle,watermelon01,broom01,scissors01,measuringcup01,fingerprint,stapler01,calculator01,ashtray01,feather03a,sewingmachine01a,thermometer02b,blankImage,blankImage,blankImage,fingerprint,,,,,,,,,,,,0,119,119,62,,,,,,,,,,,,,,,,,,,,,,,,,,,,,,,,,,,1011.5250589000061,1012.5346771999903,1012.5179815000156,1013.0898028000083,1013.0898028000083,None,1014.8862685000058,None,left,0.5272066000034101,1014.8862685000058,None,1015.4372555000009,None,right,0.5442776000127196,1015.4372555000009,None,,,,,,,,,,,,,,,,,,,,,,,PPT22,001,2022-07-01_12h27.38.741,ABstudy,2022.1.4,59.965519821846875,
AB,Lag5_T1P_T2P,5,P,P,7,12,6,5,17,tie,Did you see the tie?,0.12,0.016,JPG\,iron01b,orange,birthdaycandle,potato02b,cauliflower01,pencil01,tie02,candle08b,celery,tableknife02,pen04b,stapler06,ring01,rice,lemon02,tomato01,blankImage,tie02,,,,,,,,,,,,0,120,120,161,,,,,,,,,,,,,,,,,,,,,,,,,,,,,,,,,,,1016.0067790999892,1017.0222548999882,1016.9888446000114,1017.5709301999887,1017.5709301999887,None,1019.5241188000073,None,left,0.38579380000010133,1019.5241188000073,None,1019.9420414000051,None,left,0.12669950001873076,1019.9420414000051,None,,,,,,,,,,,,,,,,,,,,,,,PPT22,001,2022-07-01_12h27.38.741,ABstudy,2022.1.4,59.965519821846875,
AB,Lag5_T1P_T2P,5,P,P,8,13,7,5,18,Kiwi,Did you see the Kiwi?,0.12,0.016,JPG\,violin,pizza,toothbrush03b,pineapple01a,banana01,ashtray01,candy,kiwi03,clock04,sock01a,microscope,speaker04,stapler04b,sunglasses04,lipstick02a,blueberry01,blankImage,kiwi03,,,,,,,,,,,,0,121,121,111,,,,,,,,,,,,,,,,,,,,,,,,,,,,,,,,,,,1020.0971806000161,1021.1099926999887,1021.0931357000081,1021.6649446999945,1021.6649446999945,None,1023.6021028000105,None,left,0.4187240000173915,1023.6021028000105,None,1024.0463520000048,None,left,0.15072440000949427,1024.0463520000048,None,,,,,,,,,,,,,,,,,,,,,,,PPT22,001,2022-07-01_12h27.38.741,ABstudy,2022.1.4,59.965519821846875,
AB,Lag1_T1P_T2A,1,P,A,8,9,7,5,14,Sausage,Did you see the Sausage?,0.12,0.016,JPG\,pencil01,broccoli01a,button01,sponge01,watermelon01,lipstick02a,comb02a,sausage,lighter01,sock01a,spoon01,blueberry01,belt02a,onion,blankImage,blankImage,blankImage,sausage,,,,,,,,,,,,0,122,122,175,,,,,,,,,,,,,,,,,,,,,,,,,,,,,,,,,,,1024.2350537999882,1025.247194800002,1025.2304666000127,1025.8069550000073,1025.8069550000073,None,1027.5594790999894,None,left,0.6453692000068258,1027.5594790999894,None,1028.2342785999936,None,right,0.3624124999914784,1028.2342785999936,None,,,,,,,,,,,,,,,,,,,,,,,PPT22,001,2022-07-01_12h27.38.741,ABstudy,2022.1.4,59.965519821846875,
AB,Lag5_T1P_T2P,5,P,P,8,13,7,4,17,surf board,Did you see the surf board?,0.12,0.016,JPG\,candy,brownsugar,dice05a,cd,sock01a,blueberry01,button01,surfboard,feather03a,grape01,dandelion,scissors01,stapler03b,candle08b,book01b,globe,blankImage,surfboard,,,,,,,,,,,,0,123,123,142,,,,,,,,,,,,,,,,,,,,,,,,,,,,,,,,,,,1028.6237103999883,1029.6345693999901,1029.6178482999967,1030.272345400008,1030.272345400008,None,1032.1957841000112,None,right,1.7611904999939725,1032.1957841000112,None,1033.989836599998,None,left,0.4790258999855723,1033.989836599998,None,,,,,,,,,,,,,,,,,,,,,,,PPT22,001,2022-07-01_12h27.38.741,ABstudy,2022.1.4,59.965519821846875,
AB,Lag5_T1A_T2P,5,A,P,5,10,4,3,13,License Plate,Did you see the License Plate?,0.12,0.016,JPG\,tomato01,pen04b,shirt02,carrot01,lamp04a,key01,pizza,avocado01,sewingmachine01a,stapler06,iron01b,book01b,chain01,blankImage,blankImage,blankImage,blankImage,porcupine,,,,,,,,,,,,0,124,124,270,,,,,,,,,,,,,,,,,,,,,,,,,,,,,,,,,,,1034.4985503999924,1035.5075172999932,1035.490989599988,1036.0917002999922,1036.0917002999922,None,1037.6188686999958,None,right,1.7293269999790937,1037.6188686999958,None,1039.3780020000122,None,left,0.843874100013636,1039.3780020000122,None,,,,,,,,,,,,,,,,,,,,,,,PPT22,001,2022-07-01_12h27.38.741,ABstudy,2022.1.4,59.965519821846875,
AB,Lag1_T1P_T2A,1,P,A,7,8,6,5,13,Well,Did you see the Well?,0.12,0.016,JPG\,leaf02a,apple07,cd,pineapple01a,envelope03a,paintbrush01,well,acorn,rice,feather03a,lemon02,balloon01b,avocado01,blankImage,blankImage,blankImage,blankImage,well,,,,,,,,,,,,0,125,125,178,,,,,,,,,,,,,,,,,,,,,,,,,,,,,,,,,,,1040.249770399998,1041.2632526000089,1041.2464521999937,1041.833350300003,1041.833350300003,None,1043.4438803000085,None,right,9.305143500008853,1043.4438803000085,None,1052.7747403999965,None,right,0.42153479999979027,1052.7747403999965,None,,,,,,,,,,,,,,,,,,,,,,,PPT22,001,2022-07-01_12h27.38.741,ABstudy,2022.1.4,59.965519821846875,
AB,Lag5_T1P_T2P,5,P,P,8,13,7,3,16,church,Did you see the church?,0.12,0.016,JPG\,clock01a,cellphone,toaster01,toothbrush03b,cauliflower01,microscope,comb02a,church,scarf,clock04,sponge01,iron01b,stapler06,celery,ring01,ashtray01,blankImage,church,,,,,,,,,,,,0,126,126,129,,,,,,,,,,,,,,,,,,,,,,,,,,,,,,,,,,,1053.2379911000025,1054.2427956000029,1054.209680400003,1054.7929927000077,1054.7929927000077,None,1056.78423260001,None,left,0.3643842000165023,1056.78423260001,None,1057.181869699998,None,left,0.14291329999105074,1057.181869699998,None,,,,,,,,,,,,,,,,,,,,,,,PPT22,001,2022-07-01_12h27.38.741,ABstudy,2022.1.4,59.965519821846875,
AB,Lag1_T1P_T2P,1,P,P,7,8,6,5,13,school bus,Did you see the school bus?,0.12,0.016,JPG\,aceofdiamond,banana01,scissors01,pig,shirt02,leaf02a,schoolbus,stapler05,fork03c,tableknife02,balloon01b,match,toothbrush03b,blankImage,blankImage,blankImage,blankImage,schoolbus,,,,,,,,,,,,0,127,127,24,,,,,,,,,,,,,,,,,,,,,,,,,,,,,,,,,,,1057.418746500014,1058.4300953999918,1058.4133206999977,1059.0047735999979,1059.0047735999979,None,1060.5345266000077,None,left,0.5258305000024848,1060.5345266000077,None,1061.0835453000036,None,right,0.2009200000029523,1061.0835453000036,None,,,,,,,,,,,,,,,,,,,,,,,PPT22,001,2022-07-01_12h27.38.741,ABstudy,2022.1.4,59.965519821846875,
AB,Lag5_T1P_T2P,5,P,P,6,11,5,4,15,shower,Did you see the shower?,0.12,0.016,JPG\,dice05a,watch02a,pig,lighter01,button01,shower,paintbrush01,microscope,plate01b,pen04b,stapler05,weight04a,carrot01,shirt02,globe,blankImage,blankImage,shower,,,,,,,,,,,,0,128,128,121,,,,,,,,,,,,,,,,,,,,,,,,,,,,,,,,,,,1061.3200408999983,1062.3343415000127,1062.3176399999938,1062.8879483999917,1062.8879483999917,None,1064.8394713999878,None,left,0.3809301999863237,1064.8394713999878,None,1065.2374304000114,None,left,0.16795819997787476,1065.2374304000114,None,,,,,,,,,,,,,,,,,,,,,,,PPT22,001,2022-07-01_12h27.38.741,ABstudy,2022.1.4,59.965519821846875,
AB,Lag1_T1P_T2A,1,P,A,7,8,6,4,12,Steering wheel,Did you see the Steering wheel?,0.12,0.016,JPG\,alligator,banana01,apple07,tomato01,button01,spoon01,steeringwheel,fork03c,canoftennisballs,potato02b,grape01,leaf02a,blankImage,blankImage,blankImage,blankImage,blankImage,steeringwheel,,,,,,,,,,,,0,129,129,198,,,,,,,,,,,,,,,,,,,,,,,,,,,,,,,,,,,1065.444386099989,1066.4551179000118,1066.4384281999955,1066.9389009000151,1066.9389009000151,None,1068.463543699996,None,left,0.5570594999880996,1068.463543699996,None,1069.040588200005,None,right,0.17199970001820475,1069.040588200005,None,,,,,,,,,,,,,,,,,,,,,,,PPT22,001,2022-07-01_12h27.38.741,ABstudy,2022.1.4,59.965519821846875,
AB,Lag5_T1P_T2P,5,P,P,5,10,4,3,13,Sushi,Did you see the Sushi?,0.12,0.016,JPG\,carrot01,greenolive,fork03c,chain01,makiroll,watermelon01,tableknife02,printer02,comb02a,stapler03b,orange,rice,fan,blankImage,blankImage,blankImage,blankImage,makiroll,,,,,,,,,,,,0,130,130,135,,,,,,,,,,,,,,,,,,,,,,,,,,,,,,,,,,,1069.2430316999962,1070.258526199992,1070.2251383000112,1070.8040489999985,1070.8040489999985,None,1072.3741772999929,None,left,0.5263401999836788,1072.3741772999929,None,1072.928225999989,None,left,1.0361966000054963,1072.928225999989,None,,,,,,,,,,,,,,,,,,,,,,,PPT22,001,2022-07-01_12h27.38.741,ABstudy,2022.1.4,59.965519821846875,
AB,Lag5_T1P_T2P,5,P,P,6,11,5,5,16,microwave,Did you see the microwave?,0.12,0.016,JPG\,pen04b,speaker04,lighter01,cherry01,weight04a,microwave,sock01a,toothbrush03b,broom01,sewingmachine01a,stapler06,iron01b,clock01a,sandal,cd,blueberry01,blankImage,microwave,,,,,,,,,,,,0,131,131,136,,,,,,,,,,,,,,,,,,,,,,,,,,,,,,,,,,,1073.9983066999994,1075.0132669000013,1074.9799850000127,1075.5729052000097,1075.5729052000097,None,1077.4895732000005,None,left,0.8989636000187602,1077.4895732000005,None,1078.417008999997,None,right,0.3074096000054851,1078.417008999997,None,,,,,,,,,,,,,,,,,,,,,,,PPT22,001,2022-07-01_12h27.38.741,ABstudy,2022.1.4,59.965519821846875,
AB,Lag5_T1A_T2P,5,A,P,6,11,5,3,14,saxophone,Did you see the saxophone?,0.12,0.016,JPG\,globe,belt02a,sponge01,violin,fork03c,tomato01,clock01a,microscope,balloon01b,scarf,stapler03b,pen04b,brick,brownsugar,blankImage,blankImage,blankImage,microphone01,,,,,,,,,,,,0,132,132,267,,,,,,,,,,,,,,,,,,,,,,,,,,,,,,,,,,,1078.81677569999,1079.8182005000126,1079.801438800001,1080.3991013999912,1080.3991013999912,None,1081.9383918000094,None,right,1.54618480001227,1081.9383918000094,None,1083.5049830999924,None,left,0.17954310000641271,1083.5049830999924,None,,,,,,,,,,,,,,,,,,,,,,,PPT22,001,2022-07-01_12h27.38.741,ABstudy,2022.1.4,59.965519821846875,
AB,Lag5_T1P_T2P,5,P,P,5,10,4,5,15,baseball bat,Did you see the baseball bat?,0.12,0.016,JPG\,pizza,printer02,medal02b,spoon01,baseballbat,lighter01,belt02a,watermelon01,celery,stapler04b,screw02,comb02a,cauliflower01,lipstick02a,potato02b,blankImage,blankImage,baseballbat,,,,,,,,,,,,0,133,133,123,,,,,,,,,,,,,,,,,,,,,,,,,,,,,,,,,,,1083.7075099000067,1084.722917600011,1084.6895532000053,1085.2843971000111,1085.2843971000111,None,1087.2150601999892,None,right,1.3258516999776475,1087.2150601999892,None,1088.5603775999916,None,right,0.18039359999238513,1088.5603775999916,None,,,,,,,,,,,,,,,,,,,,,,,PPT22,001,2022-07-01_12h27.38.741,ABstudy,2022.1.4,59.965519821846875,
AB,Lag5_T1A_T2A,5,A,A,7,12,6,4,16,boxing glove,Did you see the boxing glove?,0.12,0.016,JPG\,cherry01,cymbal,envelope03a,foosballtable,shirt02,cellphone,sewingmachine01a,candle08b,battery02b,apple07,pencil01,screwdriver04b,strawberry,sunglasses04,feather03a,rice,blankImage,lollipop04,,,,,,,,,,,,0,134,134,296,,,,,,,,,,,,,,,,,,,,,,,,,,,,,,,,,,,1088.7681897000002,1089.7781607999932,1089.76145369999,1090.3334271000058,1090.3334271000058,None,1092.3148213000095,None,right,0.8097095999983139,1092.3148213000095,None,1093.1479225000076,None,right,0.8006020000029821,1093.1479225000076,None,,,,,,,,,,,,,,,,,,,,,,,PPT22,001,2022-07-01_12h27.38.741,ABstudy,2022.1.4,59.965519821846875,
AB,Lag1_T1P_T2P,1,P,P,7,8,6,4,12,cow,Did you see the cow?,0.12,0.016,JPG\,fork03c,plate01b,toiletpaper01a,greenolive,rice,blueberry01,cow,stapler01,envelope03a,orange,book01b,pencil01,blankImage,blankImage,blankImage,blankImage,blankImage,cow,,,,,,,,,,,,0,135,135,59,,,,,,,,,,,,,,,,,,,,,,,,,,,,,,,,,,,1093.9677498000092,1094.9831764000119,1094.9497424,1095.5300803999999,1095.5300803999999,None,1097.0044309000077,None,left,0.39228890000958927,1097.0044309000077,None,1097.4217680000002,None,left,0.1589774000167381,1097.4217680000002,None,,,,,,,,,,,,,,,,,,,,,,,PPT22,001,2022-07-01_12h27.38.741,ABstudy,2022.1.4,59.965519821846875,
AB,Lag1_T1A_T2P,1,A,P,5,6,4,3,9,microphone,Did you see the microphone?,0.12,0.016,JPG\,hammer01,sponge01,toaster01,cherry01,feather03a,stapler06,measuringcup01,pencil01,tennisball01b,blankImage,blankImage,blankImage,blankImage,blankImage,blankImage,blankImage,blankImage,cactus,,,,,,,,,,,,0,136,136,230,,,,,,,,,,,,,,,,,,,,,,,,,,,,,,,,,,,1097.6163567999902,1098.6201556999877,1098.603379600012,1099.177784200001,1099.177784200001,None,1100.265176899993,None,right,0.987555900006555,1100.265176899993,None,1101.2727011000097,None,left,0.2997705000161659,1101.2727011000097,None,,,,,,,,,,,,,,,,,,,,,,,PPT22,001,2022-07-01_12h27.38.741,ABstudy,2022.1.4,59.965519821846875,
