TrialType,CondType,Lag,T1_PA,T2_PA,T1Loc,T2Loc,PreDistractor,PostDistractor,TotalImg,cueWord,T1cue,StimLength,isi,PicFolder,Img1,Img2,Img3,Img4,Img5,Img6,Img7,Img8,Img9,Img10,Img11,Img12,Img13,Img14,Img15,Img16,Img17,T1_Identity,ImageType,T1PA,T2PA,Picture,Image,FullPathName,FilePath,Practice_Trials.thisRepN,Practice_Trials.thisTrialN,Practice_Trials.thisN,Practice_Trials.thisIndex,trials.thisRepN,trials.thisTrialN,trials.thisN,trials.thisIndex,trials_2.thisRepN,trials_2.thisTrialN,trials_2.thisN,trials_2.thisIndex,Practice_Ins.started,Practice_Ins.stopped,End_Prac_Ins.keys,End_Prac_Ins.rt,End_Prac_Ins.started,End_Prac_Ins.stopped,text_2.started,text_2.stopped,Fixation_Cross_2.started,Fixation_Cross_2.stopped,Rapid_Image_Present_2.started,Rapid_Image_Present_2.stopped,key_resp.keys,key_resp.rt,key_resp.started,key_resp.stopped,T1Response_2.started,T1Response_2.stopped,T2Response_2.started,T2Response_2.stopped,key_resp_4.keys,key_resp_4.rt,key_resp_4.started,key_resp_4.stopped,text.started,text.stopped,End_Instructions.keys,End_Instructions.rt,End_Instructions.started,End_Instructions.stopped,text_5.started,text_5.stopped,FC.started,FC.stopped,Rapid_Image_Present.started,Rapid_Image_Present.stopped,T1Response.started,T1Response.stopped,key_resp_2.keys,key_resp_2.rt,key_resp_2.started,key_resp_2.stopped,T2Response.started,T2Response.stopped,key_resp_3.keys,key_resp_3.rt,key_resp_3.started,key_resp_3.stopped,text_6.started,text_6.stopped,Fin_ins.keys,Fin_ins.rt,Fin_ins.started,Fin_ins.stopped,MemTest.started,MemTest.stopped,MemResponse.keys,MemResponse.rt,MemResponse.started,MemResponse.stopped,Display.started,Display.stopped,text_7.started,text_7.stopped,endOfExperiment.started,endOfExperiment.stopped,key_resp_5.keys,key_resp_5.rt,key_resp_5.started,key_resp_5.stopped,participant,session,date,expName,psychopyVersion,frameRate,
,,,,,,,,,,,,,,,,,,,,,,,,,,,,,,,,,,,,,,,,,,,,,,,,,,,,16.770936499990057,None,space,37.74990380008239,16.770936499990057,None,,,,,,,,,,,,,,,,,,,,,,,,,,,,,,,,,,,,,,,,,,,,,,,,,,,,,,,,,,,,,,,,,PPT28,001,2022-07-04_15h04.29.055,ABstudy,2022.1.4,60.16275226300597,
AB_Prac,Lag1_T1P_T2A,1,P,A,5,6,4,5,11,Webcam,Did you see the Webcam?,0.5,0.016,JPG\,pictureframe04,binder03b,straw,adjustablewrench01b,webcam,cane,hairdryer02a,icepack,kitchenscale01a,lifejacket,piggybank,blankImage,blankImage,blankImage,blankImage,blankImage,blankImage,webcam,,,,,,,,0,0,0,6,,,,,,,,,,,,,,,54.60295569995651,55.607758199970704,55.591096499993,56.27561599999899,56.19247369997902,None,left,1.231309900060296,61.69868949998636,None,61.69868949998636,None,62.950985999952536,None,right,1.4016230000415817,62.950985999952536,None,,,,,,,,,,,,,,,,,,,,,,,,,,,,,,,,,,,,,,,,,,,,,,,PPT28,001,2022-07-04_15h04.29.055,ABstudy,2022.1.4,60.16275226300597,
AB_Prac,Lag5_T1P_T2P,5,P,P,5,10,4,5,15,Vulture,Did you see the Vulture?,0.5,0.016,JPG\,shorts01,toast,ramekin01,bib,vulture,cracker02,date,glasses01a,hat03b,stapler01,measuringtape01,nail,pill,drum01,starfish01,blankImage,blankImage,vulture,,,,,,,,0,1,1,3,,,,,,,,,,,,,,,64.4500277999905,65.45068479998736,65.43403369997395,66.03187819995219,66.03187819995219,None,left,0.8776705000782385,73.50855059997411,None,73.50855059997411,None,74.40952669997932,None,left,0.7599239000701346,74.40952669997932,None,,,,,,,,,,,,,,,,,,,,,,,,,,,,,,,,,,,,,,,,,,,,,,,PPT28,001,2022-07-04_15h04.29.055,ABstudy,2022.1.4,60.16275226300597,
AB_Prac,Lag5_T1P_T2P,5,P,P,7,12,6,3,15,vacuum,Did you see the vacuum?,0.5,0.016,JPG\,fork07b,lightbulb01,manshoe,saw02b,shoelace,soap03a,vacuumcleaner01,floortile01,necklace,doll,cabbage,stapler03a,hanger02a,laptop01a,nailpolish03b,blankImage,blankImage,vacuumcleaner01,,,,,,,,0,2,2,2,,,,,,,,,,,,,,,75.20041269995272,76.21152399998391,76.19480889994884,76.77413489995524,76.77413489995524,None,left,0.9603183000581339,84.3925563999801,None,84.3925563999801,None,85.37089679995552,None,left,0.9895414000493474,85.37089679995552,None,,,,,,,,,,,,,,,,,,,,,,,,,,,,,,,,,,,,,,,,,,,,,,,PPT28,001,2022-07-04_15h04.29.055,ABstudy,2022.1.4,60.16275226300597,
AB_Prac,Lag5_T1A_T2A,5,A,A,6,11,5,5,16,castle,Did you see the castle?,0.5,0.016,JPG\,tape02a,englishmuffin,flask,ladle02a,monitor,peach01,keychain,squeegee01b,telephone01b,whisk,walkman,syringe02,baguette01,coaster,box01a,coffeepot03a,blankImage,None,,,,,,,,0,3,3,11,,,,,,,,,,,,,,,86.39189589995658,87.40605779999169,87.38930389995221,88.05154699995182,87.96858739998424,None,right,0.743742800084874,96.02525339997374,None,96.02525339997374,None,96.79900199995609,None,right,0.8352447000215761,96.79900199995609,None,,,,,,,,,,,,,,,,,,,,,,,,,,,,,,,,,,,,,,,,,,,,,,,PPT28,001,2022-07-04_15h04.29.055,ABstudy,2022.1.4,60.16275226300597,
AB_Prac,Lag5_T1P_T2A,5,P,A,6,11,5,5,16,Wheat,Did you see the Wheat?,0.5,0.016,JPG\,bottleopener01,dentalfloss03b,cooler01,icecreamcone01a,paperclip01b,wheat,pencilsharpener02a,plasticbasket01a,toycar04,apricot,hairclip02,rock01a,honeydewmelon,antenna,blackberry,cardboardbox,blankImage,wheat,,,,,,,,0,4,4,7,,,,,,,,,,,,,,,97.66962539998349,98.68394319998333,98.66720189998159,99.24805859994376,99.24805859994376,None,left,1.015055600029882,107.28969609999331,None,107.28969609999331,None,108.32665989996167,None,right,0.7704942000564188,108.32665989996167,None,,,,,,,,,,,,,,,,,,,,,,,,,,,,,,,,,,,,,,,,,,,,,,,PPT28,001,2022-07-04_15h04.29.055,ABstudy,2022.1.4,60.16275226300597,
AB_Prac,Lag1_T1P_T2P,1,P,P,8,9,7,5,14,Tennis racket,Did you see the Tennis racket?,0.5,0.016,JPG\,coconut,computermouse06,croissant01,deodorant02a,pillow01a,peanut01,boot02b,tennisracket,stapler03b,crayon,eggplant,marker01a,plant01,radish01,blankImage,blankImage,blankImage,tennisracket,,,,,,,,0,5,5,0,,,,,,,,,,,,,,,109.14099829999031,110.14533719996689,110.12859179999214,110.74219520000042,110.74219520000042,None,left,0.7507621000986546,117.80263339995872,None,117.80263339995872,None,118.57053519994952,None,left,0.7739461000892334,118.57053519994952,None,,,,,,,,,,,,,,,,,,,,,,,,,,,,,,,,,,,,,,,,,,,,,,,PPT28,001,2022-07-04_15h04.29.055,ABstudy,2022.1.4,60.16275226300597,
AB_Prac,Lag1_T1P_T2A,1,P,A,8,9,7,5,14,flower,Did you see the flower?,0.5,0.016,JPG\,razor01,axe01,binder03b,bowl01,kettle01,lettuce,lime,plasticflower01b,mitten04,pencilcase01,plunger02,strawbasket01,toothpick02,wallet02a,blankImage,blankImage,blankImage,plasticflower01b,,,,,,,,0,6,6,5,,,,,,,,,,,,,,,119.38201629999094,120.38931329996558,120.37374969996745,120.96031799999764,120.96031799999764,None,left,0.7850468000397086,127.95996670000022,None,127.95996670000022,None,128.76404579996597,None,right,0.6208768000360578,128.76404579996597,None,,,,,,,,,,,,,,,,,,,,,,,,,,,,,,,,,,,,,,,,,,,,,,,PPT28,001,2022-07-04_15h04.29.055,ABstudy,2022.1.4,60.16275226300597,
AB_Prac,Lag1_T1A_T2A,1,A,A,8,9,7,3,12,Moose,Did you see the Moose?,0.5,0.016,JPG\,clothespin03b,corkscrew03a,drillbit03a,fusilli03a,needlenosepliers01,perfume01a,pistachio,scrubbingbrush05b,spatula03,toothpastetube,hinge,toydinosaur,blankImage,blankImage,blankImage,blankImage,blankImage,None,,,,,,,,0,7,7,10,,,,,,,,,,,,,,,129.4231605999521,130.4322612999822,130.41547709994484,130.99795429996448,130.99795429996448,None,right,1.6489831000799313,137.00748089997796,None,137.00748089997796,None,138.6735377999721,None,right,1.671054000093136,138.6735377999721,None,,,,,,,,,,,,,,,,,,,,,,,,,,,,,,,,,,,,,,,,,,,,,,,PPT28,001,2022-07-04_15h04.29.055,ABstudy,2022.1.4,60.16275226300597,
AB_Prac,Lag5_T1P_T2A,5,P,A,6,11,5,5,16,bread,Did you see the bread?,0.5,0.016,JPG\,cleaver01,clipboard,dustpan,hikingshoe01,notebook03a,baguette01,playingcard,pliers02b,styrofoamcup,rollingpin01a,swimgoggles,wineglass01,fryingpan02a,safetypin,syringe01,thimble,blankImage,baguette01,,,,,,,,0,8,8,8,,,,,,,,,,,,,,,140.37637959996937,141.37660169997253,141.35986279998906,141.94837689999258,141.94837689999258,None,left,1.3411772000836208,149.94063899997855,None,149.94063899997855,None,151.30314839998027,None,right,0.5376394000486471,151.30314839998027,None,,,,,,,,,,,,,,,,,,,,,,,,,,,,,,,,,,,,,,,,,,,,,,,PPT28,001,2022-07-04_15h04.29.055,ABstudy,2022.1.4,60.16275226300597,
AB_Prac,Lag5_T1A_T2P,5,A,P,6,11,5,3,14,dog,Did you see the dog?,0.5,0.016,JPG\,bucket01a,doorlock,cookiecutter,fireextinguisher01,gluestick,highlighter02b,sportbag,spraybottle01,suitcase,thread02,stapler05,walnut01c,icecubetray01a,vikingmask01b,blankImage,blankImage,blankImage,None,,,,,,,,0,9,9,9,,,,,,,,,,,,,,,151.87248609995004,152.88790349999908,152.85445439995965,153.45636049995665,153.45636049995665,None,right,0.767414900008589,160.47310029994696,None,160.47310029994696,None,161.2626824999461,None,left,0.8337130000581965,161.2626824999461,None,,,,,,,,,,,,,,,,,,,,,,,,,,,,,,,,,,,,,,,,,,,,,,,PPT28,001,2022-07-04_15h04.29.055,ABstudy,2022.1.4,60.16275226300597,
AB_Prac,Lag1_T1P_T2P,1,P,P,6,7,5,5,12,triangle,Did you see the triangle?,0.5,0.016,JPG\,ginger,mousetrap,plum01,slipper01b,dropper01,triangle,stapler04b,pants,raspberry01,rope03,scale01a,vase01,blankImage,blankImage,blankImage,blankImage,blankImage,triangle,,,,,,,,0,10,10,1,,,,,,,,,,,,,,,162.11661919998005,163.13121449999744,163.09785069996724,163.67939429997932,163.67939429997932,None,left,0.9898836000356823,169.7628821999533,None,169.7628821999533,None,170.77259019995108,None,left,0.40435420005815104,170.77259019995108,None,,,,,,,,,,,,,,,,,,,,,,,,,,,,,,,,,,,,,,,,,,,,,,,PPT28,001,2022-07-04_15h04.29.055,ABstudy,2022.1.4,60.16275226300597,
AB_Prac,Lag5_T1P_T2P,5,P,P,5,10,4,5,15,washing machine,Did you see the washing machine?,0.5,0.016,JPG\,waterbottle03,wheel01,flashlight02b,zucchini01,washingmachine,headphones02b,nutcracker01,paintroller01,paperclip03,stapler06,ribbon04,electricrazor,bottleofredwine01,pitabread,pot02a,blankImage,blankImage,washingmachine,,,,,,,,0,11,11,4,,,,,,,,,,,,,,,171.2081170999445,172.2070855999482,172.19050889997743,172.77622749999864,172.77622749999864,None,left,0.872266800084617,180.32902259996627,None,180.32902259996627,None,181.23255809996044,None,left,0.543866700027138,181.23255809996044,None,,,,,,,,,,,,,,,,,,,,,,,,,,,,,,,,,,,,,,,,,,,,,,,PPT28,001,2022-07-04_15h04.29.055,ABstudy,2022.1.4,60.16275226300597,
,,,,,,,,,,,,,,,,,,,,,,,,,,,,,,,,,,,,,,,,,,,,,,,,,,,,,,,,,,,,,,,,,,,,,,,,,,,,181.79991379997227,None,space,21.472779100062326,181.79991379997227,None,,,,,,,,,,,,,,,,,,,,,,,,,,,,,,,,,,,,,,,,,PPT28,001,2022-07-04_15h04.29.055,ABstudy,2022.1.4,60.16275226300597,
AB,Lag5_T1A_T2A,5,A,A,7,12,6,4,16,boxing glove,Did you see the boxing glove?,0.12,0.016,JPG\,cherry01,cymbal,envelope03a,foosballtable,shirt02,cellphone,sewingmachine01a,candle08b,battery02b,apple07,pencil01,screwdriver04b,strawberry,sunglasses04,feather03a,rice,blankImage,lollipop04,,,,,,,,,,,,0,0,0,296,,,,,,,,,,,,,,,,,,,,,,,,,,,,,,,,,,,203.9134668999468,204.92317389999516,204.90664699999616,205.54380239994498,205.54380239994498,None,207.49534039996797,None,right,3.2011066000559367,207.49534039996797,None,210.7313390999916,None,left,1.157454700092785,210.7313390999916,None,,,,,,,,,,,,,,,,,,,,,,,PPT28,001,2022-07-04_15h04.29.055,ABstudy,2022.1.4,60.16275226300597,
AB,Lag5_T1P_T2P,5,P,P,7,12,6,5,17,truck,Did you see the truck?,0.12,0.016,JPG\,binoculars01b,speaker04,sandal,envelope03a,plate01b,comb02a,boxtruck,chain01,measuringcup01,key01,medal02b,stapler05,tennisball01b,pizza,cigarette,sunglasses04,blankImage,boxtruck,,,,,,,,,,,,0,1,1,166,,,,,,,,,,,,,,,,,,,,,,,,,,,,,,,,,,,211.92015799996443,212.93108339997707,212.91448609996587,213.51153599994723,213.51153599994723,None,215.44529639999382,None,left,0.9952135000494309,215.44529639999382,None,216.46804719994543,None,right,0.9401575000956655,216.46804719994543,None,,,,,,,,,,,,,,,,,,,,,,,PPT28,001,2022-07-04_15h04.29.055,ABstudy,2022.1.4,60.16275226300597,
AB,Lag5_T1P_T2P,5,P,P,8,13,7,5,18,popcorn,Did you see the popcorn?,0.12,0.016,JPG\,toaster01,garlic01a,hairclip03,fan,comb02a,apple07,orange,popcorn,onion,blueberry01,toiletpaper01a,fork03c,stapler06,pineapple01a,scarf,eraser,blankImage,popcorn,,,,,,,,,,,,0,2,2,155,,,,,,,,,,,,,,,,,,,,,,,,,,,,,,,,,,,217.44336379994638,218.45332449994748,218.43652129999828,219.0182794999564,219.0182794999564,None,220.95877959998325,None,left,1.0577053001034074,220.95877959998325,None,222.04026459995657,None,left,0.680688500055112,222.04026459995657,None,,,,,,,,,,,,,,,,,,,,,,,PPT28,001,2022-07-04_15h04.29.055,ABstudy,2022.1.4,60.16275226300597,
AB,Lag1_T1P_T2A,1,P,A,5,6,4,4,10,paper airplane,Did you see the paper airplane?,0.12,0.016,JPG\,thermometer02b,avocado01,scissors01,tennisball01b,paperairplane,banana01,strawberry,cigarette,potato02b,pineapple01a,blankImage,blankImage,blankImage,blankImage,blankImage,blankImage,blankImage,paperairplane,,,,,,,,,,,,0,3,3,191,,,,,,,,,,,,,,,,,,,,,,,,,,,,,,,,,,,222.74843049998162,223.7584241000004,223.74168289999943,224.33095559995854,224.33095559995854,None,225.53348569996888,None,left,1.5073305000551045,225.53348569996888,None,227.06152829999337,None,right,0.6840459000668488,227.06152829999337,None,,,,,,,,,,,,,,,,,,,,,,,PPT28,001,2022-07-04_15h04.29.055,ABstudy,2022.1.4,60.16275226300597,
AB,Lag1_T1P_T2P,1,P,P,7,8,6,3,11,Sand castle,Did you see the Sand castle?,0.12,0.016,JPG\,thermometer02b,candle08b,comb02a,toothbrush03b,brick,computerkeyboard02,sandcastle,stapler06,candy,birthdaycandle,clock04,blankImage,blankImage,blankImage,blankImage,blankImage,blankImage,sandcastle,,,,,,,,,,,,0,4,4,70,,,,,,,,,,,,,,,,,,,,,,,,,,,,,,,,,,,227.80997899995418,228.81347909994656,228.79678809997858,229.38020129996585,229.38020129996585,None,230.65876989997923,None,right,1.8699705000617541,230.65876989997923,None,232.55067449994385,None,left,4.081947000056971,232.55067449994385,None,,,,,,,,,,,,,,,,,,,,,,,PPT28,001,2022-07-04_15h04.29.055,ABstudy,2022.1.4,60.16275226300597,
AB,Lag1_T1P_T2P,1,P,P,7,8,6,4,12,Christmas Tree,Did you see the Christmas Tree?,0.12,0.016,JPG\,sandal,fan,printer02,cellphone,mushroom01,candle08b,firtree,stapler03a,lamp04a,hammer01,teabag,aceofdiamond,blankImage,blankImage,blankImage,blankImage,blankImage,firtree,,,,,,,,,,,,0,5,5,6,,,,,,,,,,,,,,,,,,,,,,,,,,,,,,,,,,,236.66382899996825,237.67238429997815,237.65554919996066,238.23997169994982,238.23997169994982,None,239.71586039999966,None,left,1.1643962000962347,239.71586039999966,None,240.9086227999651,None,right,0.5236476000864059,240.9086227999651,None,,,,,,,,,,,,,,,,,,,,,,,PPT28,001,2022-07-04_15h04.29.055,ABstudy,2022.1.4,60.16275226300597,
AB,Lag1_T1P_T2P,1,P,P,5,6,4,3,9,elephant,Did you see the elephant?,0.12,0.016,JPG\,celery,brownsugar,key01,sunglasses04,arugula,stapler04b,dice05a,tennisball01b,scarf,blankImage,blankImage,blankImage,blankImage,blankImage,blankImage,blankImage,blankImage,arugula,,,,,,,,,,,,0,6,6,54,,,,,,,,,,,,,,,,,,,,,,,,,,,,,,,,,,,241.46145349997096,242.4768097999622,242.4435075999936,243.03892299998552,243.03892299998552,None,244.19157539994922,None,right,1.5445156000787392,244.19157539994922,None,245.7639142999542,None,left,0.6120917000807822,245.7639142999542,None,,,,,,,,,,,,,,,,,,,,,,,PPT28,001,2022-07-04_15h04.29.055,ABstudy,2022.1.4,60.16275226300597,
AB,Lag5_T1P_T2A,5,P,A,6,11,5,4,15,Spear,Did you see the Spear?,0.12,0.016,JPG\,belt02a,measuringcup01,spoon01,chain01,greenolive,spear02,computerkeyboard02,onion,fan,strawberry,candle01,broom01,binoculars01b,ashtray01,pingpongpaddle01c,blankImage,blankImage,spear02,,,,,,,,,,,,0,7,7,227,,,,,,,,,,,,,,,,,,,,,,,,,,,,,,,,,,,246.40340629999992,247.41527469997527,247.39870749996044,247.9772646999918,247.9772646999918,None,249.8675385999959,None,left,0.9811898000189103,249.8675385999959,None,250.86899249994894,None,left,1.035143000073731,250.86899249994894,None,,,,,,,,,,,,,,,,,,,,,,,PPT28,001,2022-07-04_15h04.29.055,ABstudy,2022.1.4,60.16275226300597,
AB,Lag1_T1A_T2P,1,A,P,7,8,6,5,13,Horseshoe,Did you see the Horseshoe?,0.12,0.016,JPG\,leaf02a,apple07,cd,pineapple01a,envelope03a,paintbrush01,pig,stapler06,rice,feather03a,lemon02,balloon01b,avocado01,blankImage,blankImage,blankImage,blankImage,rooster,,,,,,,,,,,,0,8,8,241,,,,,,,,,,,,,,,,,,,,,,,,,,,,,,,,,,,251.94534389994806,252.95396709995111,252.93733269994846,253.52756099996623,253.52756099996623,None,255.1645025999751,None,right,1.5642641000449657,255.1645025999751,None,256.75814219994936,None,left,0.4344711000449024,256.75814219994936,None,,,,,,,,,,,,,,,,,,,,,,,PPT28,001,2022-07-04_15h04.29.055,ABstudy,2022.1.4,60.16275226300597,
AB,Lag1_T1P_T2P,1,P,P,6,7,5,3,10,Pool table,Did you see the Pool table?,0.12,0.016,JPG\,tomato01,pen04b,shirt02,carrot01,lamp04a,pooltable,stapler06,avocado01,sewingmachine01a,apple07,blankImage,blankImage,blankImage,blankImage,blankImage,blankImage,blankImage,pooltable,,,,,,,,,,,,0,9,9,29,,,,,,,,,,,,,,,,,,,,,,,,,,,,,,,,,,,257.2337723999517,258.2429046999896,258.2262359999586,258.79888409998966,258.79888409998966,None,260.07151159999194,None,left,1.1767035000375472,260.07151159999194,None,261.2792368999799,None,right,0.600786600029096,261.2792368999799,None,,,,,,,,,,,,,,,,,,,,,,,PPT28,001,2022-07-04_15h04.29.055,ABstudy,2022.1.4,60.16275226300597,
AB,Lag5_T1A_T2P,5,A,P,7,12,6,3,15,hockey puck,Did you see the hockey puck?,0.12,0.016,JPG\,toiletpaper01a,lipstick02a,potato02b,speaker04,globe,strawberry,carrot01,plate01b,sock01a,candle08b,pen04b,stapler04b,foosballtable,brick,pear01,blankImage,blankImage,frisbee,,,,,,,,,,,,0,10,10,260,,,,,,,,,,,,,,,,,,,,,,,,,,,,,,,,,,,261.9033265999751,262.9141767999972,262.89746579999337,263.4758920999593,263.4758920999593,None,265.33176639996236,None,right,2.588932000042405,265.33176639996236,None,267.95224619994406,None,left,1.552254600042943,267.95224619994406,None,,,,,,,,,,,,,,,,,,,,,,,PPT28,001,2022-07-04_15h04.29.055,ABstudy,2022.1.4,60.16275226300597,
AB,Lag5_T1A_T2P,5,A,P,8,13,7,5,18,fish,Did you see the fish?,0.12,0.016,JPG\,scissors01,grape01,mushroom01,toiletpaper01a,greenolive,pizza,cigarette,ashtray01,carrot01,pineapple01a,foosballtable,lipstick02a,stapler04b,tambourine02,potato02b,violin,blankImage,chimney,,,,,,,,,,,,0,11,11,283,,,,,,,,,,,,,,,,,,,,,,,,,,,,,,,,,,,269.5394551999634,270.5548740999657,270.52148969995324,271.09246429998893,271.09246429998893,None,273.0622753999778,None,right,1.4590861000469886,273.0622753999778,None,274.5424711999949,None,left,0.5303358000819571,274.5424711999949,None,,,,,,,,,,,,,,,,,,,,,,,PPT28,001,2022-07-04_15h04.29.055,ABstudy,2022.1.4,60.16275226300597,
AB,Lag1_T1P_T2P,1,P,P,8,9,7,5,14,Waterfall,Did you see the Waterfall?,0.12,0.016,JPG\,pizza,watch02a,greenolive,cucumber,match,violin,scissors01,waterfall,stapler03a,cherry01,ring01,cigarette,microscope,cellphone,blankImage,blankImage,blankImage,waterfall,,,,,,,,,,,,0,12,12,52,,,,,,,,,,,,,,,,,,,,,,,,,,,,,,,,,,,275.0993674999918,276.11068969999906,276.09380129998317,276.6957398999948,276.6957398999948,None,278.34906019998016,None,left,1.2594992000376806,278.34906019998016,None,279.6305462999735,None,left,0.3868884000694379,279.6305462999735,None,,,,,,,,,,,,,,,,,,,,,,,PPT28,001,2022-07-04_15h04.29.055,ABstudy,2022.1.4,60.16275226300597,
AB,Lag5_T1P_T2P,5,P,P,6,11,5,4,15,Witch hat,Did you see the Witch hat?,0.12,0.016,JPG\,pizza,watch02a,greenolive,cucumber,match,witchhat,scissors01,broom01,globe,cherry01,stapler03a,cigarette,microscope,cellphone,speaker04,blankImage,blankImage,witchhat,,,,,,,,,,,,0,13,13,101,,,,,,,,,,,,,,,,,,,,,,,,,,,,,,,,,,,280.05048129998613,281.065336599946,281.04865329997847,281.7173641999834,281.6322721999604,None,283.42566779995104,None,left,1.1903066000668332,283.42566779995104,None,284.6354682999663,None,left,0.39815330010605976,284.6354682999663,None,,,,,,,,,,,,,,,,,,,,,,,PPT28,001,2022-07-04_15h04.29.055,ABstudy,2022.1.4,60.16275226300597,
AB,Lag5_T1A_T2P,5,A,P,5,10,4,5,15,shower,Did you see the shower?,0.12,0.016,JPG\,sewingmachine01a,thermometer02b,sponge01,eraser,broccoli01a,fork03c,pizza,violin,belt02a,stapler04b,pineapple01a,tennisball01b,dandelion,cauliflower01,lemon02,blankImage,blankImage,redfox,,,,,,,,,,,,0,14,14,271,,,,,,,,,,,,,,,,,,,,,,,,,,,,,,,,,,,285.05826609994983,286.0704798999941,286.0537012999994,286.65046029997757,286.65046029997757,None,288.43570899998304,None,right,1.1564280000166036,288.43570899998304,None,289.6262128999806,None,right,0.4217980000539683,289.6262128999806,None,,,,,,,,,,,,,,,,,,,,,,,PPT28,001,2022-07-04_15h04.29.055,ABstudy,2022.1.4,60.16275226300597,
AB,Lag1_T1A_T2P,1,A,P,8,9,7,4,13,Fireplace,Did you see the Fireplace?,0.12,0.016,JPG\,scissors01,ashtray01,garlic01a,medal02b,cigarette,candle08b,leaf02a,envelope03a,stapler06,rice,toiletpaper01a,greenolive,cymbal,blankImage,blankImage,blankImage,blankImage,dartboard,,,,,,,,,,,,0,15,15,252,,,,,,,,,,,,,,,,,,,,,,,,,,,,,,,,,,,290.09198949998245,291.0918871999602,291.0752510999446,291.6591323999455,291.6591323999455,None,293.146550299949,None,right,1.0143481000559404,293.146550299949,None,294.17831199994544,None,left,0.4935601000324823,294.17831199994544,None,,,,,,,,,,,,,,,,,,,,,,,PPT28,001,2022-07-04_15h04.29.055,ABstudy,2022.1.4,60.16275226300597,
AB,Lag1_T1A_T2P,1,A,P,8,9,7,5,14,clock,Did you see the clock?,0.12,0.016,JPG\,speaker04,sewingmachine01a,eraser,violin,globe,belt02a,sunglasses04,cymbal,stapler01,greenolive,alligator,pear01,watch02a,screwdriver04b,blankImage,blankImage,blankImage,peacock,,,,,,,,,,,,0,16,16,240,,,,,,,,,,,,,,,,,,,,,,,,,,,,,,,,,,,294.7378907999955,295.7468615999678,295.71354899997823,296.2970534999622,296.2970534999622,None,297.9492381999735,None,left,1.9629647000692785,297.9492381999735,None,299.93409889994655,None,left,0.6100110000697896,299.93409889994655,None,,,,,,,,,,,,,,,,,,,,,,,PPT28,001,2022-07-04_15h04.29.055,ABstudy,2022.1.4,60.16275226300597,
AB,Lag5_T1P_T2A,5,P,A,8,13,7,4,17,knife,Did you see the knife?,0.12,0.016,JPG\,lighter01,hammer01,spoon01,chain01,cymbal,sponge01,lipstick02a,knife03,pig,watermelon01,cauliflower01,lemon02,broccoli01a,tableknife02,tennisball01b,toothbrush03b,blankImage,knife03,,,,,,,,,,,,0,17,17,214,,,,,,,,,,,,,,,,,,,,,,,,,,,,,,,,,,,300.5708963999641,301.5857980999863,301.55242639995413,302.11255949997576,302.11255949997576,None,304.1744378999574,None,left,1.0899617000832222,304.1744378999574,None,305.29245399998035,None,right,0.467290100059472,305.29245399998035,None,,,,,,,,,,,,,,,,,,,,,,,PPT28,001,2022-07-04_15h04.29.055,ABstudy,2022.1.4,60.16275226300597,
AB,Lag5_T1A_T2P,5,A,P,5,10,4,5,15,parachute,Did you see the parachute?,0.12,0.016,JPG\,binoculars01b,speaker04,sandal,envelope03a,plate01b,comb02a,battery02b,chain01,measuringcup01,stapler03b,medal02b,lamp04a,tennisball01b,pizza,cigarette,blankImage,blankImage,knee,,,,,,,,,,,,0,18,18,264,,,,,,,,,,,,,,,,,,,,,,,,,,,,,,,,,,,305.80240619997494,306.8081725999946,306.79249509994406,307.45648419996724,307.37700319994474,None,309.21814749995247,None,right,1.382320900040213,309.21814749995247,None,310.62844789994415,None,right,0.6120033000479452,310.62844789994415,None,,,,,,,,,,,,,,,,,,,,,,,PPT28,001,2022-07-04_15h04.29.055,ABstudy,2022.1.4,60.16275226300597,
AB,Lag5_T1A_T2P,5,A,P,7,12,6,4,16,church,Did you see the church?,0.12,0.016,JPG\,printer02,leaf02a,cauliflower01,sock01a,brownsugar,paintbrush01,pig,orange,belt02a,shirt02,key01,stapler06,cigarette,scissors01,envelope03a,blueberry01,blankImage,ant,,,,,,,,,,,,0,19,19,279,,,,,,,,,,,,,,,,,,,,,,,,,,,,,,,,,,,311.2658888999722,312.2799720999901,312.2631678999751,312.85121439996874,312.85121439996874,None,314.7626959999907,None,right,1.717261000070721,314.7626959999907,None,316.50056549999863,None,left,0.4511801000335254,316.50056549999863,None,,,,,,,,,,,,,,,,,,,,,,,PPT28,001,2022-07-04_15h04.29.055,ABstudy,2022.1.4,60.16275226300597,
AB,Lag5_T1P_T2P,5,P,P,7,12,6,3,15,Eye patch,Did you see the Eye patch?,0.12,0.016,JPG\,candle01,paintbrush01,scissors01,fan,microscope,toothbrush03b,eyepatch,watermelon01,teabag,pencil01,lemon02,stapler05,shirt02,cauliflower01,cd,blankImage,blankImage,eyepatch,,,,,,,,,,,,0,20,20,108,,,,,,,,,,,,,,,,,,,,,,,,,,,,,,,,,,,316.98976459994446,318.0022893999703,317.9857875999878,318.5785453999997,318.5785453999997,None,320.4026878000004,None,left,1.7897847000858746,320.4026878000004,None,322.22609149996424,None,right,0.4070681000011973,322.22609149996424,None,,,,,,,,,,,,,,,,,,,,,,,PPT28,001,2022-07-04_15h04.29.055,ABstudy,2022.1.4,60.16275226300597,
AB,Lag1_T1P_T2P,1,P,P,6,7,5,3,10,handcuffs,Did you see the handcuffs?,0.12,0.016,JPG\,sewingmachine01a,scarf,carrot01,book01b,eraser,handcuffs,stapler05,lipstick02a,printer02,garlic01a,blankImage,blankImage,blankImage,blankImage,blankImage,blankImage,blankImage,handcuffs,,,,,,,,,,,,0,21,21,2,,,,,,,,,,,,,,,,,,,,,,,,,,,,,,,,,,,322.6698468999821,323.6747147999704,323.64117749995785,324.24961279996205,324.24961279996205,None,325.46302039996954,None,left,0.9928237000713125,325.46302039996954,None,326.4776147999801,None,right,1.1941258000442758,326.4776147999801,None,,,,,,,,,,,,,,,,,,,,,,,PPT28,001,2022-07-04_15h04.29.055,ABstudy,2022.1.4,60.16275226300597,
AB,Lag5_T1P_T2P,5,P,P,5,10,4,5,15,scorpion,Did you see the scorpion?,0.12,0.016,JPG\,fan,tomato01,candy,screwdriver04b,scorpion,cd,thermometer02b,apple07,button01,stapler01,brownsugar,lighter01,clock01a,envelope03a,clock04,blankImage,blankImage,scorpion,,,,,,,,,,,,0,22,22,97,,,,,,,,,,,,,,,,,,,,,,,,,,,,,,,,,,,327.70120459998725,328.71270909998566,328.69750119996024,329.30725649994565,329.30725649994565,None,331.10217549995286,None,left,0.9619642000761814,331.10217549995286,None,332.08316769998055,None,left,0.4371722000068985,332.08316769998055,None,,,,,,,,,,,,,,,,,,,,,,,PPT28,001,2022-07-04_15h04.29.055,ABstudy,2022.1.4,60.16275226300597,
AB,Lag5_T1P_T2P,5,P,P,7,12,6,4,16,window,Did you see the window?,0.12,0.016,JPG\,cigarette,pig,banana01,strawberry,clock01a,plate01b,dormer,blueberry01,battery02b,pineapple01a,chain01,stapler01,candy,pen04b,teabag,birthdaycandle,blankImage,dormer,,,,,,,,,,,,0,23,23,170,,,,,,,,,,,,,,,,,,,,,,,,,,,,,,,,,,,332.601712099975,333.60092279996024,333.60092279996024,334.19854329997906,334.19854329997906,None,335.99160129996017,None,right,1.4494991000392474,335.99160129996017,None,337.4717294999864,None,left,0.44867140002315864,337.4717294999864,None,,,,,,,,,,,,,,,,,,,,,,,PPT28,001,2022-07-04_15h04.29.055,ABstudy,2022.1.4,60.16275226300597,
AB,Lag1_T1A_T2P,1,A,P,5,6,4,3,9,Stool,Did you see the Stool?,0.12,0.016,JPG\,cherry01,cymbal,envelope03a,foosballtable,shirt02,stapler01,sewingmachine01a,candle08b,battery02b,blankImage,blankImage,blankImage,blankImage,blankImage,blankImage,blankImage,blankImage,hulahoop,,,,,,,,,,,,0,24,24,236,,,,,,,,,,,,,,,,,,,,,,,,,,,,,,,,,,,337.94433719996596,338.95645549998153,338.9397338999552,339.5509627999854,339.5509627999854,None,340.6291754999547,None,right,2.5234157000668347,340.6291754999547,None,343.17710159998387,None,right,0.7185952000436373,343.17710159998387,None,,,,,,,,,,,,,,,,,,,,,,,PPT28,001,2022-07-04_15h04.29.055,ABstudy,2022.1.4,60.16275226300597,
AB,Lag1_T1P_T2A,1,P,A,8,9,7,5,14,Fridge,Did you see the Fridge?,0.12,0.016,JPG\,cherry01,cymbal,envelope03a,foosballtable,shirt02,cellphone,sewingmachine01a,fridge,battery02b,apple07,pencil01,screwdriver04b,strawberry,sunglasses04,blankImage,blankImage,blankImage,fridge,,,,,,,,,,,,0,25,25,173,,,,,,,,,,,,,,,,,,,,,,,,,,,,,,,,,,,343.9310323999962,344.94557859998895,344.91221379995113,345.4971454999759,345.4971454999759,None,347.25400989997433,None,left,0.9454021000419743,347.25400989997433,None,348.23230479995254,None,right,0.3917948000598699,348.23230479995254,None,,,,,,,,,,,,,,,,,,,,,,,PPT28,001,2022-07-04_15h04.29.055,ABstudy,2022.1.4,60.16275226300597,
AB,Lag5_T1P_T2P,5,P,P,6,11,5,3,14,Poker chips,Did you see the Poker chips?,0.12,0.016,JPG\,iron01b,brick,broccoli01a,balloon01b,tomato01,pokerchips,sandal,teabag,scissors01,pineapple01a,stapler04b,measuringcup01,sock01a,book01b,blankImage,blankImage,blankImage,pokerchips,,,,,,,,,,,,0,26,26,154,,,,,,,,,,,,,,,,,,,,,,,,,,,,,,,,,,,348.65658749995055,349.6671316999709,349.6503649999504,350.2412197999656,350.2412197999656,None,351.90504809998674,None,left,0.7267291000462137,351.90504809998674,None,352.6536270999932,None,left,0.466374900075607,352.6536270999932,None,,,,,,,,,,,,,,,,,,,,,,,PPT28,001,2022-07-04_15h04.29.055,ABstudy,2022.1.4,60.16275226300597,
AB,Lag5_T1P_T2A,5,P,A,8,13,7,5,18,telescope,Did you see the telescope?,0.12,0.016,JPG\,globe,broccoli01a,binoculars01b,iron01b,avocado01,dandelion,pineapple01a,handheldtelescope,fan,pizza,celery,blueberry01,sewingmachine01a,dice05a,watermelon01,candy,blankImage,handheldtelescope,,,,,,,,,,,,0,27,27,228,,,,,,,,,,,,,,,,,,,,,,,,,,,,,,,,,,,353.1435126999859,354.1546140999999,354.13786119996803,354.7294133999967,354.7294133999967,None,356.6474524999503,None,left,1.080583200091496,356.6474524999503,None,357.7586276999791,None,right,0.6181946000433527,357.7586276999791,None,,,,,,,,,,,,,,,,,,,,,,,PPT28,001,2022-07-04_15h04.29.055,ABstudy,2022.1.4,60.16275226300597,
AB,Lag5_T1P_T2P,5,P,P,6,11,5,5,16,sword,Did you see the sword?,0.12,0.016,JPG\,chain01,speaker04,avocado01,watermelon01,scarf,sword01,lamp04a,fork03c,toaster01,slipper03b,stapler03a,cucumber,teabag,ashtray01,computerkeyboard02,book01b,blankImage,sword01,,,,,,,,,,,,0,28,28,143,,,,,,,,,,,,,,,,,,,,,,,,,,,,,,,,,,,358.4696963999886,359.4769407999702,359.4601413999917,360.05307649995666,360.05307649995666,None,361.9366158999619,None,right,2.3277371000731364,361.9366158999619,None,364.2958477999782,None,right,1.113167000003159,364.2958477999782,None,,,,,,,,,,,,,,,,,,,,,,,PPT28,001,2022-07-04_15h04.29.055,ABstudy,2022.1.4,60.16275226300597,
AB,Lag5_T1P_T2A,5,P,A,5,10,4,4,14,rocket,Did you see the rocket?,0.12,0.016,JPG\,fan,tomato01,candy,screwdriver04b,spacerocket,cd,thermometer02b,apple07,button01,plate01b,brownsugar,lighter01,clock01a,envelope03a,blankImage,blankImage,blankImage,spacerocket,,,,,,,,,,,,0,29,29,226,,,,,,,,,,,,,,,,,,,,,,,,,,,,,,,,,,,365.4348948999541,366.4503206999507,366.41697459999705,367.038897899969,367.038897899969,None,368.76099309994606,None,left,0.8472260000417009,368.76099309994606,None,369.63681769999675,None,right,0.387327800039202,369.63681769999675,None,,,,,,,,,,,,,,,,,,,,,,,PPT28,001,2022-07-04_15h04.29.055,ABstudy,2022.1.4,60.16275226300597,
AB,Lag5_T1A_T2P,5,A,P,7,12,6,4,16,scooter,Did you see the scooter?,0.12,0.016,JPG\,cigarette,pig,banana01,strawberry,clock01a,plate01b,spoon01,blueberry01,battery02b,pineapple01a,chain01,stapler05,candy,pen04b,teabag,birthdaycandle,blankImage,1nose,,,,,,,,,,,,0,30,30,268,,,,,,,,,,,,,,,,,,,,,,,,,,,,,,,,,,,370.0562048999709,371.0716233999701,371.0382441999973,371.6198538999888,371.6198538999888,None,373.4942381999572,None,right,1.9535701000131667,373.4942381999572,None,375.47632019995945,None,left,0.5478141000494361,375.47632019995945,None,,,,,,,,,,,,,,,,,,,,,,,PPT28,001,2022-07-04_15h04.29.055,ABstudy,2022.1.4,60.16275226300597,
AB,Lag5_T1P_T2P,5,P,P,7,12,6,5,17,flamingo,Did you see the flamingo?,0.12,0.016,JPG\,pig,belt02a,rice,screwdriver04b,candle01,apple07,flamingo,pear01,feather03a,match,thermometer02b,stapler06,lemon02,violin,medal02b,pineapple01a,blankImage,flamingo,,,,,,,,,,,,0,31,31,153,,,,,,,,,,,,,,,,,,,,,,,,,,,,,,,,,,,376.0494021999766,377.0610694999923,377.044412999996,377.5452967999736,377.5452967999736,None,379.5742986999685,None,left,0.8340123000671156,379.5742986999685,None,380.43086349999066,None,left,0.45741900004213676,380.43086349999066,None,,,,,,,,,,,,,,,,,,,,,,,PPT28,001,2022-07-04_15h04.29.055,ABstudy,2022.1.4,60.16275226300597,
AB,Lag1_T1P_T2A,1,P,A,6,7,5,3,10,Dragon fly,Did you see the Dragon fly?,0.12,0.016,JPG\,leaf02a,pear01,measuringcup01,cigarette,fan,dragonfly01,teabag,tableknife02,ring01,pencil01,blankImage,blankImage,blankImage,blankImage,blankImage,blankImage,blankImage,dragonfly01,,,,,,,,,,,,0,32,32,185,,,,,,,,,,,,,,,,,,,,,,,,,,,,,,,,,,,380.9176328999456,381.9326941999607,381.89939310000045,382.4972414999502,382.4972414999502,None,383.71333449997474,None,left,0.9987333000754006,383.71333449997474,None,384.7351798999589,None,right,0.4247841000324115,384.7351798999589,None,,,,,,,,,,,,,,,,,,,,,,,PPT28,001,2022-07-04_15h04.29.055,ABstudy,2022.1.4,60.16275226300597,
AB,Lag1_T1P_T2P,1,P,P,5,6,4,3,9,mail box,Did you see the mail box?,0.12,0.016,JPG\,watermelon01,banana01,ring01,pencil01,mailbox02,stapler04b,cucumber,thermometer02b,key01,blankImage,blankImage,blankImage,blankImage,blankImage,blankImage,blankImage,blankImage,mailbox02,,,,,,,,,,,,0,33,33,21,,,,,,,,,,,,,,,,,,,,,,,,,,,,,,,,,,,385.2506985999644,386.2537033999688,386.23679549997905,386.8722996999859,386.8722996999859,None,387.88747560000047,None,left,0.9764084001071751,387.88747560000047,None,388.8896656999714,None,left,0.9908159000333399,388.8896656999714,None,,,,,,,,,,,,,,,,,,,,,,,PPT28,001,2022-07-04_15h04.29.055,ABstudy,2022.1.4,60.16275226300597,
AB,Lag5_T1P_T2P,5,P,P,5,10,4,5,15,mouse,Did you see the mouse?,0.12,0.016,JPG\,pineapple01a,leaf02a,grape01,toiletpaper01a,mouse,tennisball01b,spoon01,chain01,pig,stapler03a,ring01,lemon02,dice05a,pizza,potato02b,blankImage,blankImage,mouse,,,,,,,,,,,,0,34,34,94,,,,,,,,,,,,,,,,,,,,,,,,,,,,,,,,,,,389.9109192999895,390.9248716000002,390.90811419999227,391.5846283999854,391.505539899983,None,393.3787357999827,None,left,0.589119500014931,393.3787357999827,None,393.99437259999104,None,left,0.47711560007883236,393.99437259999104,None,,,,,,,,,,,,,,,,,,,,,,,PPT28,001,2022-07-04_15h04.29.055,ABstudy,2022.1.4,60.16275226300597,
AB,Lag5_T1P_T2P,5,P,P,7,12,6,5,17,American football helmet,Did you see the American football helmet?,0.12,0.016,JPG\,alligator,banana01,apple07,tomato01,button01,spoon01,footballhelmet,fork03c,slipper03b,potato02b,grape01,stapler03b,teabag,screwdriver04b,hammer01,tennisball01b,blankImage,footballhelmet,,,,,,,,,,,,0,35,35,148,,,,,,,,,,,,,,,,,,,,,,,,,,,,,,,,,,,394.5029952999903,395.512531699962,395.49602299998514,395.996636099997,395.996636099997,None,398.0261965999962,None,left,0.4933295000810176,398.0261965999962,None,398.549290899944,None,left,0.41824720008298755,398.549290899944,None,,,,,,,,,,,,,,,,,,,,,,,PPT28,001,2022-07-04_15h04.29.055,ABstudy,2022.1.4,60.16275226300597,
AB,Lag1_T1A_T2P,1,A,P,8,9,7,4,13,Toolbox,Did you see the Toolbox?,0.12,0.016,JPG\,pizza,printer02,medal02b,spoon01,grape01,lighter01,belt02a,watermelon01,stapler03b,battery02b,screw02,comb02a,cauliflower01,blankImage,blankImage,blankImage,blankImage,ladybug03,,,,,,,,,,,,0,36,36,237,,,,,,,,,,,,,,,,,,,,,,,,,,,,,,,,,,,399.005404699943,400.0168834999786,400.00014629994985,400.58686179999495,400.58686179999495,None,402.1637074999744,None,right,1.1480394001118839,402.1637074999744,None,403.33798229997046,None,left,0.5578353001037613,403.33798229997046,None,,,,,,,,,,,,,,,,,,,,,,,PPT28,001,2022-07-04_15h04.29.055,ABstudy,2022.1.4,60.16275226300597,
AB,Lag1_T1A_T2P,1,A,P,8,9,7,5,14,Wolf,Did you see the Wolf?,0.12,0.016,JPG\,carrot01,watch02a,clock04,microscope,toiletpaper01a,potato02b,alligator,ring01,stapler03b,watermelon01,cd,pencil01,measuringcup01,balloon01b,blankImage,blankImage,blankImage,dreamcatcher,,,,,,,,,,,,0,37,37,253,,,,,,,,,,,,,,,,,,,,,,,,,,,,,,,,,,,403.9274496999569,404.9389661999885,404.922458099958,405.5500569999567,405.5500569999567,None,407.29516109998804,None,right,0.7128527000313625,407.29516109998804,None,408.02499979996355,None,right,0.7433312000939623,408.02499979996355,None,,,,,,,,,,,,,,,,,,,,,,,PPT28,001,2022-07-04_15h04.29.055,ABstudy,2022.1.4,60.16275226300597,
AB,Lag5_T1A_T2P,5,A,P,6,11,5,5,16,bed,Did you see the bed?,0.12,0.016,JPG\,cellphone,tomato01,comb02a,candy,celery,cucumber,toaster01,fan,feather03a,pen04b,stapler03b,blueberry01,plate01b,cherry01,baseball01a,candle08b,blankImage,toolbox02,,,,,,,,,,,,0,38,38,274,,,,,,,,,,,,,,,,,,,,,,,,,,,,,,,,,,,408.79595539998263,409.81035349995364,409.7768606999889,410.37665109999944,410.37665109999944,None,412.34202779998304,None,right,1.5693135000183247,412.34202779998304,None,413.93135379999876,None,left,0.4126961000729352,413.93135379999876,None,,,,,,,,,,,,,,,,,,,,,,,PPT28,001,2022-07-04_15h04.29.055,ABstudy,2022.1.4,60.16275226300597,
AB,Lag5_T1A_T2P,5,A,P,8,13,7,3,16,ladder,Did you see the ladder?,0.12,0.016,JPG\,apple07,toiletpaper01a,pizza,dandelion,greenolive,eraser,microscope,violin,orange,lipstick02a,balloon01b,sandal,stapler01,fan,book01b,sewingmachine01a,blankImage,ostrich,,,,,,,,,,,,0,39,39,269,,,,,,,,,,,,,,,,,,,,,,,,,,,,,,,,,,,414.36843569995835,415.38268659997266,415.3660944000003,416.01670969999395,415.9344780999818,None,417.92870839999523,None,right,1.1755847000749782,417.92870839999523,None,419.13634319999255,None,left,0.39999840006930754,419.13634319999255,None,,,,,,,,,,,,,,,,,,,,,,,PPT28,001,2022-07-04_15h04.29.055,ABstudy,2022.1.4,60.16275226300597,
AB,Lag5_T1A_T2A,5,A,A,5,10,4,5,15,flower,Did you see the flower?,0.12,0.016,JPG\,clock01a,cellphone,toaster01,toothbrush03b,cauliflower01,microscope,comb02a,paintbrush01,scarf,clock04,sponge01,iron01b,watch02a,celery,ring01,blankImage,blankImage,stepladder,,,,,,,,,,,,0,40,40,303,,,,,,,,,,,,,,,,,,,,,,,,,,,,,,,,,,,419.5588831999921,420.57107999996515,420.5544049999444,421.12836299999617,421.12836299999617,None,422.9352833999437,None,right,1.2890858000610024,422.9352833999437,None,424.2411867999472,None,right,0.7424413000117056,424.2411867999472,None,,,,,,,,,,,,,,,,,,,,,,,PPT28,001,2022-07-04_15h04.29.055,ABstudy,2022.1.4,60.16275226300597,
AB,Lag1_T1P_T2P,1,P,P,8,9,7,4,13,kite,Did you see the kite?,0.12,0.016,JPG\,scissors01,balloon01b,eraser,feather03a,banana01,candle01,measuringcup01,kite,stapler04b,strawberry,pear01,carrot01,globe,blankImage,blankImage,blankImage,blankImage,kite,,,,,,,,,,,,0,41,41,17,,,,,,,,,,,,,,,,,,,,,,,,,,,,,,,,,,,425.01083319995087,426.0099249999621,425.9932803999982,426.57349339994835,426.57349339994835,None,428.28720259998227,None,left,0.8493914000573568,428.28720259998227,None,429.16464169998653,None,left,0.3003174000768922,429.16464169998653,None,,,,,,,,,,,,,,,,,,,,,,,PPT28,001,2022-07-04_15h04.29.055,ABstudy,2022.1.4,60.16275226300597,
AB,Lag5_T1P_T2P,5,P,P,5,10,4,5,15,sword fish,Did you see the sword fish?,0.12,0.016,JPG\,scissors01,balloon01b,eraser,feather03a,swordfish,candle01,measuringcup01,calculator01,thermometer02b,stapler04b,pear01,carrot01,globe,baseball01a,leaf02a,blankImage,blankImage,swordfish,,,,,,,,,,,,0,42,42,160,,,,,,,,,,,,,,,,,,,,,,,,,,,,,,,,,,,429.50057449995074,430.5147613000008,430.4993888999452,431.07814059994416,431.07814059994416,None,432.88955429999623,None,left,0.5500814000843093,432.88955429999623,None,433.46736650000094,None,right,0.38823660009074956,433.46736650000094,None,,,,,,,,,,,,,,,,,,,,,,,PPT28,001,2022-07-04_15h04.29.055,ABstudy,2022.1.4,60.16275226300597,
AB,Lag1_T1P_T2P,1,P,P,5,6,4,3,9,kangaroo,Did you see the kangaroo?,0.12,0.016,JPG\,candle01,shirt02,brick,orange,kangaroo,stapler03a,pizza,thermometer02b,book01b,blankImage,blankImage,blankImage,blankImage,blankImage,blankImage,blankImage,blankImage,kangaroo,,,,,,,,,,,,0,43,43,16,,,,,,,,,,,,,,,,,,,,,,,,,,,,,,,,,,,433.8900122999912,434.90208559995517,434.8851953999838,435.46541119995527,435.46541119995527,None,436.6126279999735,None,left,0.9787516000797041,436.6126279999735,None,437.6211505999672,None,right,2.0663466000696644,437.6211505999672,None,,,,,,,,,,,,,,,,,,,,,,,PPT28,001,2022-07-04_15h04.29.055,ABstudy,2022.1.4,60.16275226300597,
AB,Lag5_T1P_T2P,5,P,P,5,10,4,5,15,Eye,Did you see the Eye?,0.12,0.016,JPG\,apple07,toiletpaper01a,pizza,dandelion,eye,eraser,microscope,violin,orange,stapler01,balloon01b,sandal,lighter01,fan,book01b,blankImage,blankImage,eye,,,,,,,,,,,,0,44,44,171,,,,,,,,,,,,,,,,,,,,,,,,,,,,,,,,,,,439.70973740000045,440.72434299997985,440.69101049995515,441.2672843999462,441.2672843999462,None,443.0910501999897,None,left,0.5320557000814006,443.0910501999897,None,443.64433969999664,None,left,0.460684800054878,443.64433969999664,None,,,,,,,,,,,,,,,,,,,,,,,PPT28,001,2022-07-04_15h04.29.055,ABstudy,2022.1.4,60.16275226300597,
AB,Lag1_T1A_T2P,1,A,P,5,6,4,5,11,rake,Did you see the rake?,0.12,0.016,JPG\,candy,brownsugar,dice05a,cd,sock01a,stapler01,button01,potato02b,feather03a,grape01,dandelion,blankImage,blankImage,blankImage,blankImage,blankImage,blankImage,greatwhiteshark,,,,,,,,,,,,0,45,45,256,,,,,,,,,,,,,,,,,,,,,,,,,,,,,,,,,,,444.13090319995536,445.1456512999721,445.1121715999907,445.6874883999699,445.6874883999699,None,446.9651125999517,None,right,1.0519932000897825,446.9651125999517,None,448.04824789997656,None,left,1.7591936000972055,448.04824789997656,None,,,,,,,,,,,,,,,,,,,,,,,PPT28,001,2022-07-04_15h04.29.055,ABstudy,2022.1.4,60.16275226300597,
AB,Lag1_T1P_T2P,1,P,P,5,6,4,3,9,Pumpkin,Did you see the Pumpkin?,0.12,0.016,JPG\,binoculars01b,speaker04,sandal,envelope03a,pumpkin,stapler03b,battery02b,chain01,measuringcup01,blankImage,blankImage,blankImage,blankImage,blankImage,blankImage,blankImage,blankImage,pumpkin,,,,,,,,,,,,0,46,46,23,,,,,,,,,,,,,,,,,,,,,,,,,,,,,,,,,,,449.8363822999527,450.85103819996584,450.8176731999847,451.40439379995223,451.40439379995223,None,452.5027779999655,None,left,0.8725761000532657,452.5027779999655,None,453.4044424999738,None,right,0.3786558000720106,453.4044424999738,None,,,,,,,,,,,,,,,,,,,,,,,PPT28,001,2022-07-04_15h04.29.055,ABstudy,2022.1.4,60.16275226300597,
AB,Lag5_T1P_T2P,5,P,P,5,10,4,5,15,penguin,Did you see the penguin?,0.12,0.016,JPG\,watermelon01,cigarette,pintofbeer,cymbal,penguin,feather03a,cherry01,broom01,battery02b,stapler05,baseball01a,iron01b,garlic01a,computerkeyboard02,pig,blankImage,blankImage,penguin,,,,,,,,,,,,0,47,47,137,,,,,,,,,,,,,,,,,,,,,,,,,,,,,,,,,,,453.8122124999645,454.8214906999492,454.80474169994704,455.4013079999713,455.4013079999713,None,457.1258998999838,None,left,0.5295668000471778,457.1258998999838,None,457.6748551999917,None,left,0.5410560001037084,457.6748551999917,None,,,,,,,,,,,,,,,,,,,,,,,PPT28,001,2022-07-04_15h04.29.055,ABstudy,2022.1.4,60.16275226300597,
AB,Lag1_T1P_T2P,1,P,P,5,6,4,4,10,skateboard,Did you see the skateboard?,0.12,0.016,JPG\,binoculars01b,cymbal,pizza,candy,skateboard,stapler05,grape01,thermometer02b,speaker04,lemon02,blankImage,blankImage,blankImage,blankImage,blankImage,blankImage,blankImage,skateboard,,,,,,,,,,,,0,48,48,25,,,,,,,,,,,,,,,,,,,,,,,,,,,,,,,,,,,458.24609699996654,459.2595991999842,459.243072799989,459.82831679994706,459.82831679994706,None,461.06599239999196,None,left,0.9973302000435069,461.06599239999196,None,462.0957980999956,None,right,0.5523522000876255,462.0957980999956,None,,,,,,,,,,,,,,,,,,,,,,,PPT28,001,2022-07-04_15h04.29.055,ABstudy,2022.1.4,60.16275226300597,
AB,Lag1_T1P_T2P,1,P,P,5,6,4,5,11,football,Did you see the football?,0.12,0.016,JPG\,globe,belt02a,sponge01,violin,soccerball,stapler01,clock01a,microscope,balloon01b,scarf,teabag,blankImage,blankImage,blankImage,blankImage,blankImage,blankImage,soccerball,,,,,,,,,,,,0,49,49,26,,,,,,,,,,,,,,,,,,,,,,,,,,,,,,,,,,,462.7380126999924,463.74739009997575,463.73068019998027,464.34637509996537,464.34637509996537,None,465.5924658999429,None,left,0.871527900104411,465.5924658999429,None,466.4841611999436,None,left,0.33995910006342456,466.4841611999436,None,,,,,,,,,,,,,,,,,,,,,,,PPT28,001,2022-07-04_15h04.29.055,ABstudy,2022.1.4,60.16275226300597,
AB,Lag5_T1A_T2P,5,A,P,7,12,6,4,16,ear,Did you see the ear?,0.12,0.016,JPG\,candle01,shirt02,brick,orange,greenolive,toothbrush03b,pizza,thermometer02b,book01b,toiletpaper01a,sewingmachine01a,stapler01,candy,cymbal,potato02b,plate01b,blankImage,chair,,,,,,,,,,,,0,50,50,257,,,,,,,,,,,,,,,,,,,,,,,,,,,,,,,,,,,466.85350849997485,467.8678190999781,467.8510912999627,468.4236154999817,468.4236154999817,None,470.42613999999594,None,left,0.950734700076282,470.42613999999594,None,471.4054481999483,None,right,0.37857400003122166,471.4054481999483,None,,,,,,,,,,,,,,,,,,,,,,,PPT28,001,2022-07-04_15h04.29.055,ABstudy,2022.1.4,60.16275226300597,
AB,Lag5_T1P_T2P,5,P,P,6,11,5,3,14,ladder,Did you see the ladder?,0.12,0.016,JPG\,celery,orange,scissors01,balloon01b,avocado01,stepladder,mushroom01,sewingmachine01a,lighter01,dice05a,stapler01,fan,cd,sock01a,blankImage,blankImage,blankImage,stepladder,,,,,,,,,,,,0,51,51,119,,,,,,,,,,,,,,,,,,,,,,,,,,,,,,,,,,,471.8094655999448,472.8231100999983,472.8063280999777,473.39722679997794,473.39722679997794,None,475.0805693999864,None,left,1.095628100039903,475.0805693999864,None,476.1928687999607,None,right,0.703300700057298,476.1928687999607,None,,,,,,,,,,,,,,,,,,,,,,,PPT28,001,2022-07-04_15h04.29.055,ABstudy,2022.1.4,60.16275226300597,
AB,Lag1_T1A_T2P,1,A,P,5,6,4,3,9,microphone,Did you see the microphone?,0.12,0.016,JPG\,hammer01,sponge01,toaster01,cherry01,feather03a,stapler06,measuringcup01,pencil01,tennisball01b,blankImage,blankImage,blankImage,blankImage,blankImage,blankImage,blankImage,blankImage,cactus,,,,,,,,,,,,0,52,52,230,,,,,,,,,,,,,,,,,,,,,,,,,,,,,,,,,,,476.9292409999762,477.9444123999565,477.91113199997926,478.47822859999724,478.47822859999724,None,479.63237459998345,None,right,1.6387107000336982,479.63237459998345,None,481.2979730999796,None,left,0.5573331000632606,481.2979730999796,None,,,,,,,,,,,,,,,,,,,,,,,PPT28,001,2022-07-04_15h04.29.055,ABstudy,2022.1.4,60.16275226300597,
AB,Lag1_T1P_T2P,1,P,P,8,9,7,3,12,bridge,Did you see the bridge?,0.12,0.016,JPG\,speaker04,sewingmachine01a,eraser,violin,globe,belt02a,sunglasses04,bridge,stapler01,greenolive,alligator,pear01,blankImage,blankImage,blankImage,blankImage,blankImage,bridge,,,,,,,,,,,,0,53,53,78,,,,,,,,,,,,,,,,,,,,,,,,,,,,,,,,,,,481.88473519997206,482.8995675999904,482.8662444999791,483.45364459999837,483.45364459999837,None,484.93513949995395,None,left,0.7290792000712827,484.93513949995395,None,485.6856846999726,None,left,0.39346660004230216,485.6856846999726,None,,,,,,,,,,,,,,,,,,,,,,,PPT28,001,2022-07-04_15h04.29.055,ABstudy,2022.1.4,60.16275226300597,
AB,Lag5_T1P_T2P,5,P,P,8,13,7,4,17,surf board,Did you see the surf board?,0.12,0.016,JPG\,candy,brownsugar,dice05a,cd,sock01a,blueberry01,button01,surfboard,feather03a,grape01,dandelion,scissors01,stapler03b,candle08b,book01b,globe,blankImage,surfboard,,,,,,,,,,,,0,54,54,142,,,,,,,,,,,,,,,,,,,,,,,,,,,,,,,,,,,486.1069587999955,487.12044729996705,487.1038371999748,487.68002419994446,487.68002419994446,None,489.6040395999444,None,left,0.7953067000489682,489.6040395999444,None,490.42361629998777,None,right,0.3837016000179574,490.42361629998777,None,,,,,,,,,,,,,,,,,,,,,,,PPT28,001,2022-07-04_15h04.29.055,ABstudy,2022.1.4,60.16275226300597,
AB,Lag1_T1P_T2P,1,P,P,5,6,4,5,11,owl,Did you see the owl?,0.12,0.016,JPG\,cellphone,tomato01,comb02a,candy,barnowl,stapler03a,toaster01,fan,feather03a,pen04b,lemon02,blankImage,blankImage,blankImage,blankImage,blankImage,blankImage,barnowl,,,,,,,,,,,,0,55,55,33,,,,,,,,,,,,,,,,,,,,,,,,,,,,,,,,,,,490.8270196999656,491.8418205999769,491.80855169997085,492.386642599944,492.386642599944,None,493.7197833999526,None,left,1.7681682000402361,493.7197833999526,None,495.51257449999684,None,right,1.6072778000379913,495.51257449999684,None,,,,,,,,,,,,,,,,,,,,,,,PPT28,001,2022-07-04_15h04.29.055,ABstudy,2022.1.4,60.16275226300597,
AB,Lag5_T1P_T2A,5,P,A,5,10,4,3,13,cork,Did you see the cork?,0.12,0.016,JPG\,clock01a,grape01,plate01b,key01,cork02,feather03a,pineapple01a,iron01b,toothbrush03b,comb02a,broom01,toaster01,pizza,blankImage,blankImage,blankImage,blankImage,cork02,,,,,,,,,,,,0,56,56,209,,,,,,,,,,,,,,,,,,,,,,,,,,,,,,,,,,,497.1507378999959,498.1654712999589,498.1329756999621,498.7443832999561,498.7443832999561,None,500.35606209997786,None,left,0.5317699000588618,500.35606209997786,None,500.9175004999852,None,right,0.38542900007450953,500.9175004999852,None,,,,,,,,,,,,,,,,,,,,,,,PPT28,001,2022-07-04_15h04.29.055,ABstudy,2022.1.4,60.16275226300597,
AB,Lag5_T1P_T2A,5,P,A,6,11,5,5,16,hat,Did you see the hat?,0.12,0.016,JPG\,apple07,toiletpaper01a,pizza,dandelion,greenolive,pilgrimhat,microscope,violin,orange,lipstick02a,balloon01b,sandal,lighter01,fan,book01b,sewingmachine01a,blankImage,pilgrimhat,,,,,,,,,,,,0,57,57,206,,,,,,,,,,,,,,,,,,,,,,,,,,,,,,,,,,,501.33679039997514,502.35236779996194,502.3189308999572,502.94722849997925,502.94722849997925,None,504.91771819995483,None,left,0.5616375000681728,504.91771819995483,None,505.50578599999426,None,right,0.6060617000912316,505.50578599999426,None,,,,,,,,,,,,,,,,,,,,,,,PPT28,001,2022-07-04_15h04.29.055,ABstudy,2022.1.4,60.16275226300597,
AB,Lag1_T1A_T2P,1,A,P,6,7,5,3,10,curtain,Did you see the curtain?,0.12,0.016,JPG\,carrot01,greenolive,fork03c,chain01,ashtray01,watermelon01,stapler06,printer02,comb02a,toaster01,blankImage,blankImage,blankImage,blankImage,blankImage,blankImage,blankImage,birdhouse,,,,,,,,,,,,0,58,58,249,,,,,,,,,,,,,,,,,,,,,,,,,,,,,,,,,,,506.1419170999434,507.14097749994835,507.1252454999485,507.719322799996,507.719322799996,None,508.9855203999905,None,right,2.253669500059914,508.9855203999905,None,511.2611513999873,None,left,0.45003580005140975,511.2611513999873,None,,,,,,,,,,,,,,,,,,,,,,,PPT28,001,2022-07-04_15h04.29.055,ABstudy,2022.1.4,60.16275226300597,
AB,Lag1_T1P_T2A,1,P,A,7,8,6,4,12,gorilla,Did you see the gorilla?,0.12,0.016,JPG\,scissors01,ashtray01,garlic01a,medal02b,cigarette,candle08b,gorilla,envelope03a,cucumber,rice,toiletpaper01a,greenolive,blankImage,blankImage,blankImage,blankImage,blankImage,gorilla,,,,,,,,,,,,0,59,59,189,,,,,,,,,,,,,,,,,,,,,,,,,,,,,,,,,,,511.730517399963,512.7459383999812,512.7125925999717,513.3130467999727,513.3130467999727,None,514.7517002999666,None,left,0.8570785000338219,514.7517002999666,None,515.6325357999885,None,right,0.3271477000671439,515.6325357999885,None,,,,,,,,,,,,,,,,,,,,,,,PPT28,001,2022-07-04_15h04.29.055,ABstudy,2022.1.4,60.16275226300597,
AB,Lag5_T1P_T2P,5,P,P,8,13,7,5,18,hand,Did you see the hand?,0.12,0.016,JPG\,foosballtable,candy,envelope03a,microscope,pencil01,leaf02a,scissors01,hand01b,grape01,dandelion,pineapple01a,hammer01,stapler03a,thermometer02b,ring01,sewingmachine01a,blankImage,hand01b,,,,,,,,,,,,0,60,60,131,,,,,,,,,,,,,,,,,,,,,,,,,,,,,,,,,,,515.9861300999764,517.0008465999854,516.9682395999553,517.4710323999752,517.4710323999752,None,519.5090943999821,None,left,0.7060048000421375,519.5090943999821,None,520.2380721999798,None,left,0.2973151000915095,520.2380721999798,None,,,,,,,,,,,,,,,,,,,,,,,PPT28,001,2022-07-04_15h04.29.055,ABstudy,2022.1.4,60.16275226300597,
AB,Lag5_T1P_T2P,5,P,P,6,11,5,3,14,fish,Did you see the fish?,0.12,0.016,JPG\,broom01,globe,cellphone,tableknife02,cauliflower01,holdfast,ring01,alligator,rice,toaster01,stapler03b,grape01,microscope,cucumber,blankImage,blankImage,blankImage,holdfast,,,,,,,,,,,,0,61,61,133,,,,,,,,,,,,,,,,,,,,,,,,,,,,,,,,,,,520.5566085999599,521.5714210000006,521.5381012999569,522.109652199957,522.109652199957,None,523.8000101999496,None,left,0.735171300068032,523.8000101999496,None,524.5580685999594,None,left,0.30550230003427714,524.5580685999594,None,,,,,,,,,,,,,,,,,,,,,,,PPT28,001,2022-07-04_15h04.29.055,ABstudy,2022.1.4,60.16275226300597,
AB,Lag1_T1P_T2P,1,P,P,8,9,7,3,12,Eiffel tower,Did you see the Eiffel tower?,0.12,0.016,JPG\,celery,tennisball01b,calculator01,pear01,screw02,orange,button01,eiffeltower,stapler03b,apple07,iron01b,brownsugar,blankImage,blankImage,blankImage,blankImage,blankImage,eiffeltower,,,,,,,,,,,,0,62,62,40,,,,,,,,,,,,,,,,,,,,,,,,,,,,,,,,,,,524.9470502999611,525.9592953999527,525.9425458999467,526.5284787999699,526.5284787999699,None,527.8496434999979,None,left,0.606104500067886,527.8496434999979,None,528.4786588999559,None,left,0.4327450000564568,528.4786588999559,None,,,,,,,,,,,,,,,,,,,,,,,PPT28,001,2022-07-04_15h04.29.055,ABstudy,2022.1.4,60.16275226300597,
AB,Lag1_T1P_T2P,1,P,P,6,7,5,3,10,elephant,Did you see the elephant?,0.12,0.016,JPG\,clock01a,grape01,plate01b,key01,screwdriver04b,africanelephant,stapler03b,iron01b,toothbrush03b,comb02a,blankImage,blankImage,blankImage,blankImage,blankImage,blankImage,blankImage,africanelephant,,,,,,,,,,,,0,63,63,31,,,,,,,,,,,,,,,,,,,,,,,,,,,,,,,,,,,528.9349954999634,529.9464651999879,529.9297530999756,530.5143428999581,530.5143428999581,None,531.732038099959,None,left,0.8117151000769809,531.732038099959,None,532.5656704999856,None,right,0.32910110004013404,532.5656704999856,None,,,,,,,,,,,,,,,,,,,,,,,PPT28,001,2022-07-04_15h04.29.055,ABstudy,2022.1.4,60.16275226300597,
AB,Lag1_T1A_T2P,1,A,P,8,9,7,5,14,calendar,Did you see the calendar?,0.12,0.016,JPG\,foosballtable,candy,envelope03a,microscope,pencil01,leaf02a,scissors01,watermelon01,stapler04b,dandelion,pineapple01a,hammer01,celery,thermometer02b,blankImage,blankImage,blankImage,trampoline,,,,,,,,,,,,0,64,64,245,,,,,,,,,,,,,,,,,,,,,,,,,,,,,,,,,,,532.9182717999793,533.9337060999824,533.9002857999876,534.403965299949,534.403965299949,None,536.2426885999739,None,right,1.11676340008853,536.2426885999739,None,537.3875296999468,None,left,0.5079818000667728,537.3875296999468,None,,,,,,,,,,,,,,,,,,,,,,,PPT28,001,2022-07-04_15h04.29.055,ABstudy,2022.1.4,60.16275226300597,
AB,Lag1_T1P_T2P,1,P,P,7,8,6,5,13,school bus,Did you see the school bus?,0.12,0.016,JPG\,aceofdiamond,banana01,scissors01,pig,shirt02,leaf02a,schoolbus,stapler05,fork03c,tableknife02,balloon01b,match,toothbrush03b,blankImage,blankImage,blankImage,blankImage,schoolbus,,,,,,,,,,,,0,65,65,24,,,,,,,,,,,,,,,,,,,,,,,,,,,,,,,,,,,537.9258241999778,538.9388773999526,538.9221603999613,539.5233566999668,539.5233566999668,None,541.0871153999469,None,left,1.0405805000918917,541.0871153999469,None,542.1587956000003,None,right,0.3849701000726782,542.1587956000003,None,,,,,,,,,,,,,,,,,,,,,,,PPT28,001,2022-07-04_15h04.29.055,ABstudy,2022.1.4,60.16275226300597,
AB,Lag1_T1P_T2P,1,P,P,7,8,6,5,13,tiger,Did you see the tiger?,0.12,0.016,JPG\,globe,broccoli01a,binoculars01b,iron01b,avocado01,dandelion,tiger02,stapler03b,fan,pizza,celery,blueberry01,sewingmachine01a,blankImage,blankImage,blankImage,blankImage,tiger02,,,,,,,,,,,,0,66,66,50,,,,,,,,,,,,,,,,,,,,,,,,,,,,,,,,,,,542.5809057999868,543.5935065999511,543.5768150999793,544.176555199956,544.176555199956,None,545.7637536999537,None,left,0.531368000083603,545.7637536999537,None,546.3147438999731,None,right,0.3721067000296898,546.3147438999731,None,,,,,,,,,,,,,,,,,,,,,,,PPT28,001,2022-07-04_15h04.29.055,ABstudy,2022.1.4,60.16275226300597,
AB,Lag5_T1P_T2P,5,P,P,7,12,6,5,17,flower,Did you see the flower?,0.12,0.016,JPG\,leaf02a,pear01,measuringcup01,cigarette,fan,lemon02,lily,tableknife02,ring01,pencil01,cellphone,stapler01,carrot01,binoculars01b,sock01a,book01b,blankImage,lily,,,,,,,,,,,,0,67,67,134,,,,,,,,,,,,,,,,,,,,,,,,,,,,,,,,,,,546.7190764999832,547.7309676999575,547.7142501999624,548.3010580999544,548.3010580999544,None,550.2216882999637,None,left,0.4254060000530444,550.2216882999637,None,550.6670724999858,None,left,0.3088660000357777,550.6670724999858,None,,,,,,,,,,,,,,,,,,,,,,,PPT28,001,2022-07-04_15h04.29.055,ABstudy,2022.1.4,60.16275226300597,
AB,Lag1_T1P_T2P,1,P,P,8,9,7,5,14,helicopter,Did you see the helicopter?,0.12,0.016,JPG\,broom01,globe,cellphone,tableknife02,cauliflower01,scissors01,ring01,helicopter,stapler01,toaster01,cigarette,grape01,microscope,cucumber,blankImage,blankImage,blankImage,helicopter,,,,,,,,,,,,0,68,68,85,,,,,,,,,,,,,,,,,,,,,,,,,,,,,,,,,,,551.0047362999758,552.0184077999438,552.0017310999683,552.6334886999684,552.5614921999513,None,554.334169299982,None,left,0.44929680007044226,554.334169299982,None,554.8048484999454,None,left,0.29068300005747005,554.8048484999454,None,,,,,,,,,,,,,,,,,,,,,,,PPT28,001,2022-07-04_15h04.29.055,ABstudy,2022.1.4,60.16275226300597,
AB,Lag1_T1A_T2P,1,A,P,8,9,7,4,13,Rabbit,Did you see the Rabbit?,0.12,0.016,JPG\,lamp04a,broccoli01a,alligator,garlic01a,dandelion,brownsugar,avocado01,ring01,stapler06,cellphone,medal02b,cd,calculator01,blankImage,blankImage,blankImage,blankImage,escalator,,,,,,,,,,,,0,69,69,254,,,,,,,,,,,,,,,,,,,,,,,,,,,,,,,,,,,555.1871639999445,556.1894474999863,556.172645899991,556.7711155999568,556.7711155999568,None,558.3371620999533,None,right,1.1258761000353843,558.3371620999533,None,559.4928585999878,None,left,0.4266398000763729,559.4928585999878,None,,,,,,,,,,,,,,,,,,,,,,,PPT28,001,2022-07-04_15h04.29.055,ABstudy,2022.1.4,60.16275226300597,
AB,Lag1_T1P_T2P,1,P,P,8,9,7,4,13,Bird House,Did you see the Bird House?,0.12,0.016,JPG\,toiletpaper01a,mushroom01,medal02b,sandal,rice,cd,feather03a,birdhouse,stapler01,garlic01a,toaster01,belt02a,cigarette,blankImage,blankImage,blankImage,blankImage,birdhouse,,,,,,,,,,,,0,70,70,77,,,,,,,,,,,,,,,,,,,,,,,,,,,,,,,,,,,559.9530645999475,560.9608546999516,560.9440752999508,561.5397012999747,561.5397012999747,None,563.0762180999736,None,left,0.8666634000255726,563.0762180999736,None,563.9635749999434,None,right,0.41958180005894974,563.9635749999434,None,,,,,,,,,,,,,,,,,,,,,,,PPT28,001,2022-07-04_15h04.29.055,ABstudy,2022.1.4,60.16275226300597,
AB,Lag5_T1P_T2P,5,P,P,7,12,6,4,16,Fireplace,Did you see the Fireplace?,0.12,0.016,JPG\,printer02,leaf02a,cauliflower01,sock01a,brownsugar,paintbrush01,fireplace,orange,belt02a,shirt02,key01,stapler01,cigarette,scissors01,envelope03a,blueberry01,blankImage,fireplace,,,,,,,,,,,,0,71,71,88,,,,,,,,,,,,,,,,,,,,,,,,,,,,,,,,,,,564.4179098999593,565.4317441999447,565.415097799967,566.0800668000011,565.9917121999897,None,567.9505557999946,None,left,0.5285221000667661,567.9505557999946,None,568.501475899946,None,right,0.3374734000535682,568.501475899946,None,,,,,,,,,,,,,,,,,,,,,,,PPT28,001,2022-07-04_15h04.29.055,ABstudy,2022.1.4,60.16275226300597,
AB,Lag5_T1P_T2P,5,P,P,5,10,4,5,15,Ipad,Did you see the Ipad?,0.12,0.016,JPG\,fork03c,toothbrush03b,cellphone,fan,ipad02,clock01a,ring01,eraser,sunglasses04,stapler06,violin,brownsugar,blueberry01,pear01,pencil01,blankImage,blankImage,ipad02,,,,,,,,,,,,0,72,72,150,,,,,,,,,,,,,,,,,,,,,,,,,,,,,,,,,,,568.8739674999961,569.8862203999888,569.8695195999462,570.4403581999941,570.4403581999941,None,572.284898599959,None,left,0.6184416000614874,572.284898599959,None,572.9228716999642,None,right,0.5643341000541113,572.9228716999642,None,,,,,,,,,,,,,,,,,,,,,,,PPT28,001,2022-07-04_15h04.29.055,ABstudy,2022.1.4,60.16275226300597,
AB,Lag1_T1A_T2P,1,A,P,8,9,7,4,13,nose,Did you see the nose?,0.12,0.016,JPG\,pizza,strawberry,potato02b,speaker04,battery02b,iron01b,dice05a,cellphone,stapler06,banana01,medal02b,baseball01a,toaster01,blankImage,blankImage,blankImage,blankImage,cow,,,,,,,,,,,,0,73,73,231,,,,,,,,,,,,,,,,,,,,,,,,,,,,,,,,,,,573.5097378999926,574.5243524999823,574.4909163999837,575.0849464999628,575.0849464999628,None,576.6839081999497,None,right,1.195740100054536,576.6839081999497,None,577.9135668999515,None,left,0.5498989000334404,577.9135668999515,None,,,,,,,,,,,,,,,,,,,,,,,PPT28,001,2022-07-04_15h04.29.055,ABstudy,2022.1.4,60.16275226300597,
AB,Lag1_T1A_T2P,1,A,P,6,7,5,5,12,Treadmill,Did you see the Treadmill?,0.12,0.016,JPG\,pencil01,broccoli01a,button01,sponge01,watermelon01,lipstick02a,stapler04b,fan,lighter01,sock01a,spoon01,blueberry01,blankImage,blankImage,blankImage,blankImage,blankImage,magneticcompass,,,,,,,,,,,,0,74,74,238,,,,,,,,,,,,,,,,,,,,,,,,,,,,,,,,,,,578.4970029999968,579.5124227999477,579.4789833999821,580.0549002999905,580.0549002999905,None,581.5219018999487,None,right,1.1096059000701644,581.5219018999487,None,582.6488913999638,None,left,1.0141981000779197,582.6488913999638,None,,,,,,,,,,,,,,,,,,,,,,,PPT28,001,2022-07-04_15h04.29.055,ABstudy,2022.1.4,60.16275226300597,
AB,Lag5_T1A_T2P,5,A,P,5,10,4,5,15,Eye patch,Did you see the Eye patch?,0.12,0.016,JPG\,scissors01,balloon01b,eraser,feather03a,banana01,candle01,measuringcup01,calculator01,thermometer02b,stapler03b,pear01,carrot01,globe,baseball01a,leaf02a,blankImage,blankImage,cross01,,,,,,,,,,,,0,75,75,258,,,,,,,,,,,,,,,,,,,,,,,,,,,,,,,,,,,583.6864228999475,584.7013761999551,584.6842908999533,585.3119155999739,585.2347191999434,None,587.0673462999985,None,right,0.8282351000234485,587.0673462999985,None,587.9236454999773,None,right,0.9794972000527196,587.9236454999773,None,,,,,,,,,,,,,,,,,,,,,,,PPT28,001,2022-07-04_15h04.29.055,ABstudy,2022.1.4,60.16275226300597,
AB,Lag1_T1P_T2P,1,P,P,7,8,6,5,13,arrow,Did you see the arrow?,0.12,0.016,JPG\,pencil01,broccoli01a,button01,sponge01,watermelon01,lipstick02a,arrow02,stapler04b,lighter01,sock01a,spoon01,blueberry01,belt02a,blankImage,blankImage,blankImage,blankImage,arrow02,,,,,,,,,,,,0,76,76,76,,,,,,,,,,,,,,,,,,,,,,,,,,,,,,,,,,,588.9246824999573,589.9396218999755,589.9062671999563,590.4802764999913,590.4802764999913,None,592.1217919999617,None,left,1.429781900078524,592.1217919999617,None,593.579530899995,None,left,0.19624830008251593,593.579530899995,None,,,,,,,,,,,,,,,,,,,,,,,PPT28,001,2022-07-04_15h04.29.055,ABstudy,2022.1.4,60.16275226300597,
AB,Lag1_T1A_T2P,1,A,P,7,8,6,5,13,Ant,Did you see the Ant?,0.12,0.016,JPG\,rice,watermelon01,tableknife02,scarf,computerkeyboard02,cauliflower01,battery02b,stapler03b,book01b,sandal,sponge01,microscope,tomato01,blankImage,blankImage,blankImage,blankImage,sandcastle,,,,,,,,,,,,0,77,77,242,,,,,,,,,,,,,,,,,,,,,,,,,,,,,,,,,,,593.8043920999626,594.8107828999637,594.7941183999646,595.3679515999975,595.3679515999975,None,596.9612869999837,None,right,2.33402470004512,596.9612869999837,None,599.3154553999775,None,left,0.22879370010923594,599.3154553999775,None,,,,,,,,,,,,,,,,,,,,,,,PPT28,001,2022-07-04_15h04.29.055,ABstudy,2022.1.4,60.16275226300597,
AB,Lag5_T1P_T2A,5,P,A,6,11,5,3,14,Balcony,Did you see the Balcony?,0.12,0.016,JPG\,tomato01,pen04b,shirt02,carrot01,lamp04a,balcony02,pizza,avocado01,sewingmachine01a,apple07,iron01b,book01b,chain01,sock01a,blankImage,blankImage,blankImage,balcony02,,,,,,,,,,,,0,78,78,207,,,,,,,,,,,,,,,,,,,,,,,,,,,,,,,,,,,599.5690604999545,600.5834052999853,600.550009300001,601.1433751999866,601.1433751999866,None,602.9218452999485,None,left,0.7175076000858098,602.9218452999485,None,603.6699937999947,None,right,0.6104149000602774,603.6699937999947,None,,,,,,,,,,,,,,,,,,,,,,,PPT28,001,2022-07-04_15h04.29.055,ABstudy,2022.1.4,60.16275226300597,
AB,Lag5_T1P_T2A,5,P,A,8,13,7,3,16,leaf blower,Did you see the leaf blower?,0.12,0.016,JPG\,printer02,leaf02a,cauliflower01,sock01a,brownsugar,paintbrush01,pig,leafblower01,belt02a,shirt02,key01,match,cigarette,scissors01,envelope03a,blueberry01,blankImage,leafblower01,,,,,,,,,,,,0,79,79,216,,,,,,,,,,,,,,,,,,,,,,,,,,,,,,,,,,,604.3108423999511,605.3215350999963,605.3051608999958,605.9162605999736,605.9162605999736,None,607.8529995999997,None,left,0.7858605000656098,607.8529995999997,None,608.6580952999648,None,right,0.4295411000493914,608.6580952999648,None,,,,,,,,,,,,,,,,,,,,,,,PPT28,001,2022-07-04_15h04.29.055,ABstudy,2022.1.4,60.16275226300597,
AB,Lag1_T1P_T2A,1,P,A,5,6,4,4,10,flower,Did you see the flower?,0.12,0.016,JPG\,broom01,globe,cellphone,tableknife02,daffodil,scissors01,ring01,alligator,rice,toaster01,blankImage,blankImage,blankImage,blankImage,blankImage,blankImage,blankImage,daffodil,,,,,,,,,,,,0,80,80,184,,,,,,,,,,,,,,,,,,,,,,,,,,,,,,,,,,,609.1531374999904,610.1595712999697,610.1428809999488,610.7212719999952,610.7212719999952,None,611.9631331999553,None,left,0.5881175000686198,611.9631331999553,None,612.5814374999609,None,right,0.5697951000765897,612.5814374999609,None,,,,,,,,,,,,,,,,,,,,,,,PPT28,001,2022-07-04_15h04.29.055,ABstudy,2022.1.4,60.16275226300597,
AB,Lag1_T1P_T2P,1,P,P,5,6,4,4,10,Ladybug,Did you see the Ladybug?,0.12,0.016,JPG\,key01,apple07,ring01,leaf02a,ladybug03,stapler04b,violin,sponge01,baseball01a,thermometer02b,blankImage,blankImage,blankImage,blankImage,blankImage,blankImage,blankImage,ladybug03,,,,,,,,,,,,0,81,81,65,,,,,,,,,,,,,,,,,,,,,,,,,,,,,,,,,,,613.1932615999831,614.1967900999589,614.1800830999855,614.7669642999535,614.7669642999535,None,616.0000574999722,None,left,0.663168300059624,616.0000574999722,None,616.6831063999562,None,right,0.2933012000285089,616.6831063999562,None,,,,,,,,,,,,,,,,,,,,,,,PPT28,001,2022-07-04_15h04.29.055,ABstudy,2022.1.4,60.16275226300597,
AB,Lag5_T1P_T2P,5,P,P,5,10,4,3,13,rose,Did you see the rose?,0.12,0.016,JPG\,lipstick02a,cucumber,candle08b,printer02,rose,violin,paintbrush01,lighter01,belt02a,stapler03b,thermometer02b,microscope,cigarette,blankImage,blankImage,blankImage,blankImage,rose,,,,,,,,,,,,0,82,82,158,,,,,,,,,,,,,,,,,,,,,,,,,,,,,,,,,,,617.0029796999879,618.017635199998,617.9841543999501,618.5675370999961,618.5675370999961,None,620.1630207999842,None,left,0.6364507000544108,620.1630207999842,None,620.8202157999622,None,left,0.3623011000454426,620.8202157999622,None,,,,,,,,,,,,,,,,,,,,,,,PPT28,001,2022-07-04_15h04.29.055,ABstudy,2022.1.4,60.16275226300597,
AB,Lag5_T1P_T2P,5,P,P,5,10,4,4,14,Christmas lights,Did you see the Christmas lights?,0.12,0.016,JPG\,binoculars01b,cymbal,pizza,candy,christmaslights,sponge01,grape01,thermometer02b,speaker04,stapler03a,lipstick02a,strawberry,candle01,tambourine02,blankImage,blankImage,blankImage,christmaslights,,,,,,,,,,,,0,83,83,168,,,,,,,,,,,,,,,,,,,,,,,,,,,,,,,,,,,621.2073521999991,622.2218465999467,622.1884671999724,622.7779010999948,622.7779010999948,None,624.5174521000008,None,left,0.4419115000637248,624.5174521000008,None,624.9912911999854,None,left,0.3113888000953011,624.9912911999854,None,,,,,,,,,,,,,,,,,,,,,,,PPT28,001,2022-07-04_15h04.29.055,ABstudy,2022.1.4,60.16275226300597,
AB,Lag1_T1P_T2A,1,P,A,7,8,6,4,12,gate,Did you see the gate?,0.12,0.016,JPG\,pen04b,speaker04,lighter01,cherry01,pintofbeer,onion,entrancegate,toothbrush03b,broom01,sewingmachine01a,book01b,iron01b,blankImage,blankImage,blankImage,blankImage,blankImage,entrancegate,,,,,,,,,,,,0,84,84,187,,,,,,,,,,,,,,,,,,,,,,,,,,,,,,,,,,,625.3292796999449,626.3426027999958,626.3259558999562,626.9535722999717,626.8829736999469,None,628.3630079999566,None,right,1.531604900083039,628.3630079999566,None,629.9126173999975,None,right,1.77407820004737,629.9126173999975,None,,,,,,,,,,,,,,,,,,,,,,,PPT28,001,2022-07-04_15h04.29.055,ABstudy,2022.1.4,60.16275226300597,
AB,Lag1_T1P_T2A,1,P,A,6,7,5,5,12,Tombstone,Did you see the Tombstone?,0.12,0.016,JPG\,cigarette,ashtray01,envelope03a,sandal,chain01,tombstone,broccoli01a,tomato01,dandelion,candle01,lemon02,button01,blankImage,blankImage,blankImage,blankImage,blankImage,tombstone,,,,,,,,,,,,0,85,85,196,,,,,,,,,,,,,,,,,,,,,,,,,,,,,,,,,,,631.7169532999978,632.7321115999948,632.6987419999787,633.2787827999564,633.2787827999564,None,634.8118635999854,None,left,0.9716166000580415,634.8118635999854,None,635.8021806999459,None,right,0.30145370005629957,635.8021806999459,None,,,,,,,,,,,,,,,,,,,,,,,PPT28,001,2022-07-04_15h04.29.055,ABstudy,2022.1.4,60.16275226300597,
AB,Lag5_T1P_T2A,5,P,A,6,11,5,3,14,toy truck,Did you see the toy truck?,0.12,0.016,JPG\,globe,belt02a,sponge01,violin,fork03c,bluecheese,clock01a,microscope,balloon01b,scarf,teabag,pen04b,brick,brownsugar,blankImage,blankImage,blankImage,bluecheese,,,,,,,,,,,,0,86,86,204,,,,,,,,,,,,,,,,,,,,,,,,,,,,,,,,,,,636.1399590999936,637.1534143999452,637.1363521999447,637.726010399987,637.726010399987,None,639.3233813999686,None,right,1.035193000047002,639.3233813999686,None,640.3896560999565,None,left,2.2970814000582322,640.3896560999565,None,,,,,,,,,,,,,,,,,,,,,,,PPT28,001,2022-07-04_15h04.29.055,ABstudy,2022.1.4,60.16275226300597,
AB,Lag1_T1P_T2P,1,P,P,7,8,6,4,12,trophy,Did you see the trophy?,0.12,0.016,JPG\,cherry01,cymbal,envelope03a,foosballtable,shirt02,cellphone,trophy01,stapler04b,battery02b,apple07,pencil01,screwdriver04b,blankImage,blankImage,blankImage,blankImage,blankImage,trophy01,,,,,,,,,,,,0,87,87,74,,,,,,,,,,,,,,,,,,,,,,,,,,,,,,,,,,,642.711537199968,643.726343999966,643.692931299971,644.2671667999821,644.2671667999821,None,645.7607823999715,None,left,2.405910400033463,645.7607823999715,None,648.1976852999651,None,right,0.8892554000485688,648.1976852999651,None,,,,,,,,,,,,,,,,,,,,,,,PPT28,001,2022-07-04_15h04.29.055,ABstudy,2022.1.4,60.16275226300597,
AB,Lag1_T1P_T2P,1,P,P,6,7,5,4,11,Bow,Did you see the Bow?,0.12,0.016,JPG\,broom01,plate01b,scissors01,garlic01a,paintbrush01,bow,stapler03a,shirt02,speaker04,celery,sandal,blankImage,blankImage,blankImage,blankImage,blankImage,blankImage,bow,,,,,,,,,,,,0,88,88,53,,,,,,,,,,,,,,,,,,,,,,,,,,,,,,,,,,,649.1202556999633,650.1330837999703,650.1163296999875,650.6794375999598,650.6794375999598,None,652.0210852999589,None,left,0.8653630000771955,652.0210852999589,None,652.91908589995,None,right,0.5603120000450872,652.91908589995,None,,,,,,,,,,,,,,,,,,,,,,,PPT28,001,2022-07-04_15h04.29.055,ABstudy,2022.1.4,60.16275226300597,
AB,Lag5_T1P_T2P,5,P,P,8,13,7,3,16,church,Did you see the church?,0.12,0.016,JPG\,clock01a,cellphone,toaster01,toothbrush03b,cauliflower01,microscope,comb02a,church,scarf,clock04,sponge01,iron01b,stapler06,celery,ring01,ashtray01,blankImage,church,,,,,,,,,,,,0,89,89,129,,,,,,,,,,,,,,,,,,,,,,,,,,,,,,,,,,,653.5067847999744,654.5205863999436,654.5039028999745,655.1159603999695,655.1159603999695,None,656.9935797999497,None,left,0.5809206000994891,656.9935797999497,None,657.6070529999561,None,left,0.25542600004700944,657.6070529999561,None,,,,,,,,,,,,,,,,,,,,,,,PPT28,001,2022-07-04_15h04.29.055,ABstudy,2022.1.4,60.16275226300597,
AB,Lag5_T1P_T2P,5,P,P,6,11,5,4,15,boxing glove,Did you see the boxing glove?,0.12,0.016,JPG\,button01,celery,birthdaycandle,apple07,avocado01,boxingglove01,dice05a,teabag,clock01a,feather03a,stapler06,scarf,orange,battery02b,thermometer02b,blankImage,blankImage,boxingglove01,,,,,,,,,,,,0,90,90,165,,,,,,,,,,,,,,,,,,,,,,,,,,,,,,,,,,,657.8978661999572,658.9082919999491,658.8915536999702,659.4847924999776,659.4847924999776,None,661.2719111999613,None,left,0.6394243000540882,661.2719111999613,None,661.9283835999668,None,left,0.367917200026568,661.9283835999668,None,,,,,,,,,,,,,,,,,,,,,,,PPT28,001,2022-07-04_15h04.29.055,ABstudy,2022.1.4,60.16275226300597,
AB,Lag5_T1P_T2P,5,P,P,6,11,5,3,14,shower head,Did you see the shower head?,0.12,0.016,JPG\,belt02a,measuringcup01,spoon01,chain01,greenolive,showerhead01,computerkeyboard02,onion,fan,strawberry,stapler01,broom01,binoculars01b,ashtray01,blankImage,blankImage,blankImage,showerhead01,,,,,,,,,,,,0,91,91,98,,,,,,,,,,,,,,,,,,,,,,,,,,,,,,,,,,,662.3886412999709,663.3961500999867,663.3794118999504,663.9592715999461,663.9592715999461,None,665.5916785000009,None,left,0.4475458000670187,665.5916785000009,None,666.068166699959,None,left,0.3866301000234671,666.068166699959,None,,,,,,,,,,,,,,,,,,,,,,,PPT28,001,2022-07-04_15h04.29.055,ABstudy,2022.1.4,60.16275226300597,
AB,Lag5_T1A_T2P,5,A,P,7,12,6,5,17,funnel,Did you see the funnel?,0.12,0.016,JPG\,iron01b,orange,birthdaycandle,potato02b,cauliflower01,pencil01,key01,candle08b,celery,tableknife02,pen04b,stapler04b,ring01,rice,lemon02,tomato01,blankImage,englishcucumber,,,,,,,,,,,,0,92,92,259,,,,,,,,,,,,,,,,,,,,,,,,,,,,,,,,,,,666.4879977999954,667.5003508999944,667.4836761999759,668.1129812999861,668.1129812999861,None,670.0841238999856,None,right,0.9311009000521153,670.0841238999856,None,671.0368807999766,None,left,0.3541342000826262,671.0368807999766,None,,,,,,,,,,,,,,,,,,,,,,,PPT28,001,2022-07-04_15h04.29.055,ABstudy,2022.1.4,60.16275226300597,
AB,Lag1_T1P_T2P,1,P,P,8,9,7,4,13,dart board,Did you see the dart board?,0.12,0.016,JPG\,rice,watermelon01,tableknife02,scarf,computerkeyboard02,cauliflower01,battery02b,dartboard,stapler01,sandal,sponge01,microscope,tomato01,blankImage,blankImage,blankImage,blankImage,dartboard,,,,,,,,,,,,0,93,93,80,,,,,,,,,,,,,,,,,,,,,,,,,,,,,,,,,,,671.4233324999805,672.4383406999987,672.4049656999996,672.983644199965,672.983644199965,None,674.5994052999886,None,left,0.7039713000995107,674.5994052999886,None,675.325069399958,None,left,0.43372950004413724,675.325069399958,None,,,,,,,,,,,,,,,,,,,,,,,PPT28,001,2022-07-04_15h04.29.055,ABstudy,2022.1.4,60.16275226300597,
AB,Lag5_T1P_T2P,5,P,P,8,13,7,3,16,parachute,Did you see the parachute?,0.12,0.016,JPG\,brick,plate01b,pen04b,toaster01,screwdriver04b,candle01,envelope03a,parachute,pig,ring01,orange,clock01a,stapler03b,calculator01,mushroom01,chain01,blankImage,parachute,,,,,,,,,,,,0,94,94,114,,,,,,,,,,,,,,,,,,,,,,,,,,,,,,,,,,,675.7817728999653,676.7928972999798,676.7760919999564,677.3691632999689,677.3691632999689,None,679.3009086999809,None,left,0.4495551000582054,679.3009086999809,None,679.779395999969,None,left,0.3150077000609599,679.779395999969,None,,,,,,,,,,,,,,,,,,,,,,,PPT28,001,2022-07-04_15h04.29.055,ABstudy,2022.1.4,60.16275226300597,
AB,Lag1_T1P_T2P,1,P,P,8,9,7,5,14,finger print,Did you see the finger print?,0.12,0.016,JPG\,chain01,pen04b,birthdaycandle,watermelon01,broom01,scissors01,measuringcup01,fingerprint,stapler01,calculator01,ashtray01,feather03a,sewingmachine01a,thermometer02b,blankImage,blankImage,blankImage,fingerprint,,,,,,,,,,,,0,95,95,62,,,,,,,,,,,,,,,,,,,,,,,,,,,,,,,,,,,680.1201589999837,681.1304965999443,681.1138448999845,681.679449999996,681.679449999996,None,683.434649999952,None,left,1.627902600041125,683.434649999952,None,685.0841764999786,None,left,0.42628900008276105,685.0841764999786,None,,,,,,,,,,,,,,,,,,,,,,,PPT28,001,2022-07-04_15h04.29.055,ABstudy,2022.1.4,60.16275226300597,
AB,Lag5_T1P_T2P,5,P,P,7,12,6,4,16,Bird feeder,Did you see the Bird feeder?,0.12,0.016,JPG\,watermelon01,banana01,ring01,pencil01,tomato01,speaker04,birdfeeder,thermometer02b,key01,foosballtable,violin,stapler06,clock04,dice05a,pen04b,mushroom01,blankImage,birdfeeder,,,,,,,,,,,,0,96,96,164,,,,,,,,,,,,,,,,,,,,,,,,,,,,,,,,,,,685.5765557999839,686.5863327999832,686.5708259999519,687.1930256999913,687.1930256999913,None,689.068096199946,None,left,0.7222615000791848,689.068096199946,None,689.8225247999653,None,left,0.32780060003278777,689.8225247999653,None,,,,,,,,,,,,,,,,,,,,,,,PPT28,001,2022-07-04_15h04.29.055,ABstudy,2022.1.4,60.16275226300597,
AB,Lag5_T1P_T2A,5,P,A,7,12,6,5,17,shoulder,Did you see the shoulder?,0.12,0.016,JPG\,battery02b,sunglasses04,pear01,tennisball01b,clock01a,speaker04,shoulder,spoon01,alligator,pineapple01a,avocado01,grape01,blueberry01,violin,strawberry,sock01a,blankImage,shoulder,,,,,,,,,,,,0,97,97,224,,,,,,,,,,,,,,,,,,,,,,,,,,,,,,,,,,,690.1768593999441,691.1910287999781,691.173716499994,691.7536878999672,691.7536878999672,None,693.7440821999917,None,left,0.6149919000454247,693.7440821999917,None,694.3767472999752,None,right,0.4696693000732921,694.3767472999752,None,,,,,,,,,,,,,,,,,,,,,,,PPT28,001,2022-07-04_15h04.29.055,ABstudy,2022.1.4,60.16275226300597,
AB,Lag1_T1A_T2P,1,A,P,6,7,5,5,12,Piano,Did you see the Piano?,0.12,0.016,JPG\,toiletpaper01a,mushroom01,medal02b,sandal,rice,cd,stapler01,pizza,candle08b,garlic01a,toaster01,belt02a,blankImage,blankImage,blankImage,blankImage,blankImage,moose,,,,,,,,,,,,0,98,98,239,,,,,,,,,,,,,,,,,,,,,,,,,,,,,,,,,,,694.8798797999625,695.8949530999525,695.8616003999487,696.4474896999891,696.4474896999891,None,697.9071989999502,None,right,2.171280200011097,697.9071989999502,None,700.0991709999507,None,left,0.5634244000539184,700.0991709999507,None,,,,,,,,,,,,,,,,,,,,,,,PPT28,001,2022-07-04_15h04.29.055,ABstudy,2022.1.4,60.16275226300597,
AB,Lag1_T1P_T2P,1,P,P,7,8,6,3,11,swing,Did you see the swing?,0.12,0.016,JPG\,sewingmachine01a,thermometer02b,sponge01,eraser,broccoli01a,fork03c,swing,stapler03b,belt02a,medal02b,pineapple01a,blankImage,blankImage,blankImage,blankImage,blankImage,blankImage,swing,,,,,,,,,,,,0,99,99,30,,,,,,,,,,,,,,,,,,,,,,,,,,,,,,,,,,,700.6863869999652,701.6846479999949,701.6693023999687,702.4014395999839,702.3196278999676,None,703.642744599958,None,left,1.7400743000907823,703.642744599958,None,705.4048277999973,None,left,0.7458581000682898,705.4048277999973,None,,,,,,,,,,,,,,,,,,,,,,,PPT28,001,2022-07-04_15h04.29.055,ABstudy,2022.1.4,60.16275226300597,
AB,Lag5_T1A_T2A,5,A,A,7,12,6,3,15,Christmas lights,Did you see the Christmas lights?,0.12,0.016,JPG\,toiletpaper01a,mushroom01,medal02b,sandal,rice,cd,feather03a,pizza,candle08b,garlic01a,toaster01,belt02a,cigarette,violin,lemon02,blankImage,blankImage,rockbass,,,,,,,,,,,,0,100,100,299,,,,,,,,,,,,,,,,,,,,,,,,,,,,,,,,,,,706.1792779999669,707.1897273999639,707.1731830999488,707.7805922999978,707.7805922999978,None,709.6001217999728,None,right,1.0143268000683747,709.6001217999728,None,710.6432769999956,None,left,0.9154964000335895,710.6432769999956,None,,,,,,,,,,,,,,,,,,,,,,,PPT28,001,2022-07-04_15h04.29.055,ABstudy,2022.1.4,60.16275226300597,
AB,Lag1_T1A_T2A,1,A,A,8,9,7,4,13,sword fish,Did you see the sword fish?,0.12,0.016,JPG\,pizza,strawberry,potato02b,speaker04,battery02b,iron01b,dice05a,cellphone,globe,banana01,medal02b,baseball01a,toaster01,blankImage,blankImage,blankImage,blankImage,ear,,,,,,,,,,,,0,101,101,295,,,,,,,,,,,,,,,,,,,,,,,,,,,,,,,,,,,711.5854591999669,712.5952338999487,712.5786498999805,713.2122396999621,713.2122396999621,None,714.7740515999612,None,right,0.8728006000746973,714.7740515999612,None,715.6646183999837,None,right,0.7740034000598826,715.6646183999837,None,,,,,,,,,,,,,,,,,,,,,,,PPT28,001,2022-07-04_15h04.29.055,ABstudy,2022.1.4,60.16275226300597,
AB,Lag1_T1A_T2A,1,A,A,5,6,4,4,10,rose,Did you see the rose?,0.12,0.016,JPG\,sock01a,spoon01,alligator,comb02a,printer02,medal02b,lamp04a,cymbal,greenolive,computerkeyboard02,blankImage,blankImage,blankImage,blankImage,blankImage,blankImage,blankImage,cruiseship,,,,,,,,,,,,0,102,102,293,,,,,,,,,,,,,,,,,,,,,,,,,,,,,,,,,,,716.4677566999453,717.483171299973,717.44979839999,718.0406755000004,718.0406755000004,None,719.2518894999521,None,right,1.019410900073126,719.2518894999521,None,720.3054674999439,None,right,0.4135155000840314,720.3054674999439,None,,,,,,,,,,,,,,,,,,,,,,,PPT28,001,2022-07-04_15h04.29.055,ABstudy,2022.1.4,60.16275226300597,
AB,Lag1_T1P_T2P,1,P,P,8,9,7,3,12,snow globe,Did you see the Snow globe?,0.12,0.016,JPG\,eraser,measuringcup01,chain01,birthdaycandle,ring01,rice,8ball,stapler04b,stapler01,celery,microscope,sunglasses04,blankImage,blankImage,blankImage,blankImage,blankImage,snowglobe,,,,,,,,,,,,0,103,103,56,,,,,,,,,,,,,,,,,,,,,,,,,,,,,,,,,,,720.7386397999944,721.7539917999529,721.7206230000011,722.3009889999521,722.3009889999521,None,723.8100218999898,None,right,1.292729600041639,723.8100218999898,None,725.124037099944,None,left,0.36271150002721697,725.124037099944,None,,,,,,,,,,,,,,,,,,,,,,,PPT28,001,2022-07-04_15h04.29.055,ABstudy,2022.1.4,60.16275226300597,
AB,Lag5_T1P_T2A,5,P,A,5,10,4,4,14,Ship in a bottle,Did you see the Ship in a bottle?,0.12,0.016,JPG\,sewingmachine01a,thermometer02b,sponge01,eraser,shipinabottle,fork03c,pizza,violin,belt02a,medal02b,pineapple01a,tennisball01b,dandelion,cauliflower01,blankImage,blankImage,blankImage,shipinabottle,,,,,,,,,,,,0,104,104,208,,,,,,,,,,,,,,,,,,,,,,,,,,,,,,,,,,,725.5118155999808,726.5254920999869,726.5088056999957,727.1222705999971,727.1222705999971,None,728.8018970999983,None,right,0.7650059000588953,728.8018970999983,None,729.5951614999794,None,left,0.5397547000902705,729.5951614999794,None,,,,,,,,,,,,,,,,,,,,,,,PPT28,001,2022-07-04_15h04.29.055,ABstudy,2022.1.4,60.16275226300597,
AB,Lag1_T1P_T2A,1,P,A,6,7,5,5,12,Barn,Did you see the Barn?,0.12,0.016,JPG\,celery,pencil01,fan,foosballtable,iron01b,barn,potato02b,fork03c,button01,pineapple01a,baseball01a,printer02,blankImage,blankImage,blankImage,blankImage,blankImage,barn,,,,,,,,,,,,0,105,105,181,,,,,,,,,,,,,,,,,,,,,,,,,,,,,,,,,,,730.1650635999977,731.180170299951,731.1468032999546,731.7252478999435,731.7252478999435,None,733.2976964999689,None,left,0.8050037000211887,733.2976964999689,None,734.1333019999438,None,right,0.3053954000934027,734.1333019999438,None,,,,,,,,,,,,,,,,,,,,,,,PPT28,001,2022-07-04_15h04.29.055,ABstudy,2022.1.4,60.16275226300597,
AB,Lag1_T1P_T2A,1,P,A,8,9,7,5,14,Sausage,Did you see the Sausage?,0.12,0.016,JPG\,pencil01,broccoli01a,button01,sponge01,watermelon01,lipstick02a,comb02a,sausage,lighter01,sock01a,spoon01,blueberry01,belt02a,onion,blankImage,blankImage,blankImage,sausage,,,,,,,,,,,,0,106,106,175,,,,,,,,,,,,,,,,,,,,,,,,,,,,,,,,,,,734.4733346999856,735.4844988999539,735.4677911999752,736.0451384999906,736.0451384999906,None,737.7406939999782,None,left,1.0823671000543982,737.7406939999782,None,738.8546422999934,None,right,0.31949740002164617,738.8546422999934,None,,,,,,,,,,,,,,,,,,,,,,,PPT28,001,2022-07-04_15h04.29.055,ABstudy,2022.1.4,60.16275226300597,
AB,Lag1_T1P_T2A,1,P,A,7,8,6,5,13,Well,Did you see the Well?,0.12,0.016,JPG\,leaf02a,apple07,cd,pineapple01a,envelope03a,paintbrush01,well,acorn,rice,feather03a,lemon02,balloon01b,avocado01,blankImage,blankImage,blankImage,blankImage,well,,,,,,,,,,,,0,107,107,178,,,,,,,,,,,,,,,,,,,,,,,,,,,,,,,,,,,739.2073512999923,740.2226549999905,740.1892523999559,740.7835713999812,740.7835713999812,None,742.396404399944,None,left,0.6507345000864007,742.396404399944,None,743.0756271999562,None,right,0.6996182000730187,743.0756271999562,None,,,,,,,,,,,,,,,,,,,,,,,PPT28,001,2022-07-04_15h04.29.055,ABstudy,2022.1.4,60.16275226300597,
AB,Lag1_T1P_T2P,1,P,P,5,6,4,5,11,shark,Did you see the shark?,0.12,0.016,JPG\,cucumber,sponge01,alligator,pear01,greatwhiteshark,stapler06,clock04,battery02b,fork03c,binoculars01b,mushroom01,blankImage,blankImage,blankImage,blankImage,blankImage,blankImage,greatwhiteshark,,,,,,,,,,,,0,108,108,84,,,,,,,,,,,,,,,,,,,,,,,,,,,,,,,,,,,743.7964729999658,744.8105009999708,744.7937520999694,745.4071898999973,745.4071898999973,None,746.7447581999586,None,left,0.6063190000713803,746.7447581999586,None,747.380504599947,None,left,0.4259482000488788,747.380504599947,None,,,,,,,,,,,,,,,,,,,,,,,PPT28,001,2022-07-04_15h04.29.055,ABstudy,2022.1.4,60.16275226300597,
AB,Lag1_T1P_T2P,1,P,P,6,7,5,5,12,exit sign,Did you see the exit sign?,0.12,0.016,JPG\,printer02,envelope03a,potato02b,calculator01,tableknife02,exitsign,stapler01,pig,broom01,greenolive,candle08b,battery02b,blankImage,blankImage,blankImage,blankImage,blankImage,exitsign,,,,,,,,,,,,0,109,109,41,,,,,,,,,,,,,,,,,,,,,,,,,,,,,,,,,,,747.833598199999,748.8475965999532,748.8143104999908,749.4016283999663,749.4016283999663,None,750.8756170999841,None,left,0.5066614000825211,750.8756170999841,None,751.4001970999525,None,left,0.39068290003342554,751.4001970999525,None,,,,,,,,,,,,,,,,,,,,,,,PPT28,001,2022-07-04_15h04.29.055,ABstudy,2022.1.4,60.16275226300597,
AB,Lag5_T1P_T2P,5,P,P,8,13,7,5,18,bed,Did you see the bed?,0.12,0.016,JPG\,pencil01,broccoli01a,button01,sponge01,watermelon01,lipstick02a,comb02a,bed,lighter01,sock01a,spoon01,blueberry01,stapler04b,onion,grape01,avocado01,blankImage,bed,,,,,,,,,,,,0,110,110,124,,,,,,,,,,,,,,,,,,,,,,,,,,,,,,,,,,,751.8195643999497,752.8350034999894,752.8016366999946,753.3768409999902,753.3768409999902,None,755.3646140999626,None,left,0.5231287000351585,755.3646140999626,None,755.9051072999719,None,left,0.3578326000715606,755.9051072999719,None,,,,,,,,,,,,,,,,,,,,,,,PPT28,001,2022-07-04_15h04.29.055,ABstudy,2022.1.4,60.16275226300597,
AB,Lag5_T1P_T2P,5,P,P,6,11,5,5,16,table,Did you see the table?,0.12,0.016,JPG\,birthdaycandle,mushroom01,strawberry,match,cherry01,table01,hammer01,thermometer02b,sock01a,ring01,stapler06,banana01,toiletpaper01a,key01,sponge01,teabag,blankImage,table01,,,,,,,,,,,,0,111,111,144,,,,,,,,,,,,,,,,,,,,,,,,,,,,,,,,,,,756.2918549999595,757.3063284999807,757.2728819999611,757.7737166999723,757.7737166999723,None,759.8026762999943,None,left,0.5637331000179984,759.8026762999943,None,760.3935161999543,None,left,0.38240870006848127,760.3935161999543,None,,,,,,,,,,,,,,,,,,,,,,,PPT28,001,2022-07-04_15h04.29.055,ABstudy,2022.1.4,60.16275226300597,
AB,Lag1_T1P_T2P,1,P,P,8,9,7,3,12,cactus,Did you see the cactus?,0.12,0.016,JPG\,tennisball01b,paintbrush01,medal02b,apple07,speaker04,iron01b,avocado01,cactus,stapler03b,toiletpaper01a,watermelon01,candle01,blankImage,blankImage,blankImage,blankImage,blankImage,cactus,,,,,,,,,,,,0,112,112,58,,,,,,,,,,,,,,,,,,,,,,,,,,,,,,,,,,,760.7969305999577,761.8108878999483,761.7942039999762,762.3792786999838,762.3792786999838,None,763.8196341999574,None,left,1.8274766000686213,763.8196341999574,None,765.6656084999559,None,right,0.6931488000554964,765.6656084999559,None,,,,,,,,,,,,,,,,,,,,,,,PPT28,001,2022-07-04_15h04.29.055,ABstudy,2022.1.4,60.16275226300597,
AB,Lag5_T1P_T2A,5,P,A,5,10,4,3,13,martini glass,Did you see the martini glass?,0.12,0.016,JPG\,brick,eraser,cucumber,ashtray01,martiniglass01b,binoculars01b,lipstick02a,screwdriver04b,grape01,brownsugar,battery02b,iron01b,dice05a,blankImage,blankImage,blankImage,blankImage,martiniglass01b,,,,,,,,,,,,0,113,113,217,,,,,,,,,,,,,,,,,,,,,,,,,,,,,,,,,,,766.3904368999647,767.3997438999941,767.3831507999566,767.9635865999735,767.9635865999735,None,769.5461597999674,None,left,0.796782500052359,769.5461597999674,None,770.3691046999884,None,right,0.41456080006901175,770.3691046999884,None,,,,,,,,,,,,,,,,,,,,,,,PPT28,001,2022-07-04_15h04.29.055,ABstudy,2022.1.4,60.16275226300597,
AB,Lag1_T1P_T2P,1,P,P,6,7,5,3,10,jelly beans,Did you see the jelly beans?,0.12,0.016,JPG\,lipstick02a,cucumber,candle08b,printer02,grape01,jellybean,stapler01,lighter01,belt02a,balloon01b,blankImage,blankImage,blankImage,blankImage,blankImage,blankImage,blankImage,jellybean,,,,,,,,,,,,0,114,114,15,,,,,,,,,,,,,,,,,,,,,,,,,,,,,,,,,,,770.8086337999557,771.8211867999635,771.8055676999502,772.4542035999475,772.3775210999884,None,773.602141499985,None,left,0.7647528000525199,773.602141499985,None,774.3900483999751,None,left,0.5528011000715196,774.3900483999751,None,,,,,,,,,,,,,,,,,,,,,,,PPT28,001,2022-07-04_15h04.29.055,ABstudy,2022.1.4,60.16275226300597,
AB,Lag5_T1A_T2P,5,A,P,7,12,6,5,17,Rollerblade,Did you see the Rollerblade?,0.12,0.016,JPG\,binoculars01b,cymbal,pizza,candy,paintbrush01,sponge01,grape01,thermometer02b,speaker04,lemon02,lipstick02a,stapler03b,candle01,8ball,plate01b,pen04b,blankImage,lion,,,,,,,,,,,,0,115,115,266,,,,,,,,,,,,,,,,,,,,,,,,,,,,,,,,,,,775.0140771999722,776.025330799981,776.0096896999748,776.6033445999492,776.6033445999492,None,778.541384799988,None,right,1.3531900000525638,778.541384799988,None,779.912317499984,None,left,0.4463249000837095,779.912317499984,None,,,,,,,,,,,,,,,,,,,,,,,PPT28,001,2022-07-04_15h04.29.055,ABstudy,2022.1.4,60.16275226300597,
AB,Lag5_T1P_T2A,5,P,A,7,12,6,3,15,Toy soldier,Did you see the Toy soldier?,0.12,0.016,JPG\,binoculars01b,cymbal,pizza,candy,paintbrush01,sponge01,toysoldier01b,thermometer02b,speaker04,lemon02,lipstick02a,strawberry,candle01,acorn,plate01b,blankImage,blankImage,toysoldier01b,,,,,,,,,,,,0,116,116,203,,,,,,,,,,,,,,,,,,,,,,,,,,,,,,,,,,,780.38407619996,781.3969409999554,781.3801219999441,781.9810799999977,781.9810799999977,None,783.8247917999979,None,left,1.7027841000817716,783.8247917999979,None,785.5512627999997,None,right,1.8715908000594936,785.5512627999997,None,,,,,,,,,,,,,,,,,,,,,,,PPT28,001,2022-07-04_15h04.29.055,ABstudy,2022.1.4,60.16275226300597,
AB,Lag5_T1P_T2A,5,P,A,5,10,4,3,13,Totem Pole,Did you see the Totem Pole?,0.12,0.016,JPG\,canoftennisballs,banana01,scissors01,pig,totempole,leaf02a,pear01,sponge01,fork03c,tableknife02,balloon01b,match,toothbrush03b,blankImage,blankImage,blankImage,blankImage,totempole,,,,,,,,,,,,0,117,117,202,,,,,,,,,,,,,,,,,,,,,,,,,,,,,,,,,,,787.4596356999828,788.4710510000004,788.4556456999853,789.107008699968,789.0325899999589,None,790.645354999986,None,left,0.9694809000357054,790.645354999986,None,791.6405879999511,None,right,0.34299510007258505,791.6405879999511,None,,,,,,,,,,,,,,,,,,,,,,,PPT28,001,2022-07-04_15h04.29.055,ABstudy,2022.1.4,60.16275226300597,
AB,Lag1_T1P_T2A,1,P,A,7,8,6,3,11,Snowshoe,Did you see the Snowshoe?,0.12,0.016,JPG\,birthdaycandle,mushroom01,strawberry,match,cherry01,eraser,snowshoe,thermometer02b,sock01a,ring01,feather03a,blankImage,blankImage,blankImage,blankImage,blankImage,blankImage,snowshoe,,,,,,,,,,,,0,118,118,194,,,,,,,,,,,,,,,,,,,,,,,,,,,,,,,,,,,792.0134250999545,793.0252815999556,793.0085192999686,793.5090842999634,793.5090842999634,None,794.9066172999446,None,left,0.9233845000853762,794.9066172999446,None,795.8613781999447,None,right,0.6330792000517249,795.8613781999447,None,,,,,,,,,,,,,,,,,,,,,,,PPT28,001,2022-07-04_15h04.29.055,ABstudy,2022.1.4,60.16275226300597,
AB,Lag1_T1P_T2P,1,P,P,7,8,6,3,11,compass,Did you see the compass?,0.12,0.016,JPG\,brick,plate01b,pen04b,toaster01,screwdriver04b,candle01,magneticcompass,stapler03a,pig,ring01,orange,blankImage,blankImage,blankImage,blankImage,blankImage,blankImage,magneticcompass,,,,,,,,,,,,0,119,119,66,,,,,,,,,,,,,,,,,,,,,,,,,,,,,,,,,,,796.5183342999662,797.5298748999485,797.5130610999768,798.0891286999686,798.0891286999686,None,799.4999113999656,None,left,1.0677092000260018,799.4999113999656,None,800.5991664999747,None,right,1.4635339000960812,800.5991664999747,None,,,,,,,,,,,,,,,,,,,,,,,PPT28,001,2022-07-04_15h04.29.055,ABstudy,2022.1.4,60.16275226300597,
AB,Lag1_T1A_T2A,1,A,A,8,9,7,3,12,punching bag,Did you see the punching bag?,0.12,0.016,JPG\,key01,apple07,ring01,leaf02a,hammer01,tableknife02,violin,sponge01,baseball01a,thermometer02b,celery,calculator01,blankImage,blankImage,blankImage,blankImage,blankImage,bathtub,,,,,,,,,,,,0,120,120,291,,,,,,,,,,,,,,,,,,,,,,,,,,,,,,,,,,,802.1319556999952,803.1358145999839,803.1200882999692,803.7086412999779,803.7086412999779,None,805.1168982999516,None,right,1.0330627000657842,805.1168982999516,None,806.17137919995,None,right,0.8835910000489093,806.17137919995,None,,,,,,,,,,,,,,,,,,,,,,,PPT28,001,2022-07-04_15h04.29.055,ABstudy,2022.1.4,60.16275226300597,
AB,Lag1_T1A_T2A,1,A,A,7,8,6,5,13,Poker chips,Did you see the Poker chips?,0.12,0.016,JPG\,violin,pizza,toothbrush03b,pineapple01a,banana01,ashtray01,candy,dandelion,clock04,sock01a,microscope,speaker04,calculator01,blankImage,blankImage,blankImage,blankImage,cigar,,,,,,,,,,,,0,121,121,289,,,,,,,,,,,,,,,,,,,,,,,,,,,,,,,,,,,807.0759914999944,808.0900121999439,808.0732808999601,808.6534371999442,808.6534371999442,None,810.3043031999841,None,right,0.8697135000256822,810.3043031999841,None,811.1934405999491,None,right,0.2446914000902325,811.1934405999491,None,,,,,,,,,,,,,,,,,,,,,,,PPT28,001,2022-07-04_15h04.29.055,ABstudy,2022.1.4,60.16275226300597,
AB,Lag1_T1A_T2P,1,A,P,5,6,4,3,9,Crown,Did you see the Crown?,0.12,0.016,JPG\,leaf02a,pear01,measuringcup01,cigarette,fan,stapler04b,teabag,tableknife02,ring01,blankImage,blankImage,blankImage,blankImage,blankImage,blankImage,blankImage,blankImage,arrow02,,,,,,,,,,,,0,122,122,248,,,,,,,,,,,,,,,,,,,,,,,,,,,,,,,,,,,811.465667099983,812.4779615000007,812.461107799958,813.0494144999539,813.0494144999539,None,814.1104508999852,None,right,1.0157312000519596,814.1104508999852,None,815.1473503999878,None,right,0.5394544000737369,815.1473503999878,None,,,,,,,,,,,,,,,,,,,,,,,PPT28,001,2022-07-04_15h04.29.055,ABstudy,2022.1.4,60.16275226300597,
AB,Lag1_T1P_T2A,1,P,A,7,8,6,4,12,Steering wheel,Did you see the Steering wheel?,0.12,0.016,JPG\,alligator,banana01,apple07,tomato01,button01,spoon01,steeringwheel,fork03c,canoftennisballs,potato02b,grape01,leaf02a,blankImage,blankImage,blankImage,blankImage,blankImage,steeringwheel,,,,,,,,,,,,0,123,123,198,,,,,,,,,,,,,,,,,,,,,,,,,,,,,,,,,,,815.720401599945,816.732157099992,816.7154190999572,817.2187419999973,817.2187419999973,None,818.806257899967,None,left,1.240418400033377,818.806257899967,None,820.0696892999695,None,right,0.3129727000487037,820.0696892999695,None,,,,,,,,,,,,,,,,,,,,,,,PPT28,001,2022-07-04_15h04.29.055,ABstudy,2022.1.4,60.16275226300597,
AB,Lag5_T1P_T2P,5,P,P,5,10,4,5,15,rake,Did you see the rake?,0.12,0.016,JPG\,scissors01,grape01,mushroom01,toiletpaper01a,leafrake,pizza,cigarette,ashtray01,carrot01,stapler03b,foosballtable,lipstick02a,teabag,acorn,potato02b,blankImage,blankImage,leafrake,,,,,,,,,,,,0,124,124,92,,,,,,,,,,,,,,,,,,,,,,,,,,,,,,,,,,,820.4066331999493,821.4202804999659,821.4035299999523,821.9905716999783,821.9905716999783,None,823.8392232999904,None,left,0.5353519000345841,823.8392232999904,None,824.4067138999817,None,left,0.44846120005240664,824.4067138999817,None,,,,,,,,,,,,,,,,,,,,,,,PPT28,001,2022-07-04_15h04.29.055,ABstudy,2022.1.4,60.16275226300597,
AB,Lag5_T1P_T2P,5,P,P,8,13,7,4,17,cruise ship,Did you see the cruise ship?,0.12,0.016,JPG\,measuringcup01,dice05a,greenolive,lipstick02a,feather03a,balloon01b,lighter01,cruiseship,carrot01,plate01b,microscope,brick,stapler05,screw02,speaker04,spoon01,blankImage,cruiseship,,,,,,,,,,,,0,125,125,105,,,,,,,,,,,,,,,,,,,,,,,,,,,,,,,,,,,824.8800215999945,825.8912839999539,825.8744673999608,826.4739684999804,826.4739684999804,None,828.3712437999784,None,left,0.9468182000564411,828.3712437999784,None,829.3448477999773,None,right,0.2861918000271544,829.3448477999773,None,,,,,,,,,,,,,,,,,,,,,,,PPT28,001,2022-07-04_15h04.29.055,ABstudy,2022.1.4,60.16275226300597,
AB,Lag5_T1P_T2P,5,P,P,7,12,6,5,17,Pigeon,Did you see the Pigeon?,0.12,0.016,JPG\,strawberry,leaf02a,clock04,candle01,avocado01,paintbrush01,pigeon,brownsugar,ring01,lemon02,fork03c,stapler01,cauliflower01,tableknife02,tennisball01b,thermometer02b,blankImage,pigeon,,,,,,,,,,,,0,126,126,151,,,,,,,,,,,,,,,,,,,,,,,,,,,,,,,,,,,829.6668952999753,830.6792984999483,830.662521399965,831.2508317999891,831.2508317999891,None,833.1726694999961,None,left,0.7453722000936978,833.1726694999961,None,833.9490950999898,None,left,0.2807820000452921,833.9490950999898,None,,,,,,,,,,,,,,,,,,,,,,,PPT28,001,2022-07-04_15h04.29.055,ABstudy,2022.1.4,60.16275226300597,
AB,Lag1_T1P_T2P,1,P,P,8,9,7,3,12,apron,Did you see the apron?,0.12,0.016,JPG\,avocado01,tambourine02,match,cauliflower01,paintbrush01,clock01a,pig,apron,stapler03a,cellphone,watch02a,pear01,blankImage,blankImage,blankImage,blankImage,blankImage,apron,,,,,,,,,,,,0,127,127,32,,,,,,,,,,,,,,,,,,,,,,,,,,,,,,,,,,,834.3025340999593,835.3173983999877,835.3007441999507,835.897483299952,835.897483299952,None,837.3114073999459,None,left,0.7273461000295356,837.3114073999459,None,838.0698043999728,None,right,0.25684130005538464,838.0698043999728,None,,,,,,,,,,,,,,,,,,,,,,,PPT28,001,2022-07-04_15h04.29.055,ABstudy,2022.1.4,60.16275226300597,
AB,Lag5_T1A_T2P,5,A,P,6,11,5,3,14,saxophone,Did you see the saxophone?,0.12,0.016,JPG\,globe,belt02a,sponge01,violin,fork03c,tomato01,clock01a,microscope,balloon01b,scarf,stapler03b,pen04b,brick,brownsugar,blankImage,blankImage,blankImage,microphone01,,,,,,,,,,,,0,128,128,267,,,,,,,,,,,,,,,,,,,,,,,,,,,,,,,,,,,838.3573764999746,839.371469799953,839.3541339999647,840.005352899956,839.9113398999907,None,841.5978169000009,None,right,0.9764823000878096,841.5978169000009,None,842.591612499964,None,right,0.8783366000279784,842.591612499964,None,,,,,,,,,,,,,,,,,,,,,,,PPT28,001,2022-07-04_15h04.29.055,ABstudy,2022.1.4,60.16275226300597,
AB,Lag5_T1P_T2P,5,P,P,6,11,5,4,15,fish,Did you see the fish?,0.12,0.016,JPG\,sock01a,spoon01,alligator,comb02a,printer02,rockbass,lamp04a,cymbal,greenolive,computerkeyboard02,stapler03a,scarf,teabag,watermelon01,battery02b,blankImage,blankImage,rockbass,,,,,,,,,,,,0,129,129,115,,,,,,,,,,,,,,,,,,,,,,,,,,,,,,,,,,,843.492918199976,844.4929053999949,844.4762106999988,845.0632259999984,845.0632259999984,None,846.8679767999565,None,left,1.5384448000695556,846.8679767999565,None,848.430551599944,None,right,0.48790260002715513,848.430551599944,None,,,,,,,,,,,,,,,,,,,,,,,PPT28,001,2022-07-04_15h04.29.055,ABstudy,2022.1.4,60.16275226300597,
AB,Lag5_T1P_T2A,5,P,A,8,13,7,4,17,Tarantula,Did you see the Tarantula?,0.12,0.016,JPG\,binoculars01b,speaker04,sandal,envelope03a,plate01b,comb02a,battery02b,tarantula,measuringcup01,key01,medal02b,lamp04a,tennisball01b,pizza,cigarette,sunglasses04,blankImage,tarantula,,,,,,,,,,,,0,130,130,201,,,,,,,,,,,,,,,,,,,,,,,,,,,,,,,,,,,848.9517098999931,849.9651533999713,849.9486226000008,850.524941199983,850.524941199983,None,852.498910299968,None,left,0.7549720000242814,852.498910299968,None,853.2850405999925,None,right,0.8170376000343822,853.2850405999925,None,,,,,,,,,,,,,,,,,,,,,,,PPT28,001,2022-07-04_15h04.29.055,ABstudy,2022.1.4,60.16275226300597,
AB,Lag1_T1P_T2P,1,P,P,8,9,7,3,12,Wheelchair,Did you see the Wheelchair?,0.12,0.016,JPG\,cigarette,pig,banana01,strawberry,clock01a,plate01b,spoon01,wheelchair,stapler03b,pineapple01a,chain01,paintbrush01,blankImage,blankImage,blankImage,blankImage,blankImage,wheelchair,,,,,,,,,,,,0,131,131,27,,,,,,,,,,,,,,,,,,,,,,,,,,,,,,,,,,,854.1214054999873,855.1368139999686,855.1035032999935,855.6828195999842,855.6828195999842,None,857.1731460999581,None,left,1.0333537000697106,857.1731460999581,None,858.2236266999971,None,right,0.6542246000608429,858.2236266999971,None,,,,,,,,,,,,,,,,,,,,,,,PPT28,001,2022-07-04_15h04.29.055,ABstudy,2022.1.4,60.16275226300597,
AB,Lag5_T1A_T2A,5,A,A,5,10,4,5,15,truck,Did you see the truck?,0.12,0.016,JPG\,pizza,printer02,medal02b,spoon01,grape01,lighter01,belt02a,watermelon01,celery,battery02b,screw02,comb02a,cauliflower01,lipstick02a,potato02b,blankImage,blankImage,postalmailbox01,,,,,,,,,,,,0,132,132,297,,,,,,,,,,,,,,,,,,,,,,,,,,,,,,,,,,,858.9112622999819,859.9252514999826,859.9083532999502,860.5692643999937,860.4785062999581,None,862.4164811999653,None,right,0.8860590000404045,862.4164811999653,None,863.3286681999452,None,right,0.9267621000763029,863.3286681999452,None,,,,,,,,,,,,,,,,,,,,,,,PPT28,001,2022-07-04_15h04.29.055,ABstudy,2022.1.4,60.16275226300597,
AB,Lag5_T1P_T2P,5,P,P,6,11,5,4,15,shower,Did you see the shower?,0.12,0.016,JPG\,dice05a,watch02a,pig,lighter01,button01,shower,paintbrush01,microscope,plate01b,pen04b,stapler05,weight04a,carrot01,shirt02,globe,blankImage,blankImage,shower,,,,,,,,,,,,0,133,133,121,,,,,,,,,,,,,,,,,,,,,,,,,,,,,,,,,,,864.2851002999814,865.2975454999832,865.28203079995,865.8928465999779,865.8928465999779,None,867.743374899961,None,right,1.0081988000893034,867.743374899961,None,868.7839644999476,None,left,0.36658760003047064,868.7839644999476,None,,,,,,,,,,,,,,,,,,,,,,,PPT28,001,2022-07-04_15h04.29.055,ABstudy,2022.1.4,60.16275226300597,
AB,Lag1_T1A_T2P,1,A,P,6,7,5,5,12,Ostrich,Did you see the Ostrich?,0.12,0.016,JPG\,thermometer02b,candle08b,comb02a,toothbrush03b,brick,computerkeyboard02,stapler05,pineapple01a,candy,birthdaycandle,clock04,hairclip03,blankImage,blankImage,blankImage,blankImage,blankImage,discoball,,,,,,,,,,,,0,134,134,232,,,,,,,,,,,,,,,,,,,,,,,,,,,,,,,,,,,869.1701434999704,870.185223599954,870.1518678999855,870.753248999943,870.753248999943,None,872.1747334999964,None,right,0.8404560000053607,872.1747334999964,None,873.0410421999986,None,left,0.5091673000715673,873.0410421999986,None,,,,,,,,,,,,,,,,,,,,,,,PPT28,001,2022-07-04_15h04.29.055,ABstudy,2022.1.4,60.16275226300597,
AB,Lag1_T1P_T2A,1,P,A,6,7,5,4,11,bird,Did you see the bird?,0.12,0.016,JPG\,foosballtable,candy,envelope03a,microscope,pencil01,cedarwaxwing,scissors01,watermelon01,grape01,dandelion,pineapple01a,blankImage,blankImage,blankImage,blankImage,blankImage,blankImage,cedarwaxwing,,,,,,,,,,,,0,135,135,182,,,,,,,,,,,,,,,,,,,,,,,,,,,,,,,,,,,873.5809003999457,874.5895306999446,874.5727974999463,875.0770512999734,875.0770512999734,None,876.4669844999444,None,left,0.962778800050728,876.4669844999444,None,877.4590830999659,None,right,0.34662590007064864,877.4590830999659,None,,,,,,,,,,,,,,,,,,,,,,,PPT28,001,2022-07-04_15h04.29.055,ABstudy,2022.1.4,60.16275226300597,
AB,Lag5_T1P_T2P,5,P,P,8,13,7,3,16,shrimp,Did you see the shrimp?,0.12,0.016,JPG\,globe,belt02a,sponge01,violin,fork03c,tomato01,clock01a,cocktailshrimp02,balloon01b,scarf,teabag,pen04b,stapler03a,brownsugar,speaker04,screwdriver04b,blankImage,cocktailshrimp02,,,,,,,,,,,,0,136,136,169,,,,,,,,,,,,,,,,,,,,,,,,,,,,,,,,,,,877.8292672999669,878.8437808999442,878.8103454999509,879.4000441999524,879.4000441999524,None,881.3845364999725,None,right,0.9894551000325009,881.3845364999725,None,882.411735599977,None,right,0.6988256000331603,882.411735599977,None,,,,,,,,,,,,,,,,,,,,,,,PPT28,001,2022-07-04_15h04.29.055,ABstudy,2022.1.4,60.16275226300597,
AB,Lag1_T1P_T2A,1,P,A,7,8,6,4,12,bird,Did you see the bird?,0.12,0.016,JPG\,speaker04,sewingmachine01a,eraser,violin,globe,belt02a,tern,cymbal,cd,greenolive,alligator,pear01,blankImage,blankImage,blankImage,blankImage,blankImage,tern,,,,,,,,,,,,0,137,137,177,,,,,,,,,,,,,,,,,,,,,,,,,,,,,,,,,,,883.1336538999458,884.1490428999532,884.115768699965,884.7642336999997,884.7642336999997,None,886.1882309999783,None,left,0.9696411000331864,886.1882309999783,None,887.1864844999509,None,right,0.3233818000298925,887.1864844999509,None,,,,,,,,,,,,,,,,,,,,,,,PPT28,001,2022-07-04_15h04.29.055,ABstudy,2022.1.4,60.16275226300597,
