TrialType,CondType,Lag,T1_PA,T2_PA,T1Loc,T2Loc,PreDistractor,PostDistractor,TotalImg,cueWord,T1cue,StimLength,isi,PicFolder,Img1,Img2,Img3,Img4,Img5,Img6,Img7,Img8,Img9,Img10,Img11,Img12,Img13,Img14,Img15,Img16,Img17,T1_Identity,ImageType,T1PA,T2PA,Picture,Image,FullPathName,FilePath,Practice_Trials.thisRepN,Practice_Trials.thisTrialN,Practice_Trials.thisN,Practice_Trials.thisIndex,trials.thisRepN,trials.thisTrialN,trials.thisN,trials.thisIndex,trials_2.thisRepN,trials_2.thisTrialN,trials_2.thisN,trials_2.thisIndex,Practice_Ins.started,Practice_Ins.stopped,End_Prac_Ins.keys,End_Prac_Ins.rt,End_Prac_Ins.started,End_Prac_Ins.stopped,text_2.started,text_2.stopped,Fixation_Cross_2.started,Fixation_Cross_2.stopped,Rapid_Image_Present_2.started,Rapid_Image_Present_2.stopped,key_resp.keys,key_resp.rt,key_resp.started,key_resp.stopped,T1Response_2.started,T1Response_2.stopped,T2Response_2.started,T2Response_2.stopped,key_resp_4.keys,key_resp_4.rt,key_resp_4.started,key_resp_4.stopped,text.started,text.stopped,End_Instructions.keys,End_Instructions.rt,End_Instructions.started,End_Instructions.stopped,text_5.started,text_5.stopped,FC.started,FC.stopped,Rapid_Image_Present.started,Rapid_Image_Present.stopped,T1Response.started,T1Response.stopped,key_resp_2.keys,key_resp_2.rt,key_resp_2.started,key_resp_2.stopped,T2Response.started,T2Response.stopped,key_resp_3.keys,key_resp_3.rt,key_resp_3.started,key_resp_3.stopped,text_6.started,text_6.stopped,Fin_ins.keys,Fin_ins.rt,Fin_ins.started,Fin_ins.stopped,MemTest.started,MemTest.stopped,MemResponse.keys,MemResponse.rt,MemResponse.started,MemResponse.stopped,Display.started,Display.stopped,text_7.started,text_7.stopped,endOfExperiment.started,endOfExperiment.stopped,key_resp_5.keys,key_resp_5.rt,key_resp_5.started,key_resp_5.stopped,participant,session,date,expName,psychopyVersion,frameRate,
,,,,,,,,,,,,,,,,,,,,,,,,,,,,,,,,,,,,,,,,,,,,,,,,,,,,17.83799469997757,None,space,23.15142539999215,17.83799469997757,None,,,,,,,,,,,,,,,,,,,,,,,,,,,,,,,,,,,,,,,,,,,,,,,,,,,,,,,,,,,,,,,,,PPT21,001,2022-07-01_10h00.03.424,ABstudy,2022.1.4,59.912778978309575,
AB_Prac,Lag5_T1A_T2A,5,A,A,6,11,5,5,16,castle,Did you see the castle?,0.5,0.016,JPG\,tape02a,englishmuffin,flask,ladle02a,monitor,peach01,keychain,squeegee01b,telephone01b,whisk,walkman,syringe02,baguette01,coaster,box01a,coffeepot03a,blankImage,None,,,,,,,,0,0,0,11,,,,,,,,,,,,,,,41.06895529999747,42.07211169999209,42.055446199985454,42.70483349999995,42.70483349999995,None,right,1.381610099982936,50.82311609998578,None,50.82311609998578,None,52.232262999983504,None,right,0.8043803999898955,52.232262999983504,None,,,,,,,,,,,,,,,,,,,,,,,,,,,,,,,,,,,,,,,,,,,,,,,PPT21,001,2022-07-01_10h00.03.424,ABstudy,2022.1.4,59.912778978309575,
AB_Prac,Lag5_T1A_T2P,5,A,P,6,11,5,3,14,dog,Did you see the dog?,0.5,0.016,JPG\,bucket01a,doorlock,cookiecutter,fireextinguisher01,gluestick,highlighter02b,sportbag,spraybottle01,suitcase,thread02,stapler05,walnut01c,icecubetray01a,vikingmask01b,blankImage,blankImage,blankImage,None,,,,,,,,0,1,1,9,,,,,,,,,,,,,,,53.07477859998471,54.08439149998594,54.06770469999174,54.660546699975384,54.660546699975384,None,right,1.2136276999954134,61.65495379999629,None,61.65495379999629,None,62.89286159997573,None,right,0.934944299980998,62.89286159997573,None,,,,,,,,,,,,,,,,,,,,,,,,,,,,,,,,,,,,,,,,,,,,,,,PPT21,001,2022-07-01_10h00.03.424,ABstudy,2022.1.4,59.912778978309575,
AB_Prac,Lag5_T1P_T2A,5,P,A,6,11,5,5,16,bread,Did you see the bread?,0.5,0.016,JPG\,cleaver01,clipboard,dustpan,hikingshoe01,notebook03a,baguette01,playingcard,pliers02b,styrofoamcup,rollingpin01a,swimgoggles,wineglass01,fryingpan02a,safetypin,syringe01,thimble,blankImage,baguette01,,,,,,,,0,2,2,8,,,,,,,,,,,,,,,63.865176899998914,64.87817449998693,64.86150889997953,65.44496649998473,65.44496649998473,None,left,0.9247151000017766,73.48745799998869,None,73.48745799998869,None,74.43794229999185,None,right,1.8062718999863137,74.43794229999185,None,,,,,,,,,,,,,,,,,,,,,,,,,,,,,,,,,,,,,,,,,,,,,,,PPT21,001,2022-07-01_10h00.03.424,ABstudy,2022.1.4,59.912778978309575,
AB_Prac,Lag1_T1P_T2A,1,P,A,8,9,7,5,14,flower,Did you see the flower?,0.5,0.016,JPG\,razor01,axe01,binder03b,bowl01,kettle01,lettuce,lime,plasticflower01b,mitten04,pencilcase01,plunger02,strawbasket01,toothpick02,wallet02a,blankImage,blankImage,blankImage,plasticflower01b,,,,,,,,0,3,3,5,,,,,,,,,,,,,,,76.27542029999313,77.29054970000288,77.25715889999992,77.83518480000203,77.83518480000203,None,left,1.130522599996766,84.85002759998315,None,84.85002759998315,None,85.99921929999255,None,right,0.5570356999814976,85.99921929999255,None,,,,,,,,,,,,,,,,,,,,,,,,,,,,,,,,,,,,,,,,,,,,,,,PPT21,001,2022-07-01_10h00.03.424,ABstudy,2022.1.4,59.912778978309575,
AB_Prac,Lag1_T1P_T2A,1,P,A,5,6,4,5,11,Webcam,Did you see the Webcam?,0.5,0.016,JPG\,pictureframe04,binder03b,straw,adjustablewrench01b,webcam,cane,hairdryer02a,icepack,kitchenscale01a,lifejacket,piggybank,blankImage,blankImage,blankImage,blankImage,blankImage,blankImage,webcam,,,,,,,,0,4,4,6,,,,,,,,,,,,,,,86.58887489998597,87.60098879999714,87.58432689998881,88.17905779997818,88.17905779997818,None,left,0.7606384000100661,93.69966419998673,None,93.69966419998673,None,94.49122329999227,None,right,0.44907750000129454,94.49122329999227,None,,,,,,,,,,,,,,,,,,,,,,,,,,,,,,,,,,,,,,,,,,,,,,,PPT21,001,2022-07-01_10h00.03.424,ABstudy,2022.1.4,59.912778978309575,
AB_Prac,Lag5_T1P_T2A,5,P,A,6,11,5,5,16,Wheat,Did you see the Wheat?,0.5,0.016,JPG\,bottleopener01,dentalfloss03b,cooler01,icecreamcone01a,paperclip01b,wheat,pencilsharpener02a,plasticbasket01a,toycar04,apricot,hairclip02,rock01a,honeydewmelon,antenna,blackberry,cardboardbox,blankImage,wheat,,,,,,,,0,5,5,7,,,,,,,,,,,,,,,94.9624486999819,95.97601659997599,95.9590029999963,96.52907989997766,96.52907989997766,None,left,0.8377806000062265,104.61415119998856,None,104.61415119998856,None,105.46876180000254,None,right,0.45508079999126494,105.46876180000254,None,,,,,,,,,,,,,,,,,,,,,,,,,,,,,,,,,,,,,,,,,,,,,,,PPT21,001,2022-07-01_10h00.03.424,ABstudy,2022.1.4,59.912778978309575,
AB_Prac,Lag1_T1P_T2P,1,P,P,6,7,5,5,12,triangle,Did you see the triangle?,0.5,0.016,JPG\,ginger,mousetrap,plum01,slipper01b,dropper01,triangle,stapler04b,pants,raspberry01,rope03,scale01a,vase01,blankImage,blankImage,blankImage,blankImage,blankImage,triangle,,,,,,,,0,6,6,1,,,,,,,,,,,,,,,105.95870019998983,106.97035049999249,106.95366009999998,107.54267029999755,107.54267029999755,None,left,0.5324978000135161,113.63198179999017,None,113.63198179999017,None,114.1942172999843,None,left,0.6187370000116061,114.1942172999843,None,,,,,,,,,,,,,,,,,,,,,,,,,,,,,,,,,,,,,,,,,,,,,,,PPT21,001,2022-07-01_10h00.03.424,ABstudy,2022.1.4,59.912778978309575,
AB_Prac,Lag1_T1P_T2P,1,P,P,8,9,7,5,14,Tennis racket,Did you see the Tennis racket?,0.5,0.016,JPG\,coconut,computermouse06,croissant01,deodorant02a,pillow01a,peanut01,boot02b,tennisracket,stapler03b,crayon,eggplant,marker01a,plant01,radish01,blankImage,blankImage,blankImage,tennisracket,,,,,,,,0,7,7,0,,,,,,,,,,,,,,,114.8606940000027,115.862089799979,115.84538459999021,116.43914069997845,116.43914069997845,None,left,0.5941368000057992,123.45800499999314,None,123.45800499999314,None,124.07043219998013,None,left,0.43811070002266206,124.07043219998013,None,,,,,,,,,,,,,,,,,,,,,,,,,,,,,,,,,,,,,,,,,,,,,,,PPT21,001,2022-07-01_10h00.03.424,ABstudy,2022.1.4,59.912778978309575,
AB_Prac,Lag5_T1P_T2P,5,P,P,7,12,6,3,15,vacuum,Did you see the vacuum?,0.5,0.016,JPG\,fork07b,lightbulb01,manshoe,saw02b,shoelace,soap03a,vacuumcleaner01,floortile01,necklace,doll,cabbage,stapler03a,hanger02a,laptop01a,nailpolish03b,blankImage,blankImage,vacuumcleaner01,,,,,,,,0,8,8,2,,,,,,,,,,,,,,,124.54354199999943,125.55528249999043,125.53861570000299,126.13265479999245,126.13265479999245,None,left,0.81226930001867,133.7034333999909,None,133.7034333999909,None,134.53279359999578,None,left,0.43079559999750927,134.53279359999578,None,,,,,,,,,,,,,,,,,,,,,,,,,,,,,,,,,,,,,,,,,,,,,,,PPT21,001,2022-07-01_10h00.03.424,ABstudy,2022.1.4,59.912778978309575,
AB_Prac,Lag1_T1A_T2A,1,A,A,8,9,7,3,12,Moose,Did you see the Moose?,0.5,0.016,JPG\,clothespin03b,corkscrew03a,drillbit03a,fusilli03a,needlenosepliers01,perfume01a,pistachio,scrubbingbrush05b,spatula03,toothpastetube,hinge,toydinosaur,blankImage,blankImage,blankImage,blankImage,blankImage,None,,,,,,,,0,9,9,10,,,,,,,,,,,,,,,134.98856209998485,135.9996413999761,135.98297299997648,136.57571659999667,136.57571659999667,None,right,0.9638144999917131,142.62406409997493,None,142.62406409997493,None,143.60792799998308,None,right,0.5400528000027407,143.60792799998308,None,,,,,,,,,,,,,,,,,,,,,,,,,,,,,,,,,,,,,,,,,,,,,,,PPT21,001,2022-07-01_10h00.03.424,ABstudy,2022.1.4,59.912778978309575,
AB_Prac,Lag5_T1P_T2P,5,P,P,5,10,4,5,15,washing machine,Did you see the washing machine?,0.5,0.016,JPG\,waterbottle03,wheel01,flashlight02b,zucchini01,washingmachine,headphones02b,nutcracker01,paintroller01,paperclip03,stapler06,ribbon04,electricrazor,bottleofredwine01,pitabread,pot02a,blankImage,blankImage,washingmachine,,,,,,,,0,10,10,4,,,,,,,,,,,,,,,144.1862376999925,145.19142289998126,145.17474979997496,145.76210619998164,145.76210619998164,None,left,0.7641300999966916,153.29649369997787,None,153.29649369997787,None,154.08379360000254,None,left,0.40004989999579266,154.08379360000254,None,,,,,,,,,,,,,,,,,,,,,,,,,,,,,,,,,,,,,,,,,,,,,,,PPT21,001,2022-07-01_10h00.03.424,ABstudy,2022.1.4,59.912778978309575,
AB_Prac,Lag5_T1P_T2P,5,P,P,5,10,4,5,15,Vulture,Did you see the Vulture?,0.5,0.016,JPG\,shorts01,toast,ramekin01,bib,vulture,cracker02,date,glasses01a,hat03b,stapler01,measuringtape01,nail,pill,drum01,starfish01,blankImage,blankImage,vulture,,,,,,,,0,11,11,3,,,,,,,,,,,,,,,154.5107885999896,155.51842189999297,155.50179959999514,156.0846840000013,156.0846840000013,None,left,1.2170793999976013,163.64280029997462,None,163.64280029997462,None,164.87799179999274,None,left,0.5179453000018839,164.87799179999274,None,,,,,,,,,,,,,,,,,,,,,,,,,,,,,,,,,,,,,,,,,,,,,,,PPT21,001,2022-07-01_10h00.03.424,ABstudy,2022.1.4,59.912778978309575,
,,,,,,,,,,,,,,,,,,,,,,,,,,,,,,,,,,,,,,,,,,,,,,,,,,,,,,,,,,,,,,,,,,,,,,,,,,,,165.4285099999979,None,space,14.767540900007589,165.4285099999979,None,,,,,,,,,,,,,,,,,,,,,,,,,,,,,,,,,,,,,,,,,PPT21,001,2022-07-01_10h00.03.424,ABstudy,2022.1.4,59.912778978309575,
AB,Lag5_T1P_T2P,5,P,P,5,10,4,5,15,baseball bat,Did you see the baseball bat?,0.12,0.016,JPG\,pizza,printer02,medal02b,spoon01,baseballbat,lighter01,belt02a,watermelon01,celery,stapler04b,screw02,comb02a,cauliflower01,lipstick02a,potato02b,blankImage,blankImage,baseballbat,,,,,,,,,,,,0,0,0,123,,,,,,,,,,,,,,,,,,,,,,,,,,,,,,,,,,,180.9954316999938,181.9948277999938,181.9948277999938,182.60991459997604,182.60991459997604,None,184.45049409999046,None,left,0.4659523000009358,184.45049409999046,None,184.94860309999785,None,left,0.3281313999905251,184.94860309999785,None,,,,,,,,,,,,,,,,,,,,,,,PPT21,001,2022-07-01_10h00.03.424,ABstudy,2022.1.4,59.912778978309575,
AB,Lag5_T1A_T2P,5,A,P,6,11,5,5,16,bed,Did you see the bed?,0.12,0.016,JPG\,cellphone,tomato01,comb02a,candy,celery,cucumber,toaster01,fan,feather03a,pen04b,stapler03b,blueberry01,plate01b,cherry01,baseball01a,candle08b,blankImage,toolbox02,,,,,,,,,,,,0,1,1,274,,,,,,,,,,,,,,,,,,,,,,,,,,,,,,,,,,,185.30370079999557,186.31588719997671,186.29923179998877,186.8803216999804,186.8803216999804,None,188.8314216999861,None,right,0.9403538999904413,188.8314216999861,None,189.80275049997726,None,left,0.39291429999866523,189.80275049997726,None,,,,,,,,,,,,,,,,,,,,,,,PPT21,001,2022-07-01_10h00.03.424,ABstudy,2022.1.4,59.912778978309575,
AB,Lag5_T1P_T2P,5,P,P,5,10,4,5,15,funnel,Did you see the funnel?,0.12,0.016,JPG\,pineapple01a,tennisball01b,computerkeyboard02,feather03a,funnel,acorn,violin,blueberry01,medal02b,stapler01,greenolive,screwdriver04b,potato02b,fork03c,cymbal,blankImage,blankImage,funnel,,,,,,,,,,,,0,2,2,109,,,,,,,,,,,,,,,,,,,,,,,,,,,,,,,,,,,190.2242165999778,191.23752309998963,191.22091689999797,191.81110919997445,191.81110919997445,None,193.54347859998234,None,left,0.44467379999696277,193.54347859998234,None,194.00667760000215,None,left,0.37341319999541156,194.00667760000215,None,,,,,,,,,,,,,,,,,,,,,,,PPT21,001,2022-07-01_10h00.03.424,ABstudy,2022.1.4,59.912778978309575,
AB,Lag5_T1P_T2P,5,P,P,8,13,7,5,18,bed,Did you see the bed?,0.12,0.016,JPG\,pencil01,broccoli01a,button01,sponge01,watermelon01,lipstick02a,comb02a,bed,lighter01,sock01a,spoon01,blueberry01,stapler04b,onion,grape01,avocado01,blankImage,bed,,,,,,,,,,,,0,3,3,124,,,,,,,,,,,,,,,,,,,,,,,,,,,,,,,,,,,194.4093836999964,195.4247933999868,195.39141959999688,195.97231819998706,195.97231819998706,None,197.91708499999368,None,left,0.5508625000074971,197.91708499999368,None,198.49471559998346,None,right,1.5968419999990147,198.49471559998346,None,,,,,,,,,,,,,,,,,,,,,,,PPT21,001,2022-07-01_10h00.03.424,ABstudy,2022.1.4,59.912778978309575,
AB,Lag1_T1P_T2P,1,P,P,7,8,6,5,13,tiger,Did you see the tiger?,0.12,0.016,JPG\,globe,broccoli01a,binoculars01b,iron01b,avocado01,dandelion,tiger02,stapler03b,fan,pizza,celery,blueberry01,sewingmachine01a,blankImage,blankImage,blankImage,blankImage,tiger02,,,,,,,,,,,,0,4,4,50,,,,,,,,,,,,,,,,,,,,,,,,,,,,,,,,,,,200.11717939999653,201.13068129998283,201.11404169999878,201.69356200000038,201.69356200000038,None,203.2565631000034,None,left,0.923816499998793,203.2565631000034,None,204.20055649999995,None,right,0.47572869999567047,204.20055649999995,None,,,,,,,,,,,,,,,,,,,,,,,PPT21,001,2022-07-01_10h00.03.424,ABstudy,2022.1.4,59.912778978309575,
AB,Lag5_T1P_T2P,5,P,P,7,12,6,4,16,flower,Did you see the flower?,0.12,0.016,JPG\,cucumber,sponge01,alligator,pear01,ashtray01,hammer01,hibiscusflower02,battery02b,fork03c,binoculars01b,mushroom01,stapler01,leaf02a,acorn,comb02a,screwdriver04b,blankImage,hibiscusflower02,,,,,,,,,,,,0,5,5,132,,,,,,,,,,,,,,,,,,,,,,,,,,,,,,,,,,,204.70656739998958,205.7185178999789,205.7019822000002,206.31655049999245,206.31655049999245,None,208.23027629998978,None,left,1.5975046000094153,208.23027629998978,None,209.8558917999908,None,right,0.963603400014108,209.8558917999908,None,,,,,,,,,,,,,,,,,,,,,,,PPT21,001,2022-07-01_10h00.03.424,ABstudy,2022.1.4,59.912778978309575,
AB,Lag5_T1P_T2P,5,P,P,5,10,4,3,13,Sushi,Did you see the Sushi?,0.12,0.016,JPG\,carrot01,greenolive,fork03c,chain01,makiroll,watermelon01,tableknife02,printer02,comb02a,stapler03b,orange,rice,fan,blankImage,blankImage,blankImage,blankImage,makiroll,,,,,,,,,,,,0,6,6,135,,,,,,,,,,,,,,,,,,,,,,,,,,,,,,,,,,,210.84135329999845,211.8411939999787,211.8245198999939,212.4082933999889,212.4082933999889,None,214.08046599998488,None,left,0.6752545000053942,214.08046599998488,None,214.77745279998635,None,left,0.39501219999510795,214.77745279998635,None,,,,,,,,,,,,,,,,,,,,,,,PPT21,001,2022-07-01_10h00.03.424,ABstudy,2022.1.4,59.912778978309575,
AB,Lag5_T1A_T2P,5,A,P,7,12,6,4,16,flower,Did you see the flower?,0.12,0.016,JPG\,printer02,envelope03a,potato02b,calculator01,tableknife02,cigarette,ashtray01,pig,broom01,greenolive,candle08b,stapler03a,strawberry,candle01,foosballtable,tennisball01b,blankImage,calendar,,,,,,,,,,,,0,7,7,282,,,,,,,,,,,,,,,,,,,,,,,,,,,,,,,,,,,215.19679899999755,216.21216419999837,216.17906559997937,216.76072259998182,216.76072259998182,None,218.73927859999822,None,right,0.8727551999909338,218.73927859999822,None,219.63249519999954,None,left,0.5316884999920148,219.63249519999954,None,,,,,,,,,,,,,,,,,,,,,,,PPT21,001,2022-07-01_10h00.03.424,ABstudy,2022.1.4,59.912778978309575,
AB,Lag5_T1P_T2P,5,P,P,5,10,4,3,13,Rabbit,Did you see the Rabbit?,0.12,0.016,JPG\,celery,tennisball01b,calculator01,pear01,jackrabbit,orange,button01,cellphone,onion,stapler06,iron01b,brownsugar,banana01,blankImage,blankImage,blankImage,blankImage,jackrabbit,,,,,,,,,,,,0,8,8,90,,,,,,,,,,,,,,,,,,,,,,,,,,,,,,,,,,,220.19265579999774,221.20064539997838,221.18399369998951,221.76533279998694,221.76533279998694,None,223.3768635999877,None,left,1.2751994999998715,223.3768635999877,None,224.67078269997728,None,left,0.5813505999976769,224.67078269997728,None,,,,,,,,,,,,,,,,,,,,,,,PPT21,001,2022-07-01_10h00.03.424,ABstudy,2022.1.4,59.912778978309575,
AB,Lag5_T1P_T2P,5,P,P,8,13,7,5,18,popcorn,Did you see the popcorn?,0.12,0.016,JPG\,toaster01,garlic01a,hairclip03,fan,comb02a,apple07,orange,popcorn,onion,blueberry01,toiletpaper01a,fork03c,stapler06,pineapple01a,scarf,eraser,blankImage,popcorn,,,,,,,,,,,,0,9,9,155,,,,,,,,,,,,,,,,,,,,,,,,,,,,,,,,,,,225.27880549998372,226.28911109999171,226.27234889997635,226.8686858000001,226.8686858000001,None,228.78815159999067,None,left,0.6075690999859944,228.78815159999067,None,229.42545089998748,None,left,0.2985839000029955,229.42545089998748,None,,,,,,,,,,,,,,,,,,,,,,,PPT21,001,2022-07-01_10h00.03.424,ABstudy,2022.1.4,59.912778978309575,
AB,Lag5_T1A_T2A,5,A,A,7,12,6,3,15,Christmas lights,Did you see the Christmas lights?,0.12,0.016,JPG\,toiletpaper01a,mushroom01,medal02b,sandal,rice,cd,feather03a,pizza,candle08b,garlic01a,toaster01,belt02a,cigarette,violin,lemon02,blankImage,blankImage,rockbass,,,,,,,,,,,,0,10,10,299,,,,,,,,,,,,,,,,,,,,,,,,,,,,,,,,,,,229.80642339997576,230.8105791999842,230.7941884000029,231.37668109999504,231.37668109999504,None,233.14055789998383,None,right,0.5033781999954954,233.14055789998383,None,233.6629214999848,None,right,0.42844799999147654,233.6629214999848,None,,,,,,,,,,,,,,,,,,,,,,,PPT21,001,2022-07-01_10h00.03.424,ABstudy,2022.1.4,59.912778978309575,
AB,Lag5_T1P_T2A,5,P,A,5,10,4,3,13,fan,Did you see the fan?,0.12,0.016,JPG\,scissors01,grape01,mushroom01,toiletpaper01a,fanheater,pizza,cigarette,ashtray01,carrot01,pineapple01a,foosballtable,lipstick02a,teabag,blankImage,blankImage,blankImage,blankImage,fanheater,,,,,,,,,,,,0,11,11,220,,,,,,,,,,,,,,,,,,,,,,,,,,,,,,,,,,,234.1156459999911,235.1310508000024,235.09768710000208,235.6800250999804,235.6800250999804,None,237.27129509998485,None,left,0.7246428000216838,237.27129509998485,None,238.01722349997726,None,right,0.5785688000032678,238.01722349997726,None,,,,,,,,,,,,,,,,,,,,,,,PPT21,001,2022-07-01_10h00.03.424,ABstudy,2022.1.4,59.912778978309575,
AB,Lag5_T1P_T2P,5,P,P,5,10,4,5,15,rake,Did you see the rake?,0.12,0.016,JPG\,scissors01,grape01,mushroom01,toiletpaper01a,leafrake,pizza,cigarette,ashtray01,carrot01,stapler03b,foosballtable,lipstick02a,teabag,acorn,potato02b,blankImage,blankImage,leafrake,,,,,,,,,,,,0,12,12,92,,,,,,,,,,,,,,,,,,,,,,,,,,,,,,,,,,,238.6835797999811,239.685730600002,239.66898769998807,240.24345929999254,240.24345929999254,None,242.0450290000008,None,left,0.36660569999367,242.0450290000008,None,242.43937179999193,None,left,0.2926361999998335,242.43937179999193,None,,,,,,,,,,,,,,,,,,,,,,,PPT21,001,2022-07-01_10h00.03.424,ABstudy,2022.1.4,59.912778978309575,
AB,Lag1_T1P_T2P,1,P,P,7,8,6,4,12,cow,Did you see the cow?,0.12,0.016,JPG\,fork03c,plate01b,toiletpaper01a,greenolive,rice,blueberry01,cow,stapler01,envelope03a,orange,book01b,pencil01,blankImage,blankImage,blankImage,blankImage,blankImage,cow,,,,,,,,,,,,0,13,13,59,,,,,,,,,,,,,,,,,,,,,,,,,,,,,,,,,,,242.75778279997758,243.77292969997507,243.73958379999385,244.3080325999763,244.3080325999763,None,245.8672557999962,None,left,0.9119613000075333,245.8672557999962,None,246.80952349997824,None,right,1.2662244000239298,246.80952349997824,None,,,,,,,,,,,,,,,,,,,,,,,PPT21,001,2022-07-01_10h00.03.424,ABstudy,2022.1.4,59.912778978309575,
AB,Lag1_T1A_T2P,1,A,P,7,8,6,3,11,Fox,Did you see the Fox?,0.12,0.016,JPG\,toaster01,chain01,sponge01,baseball01a,carrot01,belt02a,book01b,stapler03b,grape01,brick,celery,blankImage,blankImage,blankImage,blankImage,blankImage,blankImage,fingerprint,,,,,,,,,,,,0,14,14,234,,,,,,,,,,,,,,,,,,,,,,,,,,,,,,,,,,,248.10154589999001,249.11191999999573,249.09521989998757,249.68145259999437,249.68145259999437,None,251.0042734000017,None,right,0.919774400012102,251.0042734000017,None,251.94777519998024,None,right,0.3519815999898128,251.94777519998024,None,,,,,,,,,,,,,,,,,,,,,,,PPT21,001,2022-07-01_10h00.03.424,ABstudy,2022.1.4,59.912778978309575,
AB,Lag5_T1A_T2P,5,A,P,7,12,6,3,15,Car,Did you see the Car?,0.12,0.016,JPG\,lighter01,hammer01,spoon01,chain01,cymbal,sponge01,lipstick02a,alligator,pig,watermelon01,cauliflower01,stapler03b,broccoli01a,tableknife02,tennisball01b,blankImage,blankImage,wallclock,,,,,,,,,,,,0,15,15,277,,,,,,,,,,,,,,,,,,,,,,,,,,,,,,,,,,,252.33408459997736,253.3491997999954,253.31583099998534,253.89227779998328,253.89227779998328,None,255.7245800999808,None,right,0.7914575000177138,255.7245800999808,None,256.5358234999876,None,left,0.45952370000304654,256.5358234999876,None,,,,,,,,,,,,,,,,,,,,,,,PPT21,001,2022-07-01_10h00.03.424,ABstudy,2022.1.4,59.912778978309575,
AB,Lag5_T1P_T2P,5,P,P,6,11,5,5,16,microwave,Did you see the microwave?,0.12,0.016,JPG\,pen04b,speaker04,lighter01,cherry01,weight04a,microwave,sock01a,toothbrush03b,broom01,sewingmachine01a,stapler06,iron01b,clock01a,sandal,cd,blueberry01,blankImage,microwave,,,,,,,,,,,,0,16,16,136,,,,,,,,,,,,,,,,,,,,,,,,,,,,,,,,,,,257.02321669997764,258.03747069998644,258.0207792999863,258.6651348999876,258.5965348999889,None,260.5746458999929,None,left,0.4204944999946747,260.5746458999929,None,261.02367639998556,None,left,0.3475408999947831,261.02367639998556,None,,,,,,,,,,,,,,,,,,,,,,,PPT21,001,2022-07-01_10h00.03.424,ABstudy,2022.1.4,59.912778978309575,
AB,Lag1_T1A_T2P,1,A,P,5,6,4,3,9,Spider,Did you see the Spider?,0.12,0.016,JPG\,pen04b,speaker04,lighter01,cherry01,8ball,stapler04b,sock01a,toothbrush03b,broom01,blankImage,blankImage,blankImage,blankImage,blankImage,blankImage,blankImage,blankImage,bridge,,,,,,,,,,,,0,17,17,250,,,,,,,,,,,,,,,,,,,,,,,,,,,,,,,,,,,261.4606980999815,262.4754450999899,262.4423106999893,263.0233300999971,263.0233300999971,None,264.0858103999926,None,right,0.973876999982167,264.0858103999926,None,265.07766379998066,None,left,2.317476700001862,265.07766379998066,None,,,,,,,,,,,,,,,,,,,,,,,PPT21,001,2022-07-01_10h00.03.424,ABstudy,2022.1.4,59.912778978309575,
AB,Lag5_T1P_T2A,5,P,A,5,10,4,5,15,Shield,Did you see the Shield?,0.12,0.016,JPG\,cigarette,fork03c,greenolive,broccoli01a,shield02,tennisball01b,balloon01b,leaf02a,pig,fan,clock01a,strawberry,envelope03a,birthdaycandle,teabag,blankImage,blankImage,shield02,,,,,,,,,,,,0,18,18,223,,,,,,,,,,,,,,,,,,,,,,,,,,,,,,,,,,,267.41937709998456,268.43115799999214,268.41435649999767,268.99934889998985,268.99934889998985,None,270.8564512000012,None,right,0.7633462999947369,270.8564512000012,None,271.6503706999938,None,right,0.3063790999876801,271.6503706999938,None,,,,,,,,,,,,,,,,,,,,,,,PPT21,001,2022-07-01_10h00.03.424,ABstudy,2022.1.4,59.912778978309575,
AB,Lag5_T1P_T2A,5,P,A,8,13,7,4,17,Drum set,Did you see the Drum set?,0.12,0.016,JPG\,pencil01,microscope,banana01,computerkeyboard02,celery,cellphone,scissors01,drumset,book01b,onion,dice05a,binoculars01b,baseball01a,iron01b,screw02,fork03c,blankImage,drumset,,,,,,,,,,,,0,19,19,212,,,,,,,,,,,,,,,,,,,,,,,,,,,,,,,,,,,271.98475699999835,272.98534769998514,272.9687160999747,273.55323699998553,273.55323699998553,None,275.4834339999943,None,right,0.7854102999845054,275.4834339999943,None,276.28886749999947,None,right,0.4182294000056572,276.28886749999947,None,,,,,,,,,,,,,,,,,,,,,,,PPT21,001,2022-07-01_10h00.03.424,ABstudy,2022.1.4,59.912778978309575,
AB,Lag1_T1P_T2P,1,P,P,6,7,5,3,10,spider web,Did you see the spider web?,0.12,0.016,JPG\,toaster01,chain01,sponge01,baseball01a,carrot01,spiderweb,stapler03b,iron01b,grape01,brick,blankImage,blankImage,blankImage,blankImage,blankImage,blankImage,blankImage,spiderweb,,,,,,,,,,,,0,20,20,72,,,,,,,,,,,,,,,,,,,,,,,,,,,,,,,,,,,276.7392032999778,277.74012709999806,277.7233813999919,278.3095308999764,278.3095308999764,None,279.594139599998,None,left,0.6985213000152726,279.594139599998,None,280.30950249999296,None,right,0.46996129999752156,280.30950249999296,None,,,,,,,,,,,,,,,,,,,,,,,PPT21,001,2022-07-01_10h00.03.424,ABstudy,2022.1.4,59.912778978309575,
AB,Lag5_T1A_T2P,5,A,P,5,10,4,4,14,Chefs hat,Did you see the Chefs hat?,0.12,0.016,JPG\,candle01,fork03c,plate01b,violin,computerkeyboard02,candy,calculator01,paintbrush01,cherry01,stapler06,teabag,banana01,cd,lighter01,blankImage,blankImage,blankImage,horseshoe,,,,,,,,,,,,0,21,21,278,,,,,,,,,,,,,,,,,,,,,,,,,,,,,,,,,,,280.8160026999831,281.8278144999931,281.8111238999991,282.3993610999896,282.3993610999896,None,284.0979854000034,None,right,1.1777104000211693,284.0979854000034,None,285.297820399981,None,left,0.5296074000070803,285.297820399981,None,,,,,,,,,,,,,,,,,,,,,,,PPT21,001,2022-07-01_10h00.03.424,ABstudy,2022.1.4,59.912778978309575,
AB,Lag1_T1A_T2P,1,A,P,6,7,5,5,12,Piano,Did you see the Piano?,0.12,0.016,JPG\,toiletpaper01a,mushroom01,medal02b,sandal,rice,cd,stapler01,pizza,candle08b,garlic01a,toaster01,belt02a,blankImage,blankImage,blankImage,blankImage,blankImage,moose,,,,,,,,,,,,0,22,22,239,,,,,,,,,,,,,,,,,,,,,,,,,,,,,,,,,,,285.85724630000186,286.86615419999,286.8494351999834,287.4508414999873,287.4508414999873,None,288.944599999988,None,right,0.955133699986618,288.944599999988,None,289.9192268999759,None,left,0.3557968999957666,289.9192268999759,None,,,,,,,,,,,,,,,,,,,,,,,PPT21,001,2022-07-01_10h00.03.424,ABstudy,2022.1.4,59.912778978309575,
AB,Lag1_T1P_T2P,1,P,P,7,8,6,4,12,skunk,Did you see the skunk?,0.12,0.016,JPG\,fan,tomato01,candy,screwdriver04b,alligator,cd,skunk,stapler03b,button01,plate01b,brownsugar,lighter01,blankImage,blankImage,blankImage,blankImage,blankImage,skunk,,,,,,,,,,,,0,23,23,48,,,,,,,,,,,,,,,,,,,,,,,,,,,,,,,,,,,290.30805439999676,291.3205483999918,291.3038838999928,291.8917214999965,291.8917214999965,None,293.36336979997577,None,left,1.1116260999988299,293.36336979997577,None,294.50705839999137,None,right,0.3608366999833379,294.50705839999137,None,,,,,,,,,,,,,,,,,,,,,,,PPT21,001,2022-07-01_10h00.03.424,ABstudy,2022.1.4,59.912778978309575,
AB,Lag1_T1A_T2P,1,A,P,7,8,6,5,13,Horseshoe,Did you see the Horseshoe?,0.12,0.016,JPG\,leaf02a,apple07,cd,pineapple01a,envelope03a,paintbrush01,pig,stapler06,rice,feather03a,lemon02,balloon01b,avocado01,blankImage,blankImage,blankImage,blankImage,rooster,,,,,,,,,,,,0,24,24,241,,,,,,,,,,,,,,,,,,,,,,,,,,,,,,,,,,,294.8994790999859,295.9083383999823,295.89168800000334,296.4716116999916,296.4716116999916,None,298.05059119997895,None,right,0.8252961999969557,298.05059119997895,None,298.8946142999921,None,left,0.34052389999851584,298.8946142999921,None,,,,,,,,,,,,,,,,,,,,,,,PPT21,001,2022-07-01_10h00.03.424,ABstudy,2022.1.4,59.912778978309575,
AB,Lag5_T1P_T2P,5,P,P,5,10,4,4,14,duck,Did you see the duck?,0.12,0.016,JPG\,celery,pencil01,fan,foosballtable,duck01,shirt02,potato02b,fork03c,button01,stapler03a,baseball01a,printer02,cauliflower01,dandelion,blankImage,blankImage,blankImage,duck01,,,,,,,,,,,,0,25,25,130,,,,,,,,,,,,,,,,,,,,,,,,,,,,,,,,,,,299.2654987999995,300.2792520999792,300.2465004999831,300.862570199999,300.862570199999,None,302.45067269998253,None,left,0.7530942999874242,302.45067269998253,None,303.23238529998343,None,left,0.2834191999863833,303.23238529998343,None,,,,,,,,,,,,,,,,,,,,,,,PPT21,001,2022-07-01_10h00.03.424,ABstudy,2022.1.4,59.912778978309575,
AB,Lag1_T1P_T2P,1,P,P,6,7,5,3,10,elephant,Did you see the elephant?,0.12,0.016,JPG\,clock01a,grape01,plate01b,key01,screwdriver04b,africanelephant,stapler03b,iron01b,toothbrush03b,comb02a,blankImage,blankImage,blankImage,blankImage,blankImage,blankImage,blankImage,africanelephant,,,,,,,,,,,,0,26,26,31,,,,,,,,,,,,,,,,,,,,,,,,,,,,,,,,,,,303.6102641999896,304.61745619997964,304.60070049998467,305.21053169999504,305.21053169999504,None,306.3496085999941,None,left,0.605865299992729,306.3496085999941,None,306.98686299999827,None,left,0.29704210002091713,306.98686299999827,None,,,,,,,,,,,,,,,,,,,,,,,PPT21,001,2022-07-01_10h00.03.424,ABstudy,2022.1.4,59.912778978309575,
AB,Lag5_T1P_T2P,5,P,P,6,11,5,5,16,scooter,Did you see the scooter?,0.12,0.016,JPG\,thermometer02b,candle08b,comb02a,toothbrush03b,brick,scooter,key01,pineapple01a,candy,birthdaycandle,stapler04b,canoftennisballs,teabag,medal02b,balloon01b,banana01,blankImage,scooter,,,,,,,,,,,,0,27,27,118,,,,,,,,,,,,,,,,,,,,,,,,,,,,,,,,,,,307.3127564000024,308.3203396000026,308.3036698999931,308.87910609997925,308.87910609997925,None,310.8908948999888,None,right,0.5135559999907855,310.8908948999888,None,311.4236456999788,None,left,0.3154801999917254,311.4236456999788,None,,,,,,,,,,,,,,,,,,,,,,,PPT21,001,2022-07-01_10h00.03.424,ABstudy,2022.1.4,59.912778978309575,
AB,Lag5_T1A_T2P,5,A,P,5,10,4,5,15,Eye patch,Did you see the Eye patch?,0.12,0.016,JPG\,scissors01,balloon01b,eraser,feather03a,banana01,candle01,measuringcup01,calculator01,thermometer02b,stapler03b,pear01,carrot01,globe,baseball01a,leaf02a,blankImage,blankImage,cross01,,,,,,,,,,,,0,28,28,258,,,,,,,,,,,,,,,,,,,,,,,,,,,,,,,,,,,311.7576963999891,312.75853549997555,312.74179849997745,313.3220167999971,313.3220167999971,None,315.12010759999976,None,right,1.0587190999940503,315.12010759999976,None,316.1952203999972,None,right,0.4881355999968946,316.1952203999972,None,,,,,,,,,,,,,,,,,,,,,,,PPT21,001,2022-07-01_10h00.03.424,ABstudy,2022.1.4,59.912778978309575,
AB,Lag1_T1P_T2P,1,P,P,7,8,6,4,12,Christmas Tree,Did you see the Christmas Tree?,0.12,0.016,JPG\,sandal,fan,printer02,cellphone,mushroom01,candle08b,firtree,stapler03a,lamp04a,hammer01,teabag,aceofdiamond,blankImage,blankImage,blankImage,blankImage,blankImage,firtree,,,,,,,,,,,,0,29,29,6,,,,,,,,,,,,,,,,,,,,,,,,,,,,,,,,,,,316.71905929999775,317.7300702999928,317.7134592999937,318.30654709998635,318.30654709998635,None,319.8055753999797,None,left,0.7414126000076067,319.8055753999797,None,320.5680129999819,None,right,0.27640729999984615,320.5680129999819,None,,,,,,,,,,,,,,,,,,,,,,,PPT21,001,2022-07-01_10h00.03.424,ABstudy,2022.1.4,59.912778978309575,
AB,Lag1_T1A_T2A,1,A,A,8,9,7,4,13,sword fish,Did you see the sword fish?,0.12,0.016,JPG\,pizza,strawberry,potato02b,speaker04,battery02b,iron01b,dice05a,cellphone,globe,banana01,medal02b,baseball01a,toaster01,blankImage,blankImage,blankImage,blankImage,ear,,,,,,,,,,,,0,30,30,295,,,,,,,,,,,,,,,,,,,,,,,,,,,,,,,,,,,320.87188939997577,321.8845802999858,321.8680819000001,322.46685129997786,322.46685129997786,None,324.01960179998423,None,right,0.9122629000048619,324.01960179998423,None,324.9539756999875,None,right,0.4253982999944128,324.9539756999875,None,,,,,,,,,,,,,,,,,,,,,,,PPT21,001,2022-07-01_10h00.03.424,ABstudy,2022.1.4,59.912778978309575,
AB,Lag5_T1A_T2A,5,A,A,5,10,4,5,15,sword,Did you see the sword?,0.12,0.016,JPG\,pencil01,broccoli01a,button01,sponge01,watermelon01,lipstick02a,comb02a,fan,lighter01,sock01a,spoon01,blueberry01,belt02a,onion,grape01,blankImage,blankImage,parachute,,,,,,,,,,,,0,31,31,298,,,,,,,,,,,,,,,,,,,,,,,,,,,,,,,,,,,325.40950229999726,326.4220482999808,326.40541289999965,326.98745889999554,326.98745889999554,None,328.7979527999996,None,right,0.5416345999983605,328.7979527999996,None,329.35829049997847,None,right,0.6862935000099242,329.35829049997847,None,,,,,,,,,,,,,,,,,,,,,,,PPT21,001,2022-07-01_10h00.03.424,ABstudy,2022.1.4,59.912778978309575,
AB,Lag5_T1P_T2A,5,P,A,8,13,7,3,16,Shelves,Did you see the Shelves?,0.12,0.016,JPG\,pineapple01a,leaf02a,grape01,toiletpaper01a,match,tennisball01b,spoon01,shelves,pig,measuringcup01,ring01,lemon02,dice05a,pizza,potato02b,eraser,blankImage,shelves,,,,,,,,,,,,0,32,32,222,,,,,,,,,,,,,,,,,,,,,,,,,,,,,,,,,,,330.15118759998586,331.16015399998287,331.1267170999781,331.7211358999775,331.7211358999775,None,333.5788879999891,None,right,0.9123907999892253,333.5788879999891,None,334.51348239998333,None,right,0.6020054999971762,334.51348239998333,None,,,,,,,,,,,,,,,,,,,,,,,PPT21,001,2022-07-01_10h00.03.424,ABstudy,2022.1.4,59.912778978309575,
AB,Lag1_T1A_T2P,1,A,P,6,7,5,3,10,curtain,Did you see the curtain?,0.12,0.016,JPG\,carrot01,greenolive,fork03c,chain01,ashtray01,watermelon01,stapler06,printer02,comb02a,toaster01,blankImage,blankImage,blankImage,blankImage,blankImage,blankImage,blankImage,birdhouse,,,,,,,,,,,,0,33,33,249,,,,,,,,,,,,,,,,,,,,,,,,,,,,,,,,,,,335.15125259998604,336.165153799986,336.14852479999536,336.73856539998087,336.73856539998087,None,337.9258143999905,None,right,0.6213600999908522,337.9258143999905,None,338.56701539998176,None,left,0.2845924000139348,338.56701539998176,None,,,,,,,,,,,,,,,,,,,,,,,PPT21,001,2022-07-01_10h00.03.424,ABstudy,2022.1.4,59.912778978309575,
AB,Lag5_T1P_T2P,5,P,P,6,11,5,3,14,wrench,Did you see the wrench?,0.12,0.016,JPG\,cherry01,cymbal,envelope03a,foosballtable,shirt02,stubbywrench01a,sewingmachine01a,candle08b,battery02b,apple07,stapler03b,screwdriver04b,strawberry,sunglasses04,blankImage,blankImage,blankImage,stubbywrench01a,,,,,,,,,,,,0,34,34,122,,,,,,,,,,,,,,,,,,,,,,,,,,,,,,,,,,,338.9314529999974,339.9355393000005,339.91884410000057,340.50589369999943,340.50589369999943,None,342.1155142999778,None,left,0.45657320000464097,342.1155142999778,None,342.60435789998155,None,left,0.27104390002205037,342.60435789998155,None,,,,,,,,,,,,,,,,,,,,,,,PPT21,001,2022-07-01_10h00.03.424,ABstudy,2022.1.4,59.912778978309575,
AB,Lag5_T1A_T2P,5,A,P,8,13,7,4,17,wrench,Did you see the wrench?,0.12,0.016,JPG\,clock01a,grape01,plate01b,key01,screwdriver04b,feather03a,pineapple01a,iron01b,toothbrush03b,comb02a,broom01,toaster01,stapler05,garlic01a,match,ashtray01,blankImage,seal,,,,,,,,,,,,0,35,35,272,,,,,,,,,,,,,,,,,,,,,,,,,,,,,,,,,,,342.9050328999874,343.90578159998404,343.8890966999752,344.46857239998644,344.46857239998644,None,346.48490889999084,None,right,1.0142224000010174,346.48490889999084,None,347.52639879999333,None,left,0.540865200018743,347.52639879999333,None,,,,,,,,,,,,,,,,,,,,,,,PPT21,001,2022-07-01_10h00.03.424,ABstudy,2022.1.4,59.912778978309575,
AB,Lag1_T1P_T2P,1,P,P,8,9,7,4,13,crab,Did you see the crab?,0.12,0.016,JPG\,candle01,fork03c,plate01b,violin,computerkeyboard02,candy,calculator01,crab01,stapler04b,sock01a,teabag,banana01,cd,blankImage,blankImage,blankImage,blankImage,crab01,,,,,,,,,,,,0,36,36,37,,,,,,,,,,,,,,,,,,,,,,,,,,,,,,,,,,,348.15961229999084,349.16133179998724,349.1446898999857,349.7206251999887,349.7206251999887,None,351.2630922999815,None,right,0.6292561000154819,351.2630922999815,None,351.9140552000026,None,right,0.5052256000053603,351.9140552000026,None,,,,,,,,,,,,,,,,,,,,,,,PPT21,001,2022-07-01_10h00.03.424,ABstudy,2022.1.4,59.912778978309575,
AB,Lag1_T1P_T2A,1,P,A,6,7,5,5,12,Tombstone,Did you see the Tombstone?,0.12,0.016,JPG\,cigarette,ashtray01,envelope03a,sandal,chain01,tombstone,broccoli01a,tomato01,dandelion,candle01,lemon02,button01,blankImage,blankImage,blankImage,blankImage,blankImage,tombstone,,,,,,,,,,,,0,37,37,196,,,,,,,,,,,,,,,,,,,,,,,,,,,,,,,,,,,352.4526885999949,353.46570229998906,353.4489371999807,354.0268950999889,354.0268950999889,None,355.53225289998227,None,left,0.9506423000129871,355.53225289998227,None,356.5016493999865,None,right,0.2624978999956511,356.5016493999865,None,,,,,,,,,,,,,,,,,,,,,,,PPT21,001,2022-07-01_10h00.03.424,ABstudy,2022.1.4,59.912778978309575,
AB,Lag5_T1A_T2P,5,A,P,5,10,4,4,14,duck,Did you see the duck?,0.12,0.016,JPG\,brick,eraser,cucumber,ashtray01,thermometer02b,binoculars01b,lipstick02a,screwdriver04b,grape01,stapler04b,battery02b,iron01b,dice05a,avocado01,blankImage,blankImage,blankImage,barrel01,,,,,,,,,,,,0,38,38,280,,,,,,,,,,,,,,,,,,,,,,,,,,,,,,,,,,,356.8404592000006,357.8532079999859,357.83654799999204,358.42007649998413,358.42007649998413,None,360.0611410999845,None,right,0.7186189999920316,360.0611410999845,None,360.8063252999855,None,right,0.6292422000260558,360.8063252999855,None,,,,,,,,,,,,,,,,,,,,,,,PPT21,001,2022-07-01_10h00.03.424,ABstudy,2022.1.4,59.912778978309575,
AB,Lag5_T1P_T2P,5,P,P,7,12,6,4,16,Recycling bin,Did you see the Recycling bin?,0.12,0.016,JPG\,broccoli01a,scissors01,toothbrush03b,foosballtable,iron01b,brick,recyclingbin,toiletpaper01a,cd,garlic01a,carrot01,stapler03a,envelope03a,battery02b,balloon01b,broom01,blankImage,recyclingbin,,,,,,,,,,,,0,39,39,157,,,,,,,,,,,,,,,,,,,,,,,,,,,,,,,,,,,361.4604893999931,362.47508299999754,362.45743909999146,363.09577439998975,363.0100915999792,None,365.07067509999615,None,left,0.364999200013699,365.07067509999615,None,365.46227709998493,None,left,0.2771881999797188,365.46227709998493,None,,,,,,,,,,,,,,,,,,,,,,,PPT21,001,2022-07-01_10h00.03.424,ABstudy,2022.1.4,59.912778978309575,
AB,Lag1_T1P_T2P,1,P,P,5,6,4,3,9,elephant,Did you see the elephant?,0.12,0.016,JPG\,celery,brownsugar,key01,sunglasses04,arugula,stapler04b,dice05a,tennisball01b,scarf,blankImage,blankImage,blankImage,blankImage,blankImage,blankImage,blankImage,blankImage,arugula,,,,,,,,,,,,0,40,40,54,,,,,,,,,,,,,,,,,,,,,,,,,,,,,,,,,,,365.7696567999956,366.7790429999877,366.7623243999842,367.37163879998843,367.37163879998843,None,368.47638459998416,None,right,0.6707740000274498,368.47638459998416,None,369.16463829998975,None,right,0.8066306000109762,369.16463829998975,None,,,,,,,,,,,,,,,,,,,,,,,PPT21,001,2022-07-01_10h00.03.424,ABstudy,2022.1.4,59.912778978309575,
AB,Lag1_T1P_T2P,1,P,P,7,8,6,5,13,school bus,Did you see the school bus?,0.12,0.016,JPG\,aceofdiamond,banana01,scissors01,pig,shirt02,leaf02a,schoolbus,stapler05,fork03c,tableknife02,balloon01b,match,toothbrush03b,blankImage,blankImage,blankImage,blankImage,schoolbus,,,,,,,,,,,,0,41,41,24,,,,,,,,,,,,,,,,,,,,,,,,,,,,,,,,,,,370.0044942999957,371.01689549998264,371.00027669998235,371.61125109999557,371.61125109999557,None,373.1495158000034,None,left,0.6059851000027265,373.1495158000034,None,373.7859127999982,None,right,0.232788299996173,373.7859127999982,None,,,,,,,,,,,,,,,,,,,,,,,PPT21,001,2022-07-01_10h00.03.424,ABstudy,2022.1.4,59.912778978309575,
AB,Lag5_T1P_T2P,5,P,P,5,10,4,4,14,Christmas lights,Did you see the Christmas lights?,0.12,0.016,JPG\,binoculars01b,cymbal,pizza,candy,christmaslights,sponge01,grape01,thermometer02b,speaker04,stapler03a,lipstick02a,strawberry,candle01,tambourine02,blankImage,blankImage,blankImage,christmaslights,,,,,,,,,,,,0,42,42,168,,,,,,,,,,,,,,,,,,,,,,,,,,,,,,,,,,,374.0416510999785,375.0540061999927,375.0372378999891,375.6212776999746,375.6212776999746,None,377.34425149997696,None,left,0.37219910000567324,377.34425149997696,None,377.74126609999803,None,left,0.2456565999891609,377.74126609999803,None,,,,,,,,,,,,,,,,,,,,,,,PPT21,001,2022-07-01_10h00.03.424,ABstudy,2022.1.4,59.912778978309575,
AB,Lag1_T1A_T2P,1,A,P,8,9,7,5,14,Wolf,Did you see the Wolf?,0.12,0.016,JPG\,carrot01,watch02a,clock04,microscope,toiletpaper01a,potato02b,alligator,ring01,stapler03b,watermelon01,cd,pencil01,measuringcup01,balloon01b,blankImage,blankImage,blankImage,dreamcatcher,,,,,,,,,,,,0,43,43,253,,,,,,,,,,,,,,,,,,,,,,,,,,,,,,,,,,,378.0162100000016,379.02479959998163,379.00826799997594,379.58197679999284,379.58197679999284,None,381.3034647000022,None,right,0.5323472000018228,381.3034647000022,None,381.8606651999871,None,left,0.26226069999393076,381.8606651999871,None,,,,,,,,,,,,,,,,,,,,,,,PPT21,001,2022-07-01_10h00.03.424,ABstudy,2022.1.4,59.912778978309575,
AB,Lag1_T1P_T2P,1,P,P,8,9,7,4,13,kite,Did you see the kite?,0.12,0.016,JPG\,scissors01,balloon01b,eraser,feather03a,banana01,candle01,measuringcup01,kite,stapler04b,strawberry,pear01,carrot01,globe,blankImage,blankImage,blankImage,blankImage,kite,,,,,,,,,,,,0,44,44,17,,,,,,,,,,,,,,,,,,,,,,,,,,,,,,,,,,,382.14964789999067,383.1615047999949,383.1448735999875,383.71632089998457,383.71632089998457,None,385.32229959999677,None,left,0.8653595999930985,385.32229959999677,None,386.21486089998507,None,right,0.2840184999804478,386.21486089998507,None,,,,,,,,,,,,,,,,,,,,,,,PPT21,001,2022-07-01_10h00.03.424,ABstudy,2022.1.4,59.912778978309575,
AB,Lag5_T1A_T2P,5,A,P,5,10,4,5,15,shower,Did you see the shower?,0.12,0.016,JPG\,sewingmachine01a,thermometer02b,sponge01,eraser,broccoli01a,fork03c,pizza,violin,belt02a,stapler04b,pineapple01a,tennisball01b,dandelion,cauliflower01,lemon02,blankImage,blankImage,redfox,,,,,,,,,,,,0,45,45,271,,,,,,,,,,,,,,,,,,,,,,,,,,,,,,,,,,,386.52015569998184,387.5329735999985,387.51629649999086,388.10824029997457,388.10824029997457,None,389.9756300000008,None,right,0.41981970000779256,389.9756300000008,None,390.4190519999829,None,left,0.29637140000704676,390.4190519999829,None,,,,,,,,,,,,,,,,,,,,,,,PPT21,001,2022-07-01_10h00.03.424,ABstudy,2022.1.4,59.912778978309575,
AB,Lag5_T1P_T2P,5,P,P,8,13,7,4,17,cruise ship,Did you see the cruise ship?,0.12,0.016,JPG\,measuringcup01,dice05a,greenolive,lipstick02a,feather03a,balloon01b,lighter01,cruiseship,carrot01,plate01b,microscope,brick,stapler05,screw02,speaker04,spoon01,blankImage,cruiseship,,,,,,,,,,,,0,46,46,105,,,,,,,,,,,,,,,,,,,,,,,,,,,,,,,,,,,390.74076519999653,391.7536417999945,391.7369640999823,392.3374691999925,392.3374691999925,None,394.2724498999887,None,left,0.6507440999848768,394.2724498999887,None,394.94041539999307,None,right,0.2546755000075791,394.94041539999307,None,,,,,,,,,,,,,,,,,,,,,,,PPT21,001,2022-07-01_10h00.03.424,ABstudy,2022.1.4,59.912778978309575,
AB,Lag1_T1P_T2P,1,P,P,7,8,6,3,11,Sand castle,Did you see the Sand castle?,0.12,0.016,JPG\,thermometer02b,candle08b,comb02a,toothbrush03b,brick,computerkeyboard02,sandcastle,stapler06,candy,birthdaycandle,clock04,blankImage,blankImage,blankImage,blankImage,blankImage,blankImage,sandcastle,,,,,,,,,,,,0,47,47,70,,,,,,,,,,,,,,,,,,,,,,,,,,,,,,,,,,,395.23112240000046,396.2416645999765,396.22492389997933,396.8151254999975,396.8151254999975,None,398.1793885999941,None,right,1.2960219999949913,398.1793885999941,None,399.49485509999795,None,left,0.28384380001807585,399.49485509999795,None,,,,,,,,,,,,,,,,,,,,,,,PPT21,001,2022-07-01_10h00.03.424,ABstudy,2022.1.4,59.912778978309575,
AB,Lag1_T1P_T2P,1,P,P,5,6,4,5,11,Light switch,Did you see the Light switch?,0.12,0.016,JPG\,iron01b,orange,birthdaycandle,potato02b,lightswitch01,stapler03b,key01,candle08b,celery,tableknife02,pen04b,blankImage,blankImage,blankImage,blankImage,blankImage,blankImage,lightswitch01,,,,,,,,,,,,0,48,48,18,,,,,,,,,,,,,,,,,,,,,,,,,,,,,,,,,,,399.80643820000114,400.8129320000007,400.7963238999946,401.38001139997505,401.38001139997505,None,402.7437879999925,None,left,0.8034909999987576,402.7437879999925,None,403.5654426999972,None,right,0.27878349999082275,403.5654426999972,None,,,,,,,,,,,,,,,,,,,,,,,PPT21,001,2022-07-01_10h00.03.424,ABstudy,2022.1.4,59.912778978309575,
AB,Lag1_T1P_T2P,1,P,P,6,7,5,3,10,cupcake,Did you see the cupcake?,0.12,0.016,JPG\,printer02,leaf02a,cauliflower01,sock01a,brownsugar,cupcake,stapler01,orange,belt02a,shirt02,blankImage,blankImage,blankImage,blankImage,blankImage,blankImage,blankImage,cupcake,,,,,,,,,,,,0,49,49,38,,,,,,,,,,,,,,,,,,,,,,,,,,,,,,,,,,,403.9146746999759,404.91682889999356,404.900195299997,405.5160365999909,405.5160365999909,None,406.65836469997885,None,left,0.6894552000158001,406.65836469997885,None,407.36919269998907,None,right,0.35446840000804514,407.36919269998907,None,,,,,,,,,,,,,,,,,,,,,,,PPT21,001,2022-07-01_10h00.03.424,ABstudy,2022.1.4,59.912778978309575,
AB,Lag5_T1P_T2P,5,P,P,7,12,6,5,17,Pigeon,Did you see the Pigeon?,0.12,0.016,JPG\,strawberry,leaf02a,clock04,candle01,avocado01,paintbrush01,pigeon,brownsugar,ring01,lemon02,fork03c,stapler01,cauliflower01,tableknife02,tennisball01b,thermometer02b,blankImage,pigeon,,,,,,,,,,,,0,50,50,151,,,,,,,,,,,,,,,,,,,,,,,,,,,,,,,,,,,407.75255299999844,408.75402979998034,408.7373003999819,409.32944410000346,409.32944410000346,None,411.3386931999994,None,left,0.3679219999758061,411.3386931999994,None,411.72348299997975,None,left,0.30309389997273684,411.72348299997975,None,,,,,,,,,,,,,,,,,,,,,,,PPT21,001,2022-07-01_10h00.03.424,ABstudy,2022.1.4,59.912778978309575,
AB,Lag5_T1P_T2A,5,P,A,5,10,4,3,13,cork,Did you see the cork?,0.12,0.016,JPG\,clock01a,grape01,plate01b,key01,cork02,feather03a,pineapple01a,iron01b,toothbrush03b,comb02a,broom01,toaster01,pizza,blankImage,blankImage,blankImage,blankImage,cork02,,,,,,,,,,,,0,51,51,209,,,,,,,,,,,,,,,,,,,,,,,,,,,,,,,,,,,412.0593491999898,413.07480949998717,413.0414670999744,413.63786709998385,413.63786709998385,None,415.2847147999855,None,left,0.5984785000036936,415.2847147999855,None,415.91104119998636,None,right,0.2522019000025466,415.91104119998636,None,,,,,,,,,,,,,,,,,,,,,,,PPT21,001,2022-07-01_10h00.03.424,ABstudy,2022.1.4,59.912778978309575,
AB,Lag5_T1P_T2P,5,P,P,5,10,4,5,15,ear,Did you see the ear?,0.12,0.016,JPG\,fork03c,plate01b,toiletpaper01a,greenolive,ear,blueberry01,onion,calculator01,envelope03a,stapler06,book01b,pencil01,sewingmachine01a,brick,watermelon01,blankImage,blankImage,ear,,,,,,,,,,,,0,52,52,107,,,,,,,,,,,,,,,,,,,,,,,,,,,,,,,,,,,416.19688079998014,417.2122893999913,417.1789495999983,417.7499727999966,417.7499727999966,None,419.63441179998335,None,left,0.36068470001919195,419.63441179998335,None,420.01505619997624,None,left,0.23607859999174252,420.01505619997624,None,,,,,,,,,,,,,,,,,,,,,,,PPT21,001,2022-07-01_10h00.03.424,ABstudy,2022.1.4,59.912778978309575,
AB,Lag5_T1P_T2P,5,P,P,7,12,6,5,17,statue,Did you see the statue?,0.12,0.016,JPG\,pear01,clock01a,cymbal,match,ashtray01,globe,statue,button01,lemon02,pen04b,dice05a,stapler06,toothbrush03b,screwdriver04b,feather03a,key01,blankImage,statue,,,,,,,,,,,,0,53,53,100,,,,,,,,,,,,,,,,,,,,,,,,,,,,,,,,,,,420.2843812999781,421.29968509997707,421.26629319999483,421.87062249999144,421.87062249999144,None,423.8330492999812,None,left,0.8177629999991041,423.8330492999812,None,424.66992999997456,None,right,0.24478460001409985,424.66992999997456,None,,,,,,,,,,,,,,,,,,,,,,,PPT21,001,2022-07-01_10h00.03.424,ABstudy,2022.1.4,59.912778978309575,
AB,Lag5_T1P_T2P,5,P,P,8,13,7,4,17,lamp,Did you see the lamp?,0.12,0.016,JPG\,globe,broccoli01a,binoculars01b,iron01b,avocado01,dandelion,pineapple01a,floorlamp,fan,pizza,celery,blueberry01,stapler01,dice05a,watermelon01,candy,blankImage,floorlamp,,,,,,,,,,,,0,54,54,99,,,,,,,,,,,,,,,,,,,,,,,,,,,,,,,,,,,424.9423024999851,425.95461570000043,425.93783280000207,426.54987479999545,426.54987479999545,None,428.44494600000326,None,left,0.40647280000848696,428.44494600000326,None,428.8740296999749,None,left,0.25653879999299534,428.8740296999749,None,,,,,,,,,,,,,,,,,,,,,,,PPT21,001,2022-07-01_10h00.03.424,ABstudy,2022.1.4,59.912778978309575,
AB,Lag5_T1P_T2P,5,P,P,5,10,4,5,15,mouse,Did you see the mouse?,0.12,0.016,JPG\,pineapple01a,leaf02a,grape01,toiletpaper01a,mouse,tennisball01b,spoon01,chain01,pig,stapler03a,ring01,lemon02,dice05a,pizza,potato02b,blankImage,blankImage,mouse,,,,,,,,,,,,0,55,55,94,,,,,,,,,,,,,,,,,,,,,,,,,,,,,,,,,,,429.16136129997903,430.17500669998117,430.1583180000016,430.7778270999843,430.7778270999843,None,432.56131229997845,None,left,0.4252656000026036,432.56131229997845,None,433.0115557999816,None,left,0.28714999998919666,433.0115557999816,None,,,,,,,,,,,,,,,,,,,,,,,PPT21,001,2022-07-01_10h00.03.424,ABstudy,2022.1.4,59.912778978309575,
AB,Lag1_T1P_T2P,1,P,P,7,8,6,3,11,cloud,Did you see the cloud?,0.12,0.016,JPG\,lighter01,hammer01,spoon01,chain01,cymbal,sponge01,cloud,stapler06,pig,watermelon01,cauliflower01,blankImage,blankImage,blankImage,blankImage,blankImage,blankImage,cloud,,,,,,,,,,,,0,56,56,36,,,,,,,,,,,,,,,,,,,,,,,,,,,,,,,,,,,433.39033100000233,434.39620659998036,434.3795690999832,434.9920034999959,434.9920034999959,None,436.2460409999767,None,left,0.7647649999998976,436.2460409999767,None,437.0322639999795,None,right,0.24266540000098757,437.0322639999795,None,,,,,,,,,,,,,,,,,,,,,,,PPT21,001,2022-07-01_10h00.03.424,ABstudy,2022.1.4,59.912778978309575,
AB,Lag5_T1P_T2P,5,P,P,5,10,4,5,15,sword fish,Did you see the sword fish?,0.12,0.016,JPG\,scissors01,balloon01b,eraser,feather03a,swordfish,candle01,measuringcup01,calculator01,thermometer02b,stapler04b,pear01,carrot01,globe,baseball01a,leaf02a,blankImage,blankImage,swordfish,,,,,,,,,,,,0,57,57,160,,,,,,,,,,,,,,,,,,,,,,,,,,,,,,,,,,,437.3044784999802,438.316637299984,438.3001965000003,438.8603314999782,438.8603314999782,None,440.7576869999757,None,left,0.333012899995083,440.7576869999757,None,441.1195953999995,None,left,0.20292590002645738,441.1195953999995,None,,,,,,,,,,,,,,,,,,,,,,,PPT21,001,2022-07-01_10h00.03.424,ABstudy,2022.1.4,59.912778978309575,
AB,Lag5_T1A_T2P,5,A,P,6,11,5,4,15,butterfly,Did you see the butterfly?,0.12,0.016,JPG\,comb02a,key01,medal02b,battery02b,lighter01,microscope,watermelon01,sandal,pig,cellphone,stapler06,calculator01,cymbal,clock04,cucumber,blankImage,blankImage,uprightpiano01,,,,,,,,,,,,0,58,58,276,,,,,,,,,,,,,,,,,,,,,,,,,,,,,,,,,,,441.35715860000346,442.37072129998705,442.3541183999914,442.9408846999868,442.9408846999868,None,444.7423775999923,None,right,0.788267600000836,444.7423775999923,None,445.5574211999774,None,right,0.5021572000114247,445.5574211999774,None,,,,,,,,,,,,,,,,,,,,,,,PPT21,001,2022-07-01_10h00.03.424,ABstudy,2022.1.4,59.912778978309575,
AB,Lag1_T1P_T2A,1,P,A,6,7,5,3,10,Dragon fly,Did you see the Dragon fly?,0.12,0.016,JPG\,leaf02a,pear01,measuringcup01,cigarette,fan,dragonfly01,teabag,tableknife02,ring01,pencil01,blankImage,blankImage,blankImage,blankImage,blankImage,blankImage,blankImage,dragonfly01,,,,,,,,,,,,0,59,59,185,,,,,,,,,,,,,,,,,,,,,,,,,,,,,,,,,,,446.0933439999935,447.10874460000196,447.0753187999944,447.6528531999793,447.6528531999793,None,448.97590079999645,None,left,1.3072566000046209,448.97590079999645,None,450.3121487000026,None,right,0.37897599997813813,450.3121487000026,None,,,,,,,,,,,,,,,,,,,,,,,PPT21,001,2022-07-01_10h00.03.424,ABstudy,2022.1.4,59.912778978309575,
AB,Lag5_T1P_T2P,5,P,P,8,13,7,4,17,trumpet,Did you see the trumpet?,0.12,0.016,JPG\,toaster01,scarf,toiletpaper01a,calculator01,violin,sewingmachine01a,fan,trumpet,strawberry,balloon01b,brownsugar,eraser,stapler01,rice,ring01,shirt02,blankImage,trumpet,,,,,,,,,,,,0,60,60,145,,,,,,,,,,,,,,,,,,,,,,,,,,,,,,,,,,,450.71931049998966,451.73029089998454,451.7135731999879,452.3260202999809,452.3260202999809,None,454.2336738999875,None,left,0.37766349999583326,454.2336738999875,None,454.6333622999955,None,left,0.24102940000011586,454.6333622999955,None,,,,,,,,,,,,,,,,,,,,,,,PPT21,001,2022-07-01_10h00.03.424,ABstudy,2022.1.4,59.912778978309575,
AB,Lag5_T1P_T2A,5,P,A,8,13,7,4,17,knife,Did you see the knife?,0.12,0.016,JPG\,lighter01,hammer01,spoon01,chain01,cymbal,sponge01,lipstick02a,knife03,pig,watermelon01,cauliflower01,lemon02,broccoli01a,tableknife02,tennisball01b,toothbrush03b,blankImage,knife03,,,,,,,,,,,,0,61,61,214,,,,,,,,,,,,,,,,,,,,,,,,,,,,,,,,,,,454.905328199995,455.9178266999952,455.9010648999829,456.491813599976,456.491813599976,None,458.42199829997844,None,left,0.8447577000188176,458.42199829997844,None,459.2876331000007,None,right,0.5154612000042107,459.2876331000007,None,,,,,,,,,,,,,,,,,,,,,,,PPT21,001,2022-07-01_10h00.03.424,ABstudy,2022.1.4,59.912778978309575,
AB,Lag5_T1P_T2P,5,P,P,6,11,5,4,15,fish,Did you see the fish?,0.12,0.016,JPG\,sock01a,spoon01,alligator,comb02a,printer02,rockbass,lamp04a,cymbal,greenolive,computerkeyboard02,stapler03a,scarf,teabag,watermelon01,battery02b,blankImage,blankImage,rockbass,,,,,,,,,,,,0,62,62,115,,,,,,,,,,,,,,,,,,,,,,,,,,,,,,,,,,,459.8248784999887,460.83962189999875,460.8063551999803,461.44793589998153,461.44793589998153,None,463.20359140000073,None,left,0.3597458000003826,463.20359140000073,None,463.5919429999776,None,left,0.23442459999932908,463.5919429999776,None,,,,,,,,,,,,,,,,,,,,,,,PPT21,001,2022-07-01_10h00.03.424,ABstudy,2022.1.4,59.912778978309575,
AB,Lag1_T1P_T2P,1,P,P,7,8,6,5,13,arrow,Did you see the arrow?,0.12,0.016,JPG\,pencil01,broccoli01a,button01,sponge01,watermelon01,lipstick02a,arrow02,stapler04b,lighter01,sock01a,spoon01,blueberry01,belt02a,blankImage,blankImage,blankImage,blankImage,arrow02,,,,,,,,,,,,0,63,63,76,,,,,,,,,,,,,,,,,,,,,,,,,,,,,,,,,,,463.9252994999988,464.9266481999948,464.9099166999804,465.48929869997664,465.48929869997664,None,467.0254136000003,None,left,0.4650081999716349,467.0254136000003,None,467.51336389998323,None,right,0.25762489999760874,467.51336389998323,None,,,,,,,,,,,,,,,,,,,,,,,PPT21,001,2022-07-01_10h00.03.424,ABstudy,2022.1.4,59.912778978309575,
AB,Lag5_T1P_T2A,5,P,A,5,10,4,3,13,martini glass,Did you see the martini glass?,0.12,0.016,JPG\,brick,eraser,cucumber,ashtray01,martiniglass01b,binoculars01b,lipstick02a,screwdriver04b,grape01,brownsugar,battery02b,iron01b,dice05a,blankImage,blankImage,blankImage,blankImage,martiniglass01b,,,,,,,,,,,,0,64,64,217,,,,,,,,,,,,,,,,,,,,,,,,,,,,,,,,,,,467.79828519999865,468.8136359999771,468.78025869998964,469.3612149999826,469.3612149999826,None,470.9748145999911,None,left,0.5805324999964796,470.9748145999911,None,471.5832545000012,None,right,0.1871357000200078,471.5832545000012,None,,,,,,,,,,,,,,,,,,,,,,,PPT21,001,2022-07-01_10h00.03.424,ABstudy,2022.1.4,59.912778978309575,
AB,Lag1_T1A_T2P,1,A,P,8,9,7,5,14,calendar,Did you see the calendar?,0.12,0.016,JPG\,foosballtable,candy,envelope03a,microscope,pencil01,leaf02a,scissors01,watermelon01,stapler04b,dandelion,pineapple01a,hammer01,celery,thermometer02b,blankImage,blankImage,blankImage,trampoline,,,,,,,,,,,,0,65,65,245,,,,,,,,,,,,,,,,,,,,,,,,,,,,,,,,,,,471.86388269998133,472.86786289999145,472.851193599985,473.3522768999974,473.3522768999974,None,475.1199716999836,None,right,1.9640308000089135,475.1199716999836,None,477.10547999999835,None,left,0.3136188000207767,477.10547999999835,None,,,,,,,,,,,,,,,,,,,,,,,PPT21,001,2022-07-01_10h00.03.424,ABstudy,2022.1.4,59.912778978309575,
AB,Lag1_T1P_T2A,1,P,A,6,7,5,4,11,bird,Did you see the bird?,0.12,0.016,JPG\,foosballtable,candy,envelope03a,microscope,pencil01,cedarwaxwing,scissors01,watermelon01,grape01,dandelion,pineapple01a,blankImage,blankImage,blankImage,blankImage,blankImage,blankImage,cedarwaxwing,,,,,,,,,,,,0,66,66,182,,,,,,,,,,,,,,,,,,,,,,,,,,,,,,,,,,,477.44269899997744,478.45672529999865,478.440046099975,478.9407249999931,478.9407249999931,None,480.45770219998667,None,left,0.6573408999829553,480.45770219998667,None,481.14296319999266,None,right,0.22816410000086762,481.14296319999266,None,,,,,,,,,,,,,,,,,,,,,,,PPT21,001,2022-07-01_10h00.03.424,ABstudy,2022.1.4,59.912778978309575,
AB,Lag1_T1A_T2P,1,A,P,7,8,6,5,13,Ant,Did you see the Ant?,0.12,0.016,JPG\,rice,watermelon01,tableknife02,scarf,computerkeyboard02,cauliflower01,battery02b,stapler03b,book01b,sandal,sponge01,microscope,tomato01,blankImage,blankImage,blankImage,blankImage,sandcastle,,,,,,,,,,,,0,67,67,242,,,,,,,,,,,,,,,,,,,,,,,,,,,,,,,,,,,481.40473680000287,482.41082029999234,482.3941242999863,483.0290629999945,483.0290629999945,None,484.57007719998364,None,right,1.5206158999935724,484.57007719998364,None,486.1141473999887,None,left,0.4643497000215575,486.1141473999887,None,,,,,,,,,,,,,,,,,,,,,,,PPT21,001,2022-07-01_10h00.03.424,ABstudy,2022.1.4,59.912778978309575,
AB,Lag5_T1P_T2P,5,P,P,7,12,6,4,16,Wolf,Did you see the Wolf?,0.12,0.016,JPG\,brick,eraser,cucumber,ashtray01,thermometer02b,binoculars01b,greywolf,screwdriver04b,grape01,brownsugar,battery02b,stapler03b,dice05a,avocado01,birthdaycandle,watch02a,blankImage,greywolf,,,,,,,,,,,,0,68,68,89,,,,,,,,,,,,,,,,,,,,,,,,,,,,,,,,,,,486.6003541999962,487.6156785999774,487.5823182000022,488.1667669999879,488.1667669999879,None,490.1539294999966,None,left,0.6647031999891624,490.1539294999966,None,490.83561339997686,None,right,0.23920169999473728,490.83561339997686,None,,,,,,,,,,,,,,,,,,,,,,,PPT21,001,2022-07-01_10h00.03.424,ABstudy,2022.1.4,59.912778978309575,
AB,Lag5_T1P_T2P,5,P,P,6,11,5,5,16,keys,Did you see the keys?,0.12,0.016,JPG\,toiletpaper01a,mushroom01,medal02b,sandal,rice,foldingchair,feather03a,pizza,candle08b,garlic01a,stapler01,belt02a,cigarette,violin,lemon02,fork03c,blankImage,foldingchair,,,,,,,,,,,,0,69,69,125,,,,,,,,,,,,,,,,,,,,,,,,,,,,,,,,,,,491.1048552999855,492.1201841000002,492.08685689998674,492.6740523999906,492.6740523999906,None,494.6061131999886,None,right,0.556179000006523,494.6061131999886,None,495.189907699998,None,left,0.24538089998532087,495.189907699998,None,,,,,,,,,,,,,,,,,,,,,,,PPT21,001,2022-07-01_10h00.03.424,ABstudy,2022.1.4,59.912778978309575,
AB,Lag5_T1P_T2A,5,P,A,7,12,6,3,15,helmet,Did you see the helmet?,0.12,0.016,JPG\,fork03c,belt02a,grape01,computerkeyboard02,lemon02,printer02,skihelmet01,toiletpaper01a,toaster01,lipstick02a,book01b,blueberry01,spoon01,apple07,avocado01,blankImage,blankImage,skihelmet01,,,,,,,,,,,,0,70,70,225,,,,,,,,,,,,,,,,,,,,,,,,,,,,,,,,,,,495.46084399998654,496.474751599977,496.4579978999973,497.0338260999997,497.0338260999997,None,498.97852139998577,None,left,0.8237551999918651,498.97852139998577,None,499.82799530000193,None,right,0.8231331999995746,499.82799530000193,None,,,,,,,,,,,,,,,,,,,,,,,PPT21,001,2022-07-01_10h00.03.424,ABstudy,2022.1.4,59.912778978309575,
AB,Lag1_T1P_T2A,1,P,A,5,6,4,5,11,Toaster oven,Did you see the Toaster oven?,0.12,0.016,JPG\,fork03c,toothbrush03b,cellphone,fan,toasteroven,clock01a,ring01,eraser,sunglasses04,thermometer02b,violin,blankImage,blankImage,blankImage,blankImage,blankImage,blankImage,toasteroven,,,,,,,,,,,,0,71,71,200,,,,,,,,,,,,,,,,,,,,,,,,,,,,,,,,,,,500.68597309998586,501.69657259999076,501.6799355999974,502.2441504999879,502.2441504999879,None,503.58875460000127,None,right,0.879079099977389,503.58875460000127,None,504.5015085999912,None,right,0.6140282000123989,504.5015085999912,None,,,,,,,,,,,,,,,,,,,,,,,PPT21,001,2022-07-01_10h00.03.424,ABstudy,2022.1.4,59.912778978309575,
AB,Lag5_T1P_T2P,5,P,P,7,12,6,5,17,flower,Did you see the flower?,0.12,0.016,JPG\,leaf02a,pear01,measuringcup01,cigarette,fan,lemon02,lily,tableknife02,ring01,pencil01,cellphone,stapler01,carrot01,binoculars01b,sock01a,book01b,blankImage,lily,,,,,,,,,,,,0,72,72,134,,,,,,,,,,,,,,,,,,,,,,,,,,,,,,,,,,,505.14074539998546,506.15077989999554,506.134118499991,506.707190599991,506.707190599991,None,508.70331219999935,None,left,0.4034952000074554,508.70331219999935,None,509.13734549999936,None,left,0.2413976000098046,509.13734549999936,None,,,,,,,,,,,,,,,,,,,,,,,PPT21,001,2022-07-01_10h00.03.424,ABstudy,2022.1.4,59.912778978309575,
AB,Lag1_T1P_T2A,1,P,A,8,9,7,5,14,Ceiling fan,Did you see the Ceiling fan?,0.12,0.016,JPG\,cucumber,sponge01,alligator,pear01,ashtray01,hammer01,clock04,ceilingfan01,fork03c,binoculars01b,mushroom01,broccoli01a,leaf02a,acorn,blankImage,blankImage,blankImage,ceilingfan01,,,,,,,,,,,,0,73,73,183,,,,,,,,,,,,,,,,,,,,,,,,,,,,,,,,,,,509.4118808999774,510.4219683999836,510.40522999997484,511.021073299984,511.021073299984,None,512.5934882999863,None,right,0.945405300008133,512.5934882999863,None,513.5581917999953,None,right,0.2765983999997843,513.5581917999953,None,,,,,,,,,,,,,,,,,,,,,,,PPT21,001,2022-07-01_10h00.03.424,ABstudy,2022.1.4,59.912778978309575,
AB,Lag1_T1P_T2P,1,P,P,8,9,7,3,12,cactus,Did you see the cactus?,0.12,0.016,JPG\,tennisball01b,paintbrush01,medal02b,apple07,speaker04,iron01b,avocado01,cactus,stapler03b,toiletpaper01a,watermelon01,candle01,blankImage,blankImage,blankImage,blankImage,blankImage,cactus,,,,,,,,,,,,0,74,74,58,,,,,,,,,,,,,,,,,,,,,,,,,,,,,,,,,,,513.8736894000031,514.8761635999836,514.8428211999999,515.4368950999924,515.4368950999924,None,516.9242203999893,None,left,0.78188819999923,516.9242203999893,None,517.7291835999931,None,right,0.3131948999944143,517.7291835999931,None,,,,,,,,,,,,,,,,,,,,,,,PPT21,001,2022-07-01_10h00.03.424,ABstudy,2022.1.4,59.912778978309575,
AB,Lag5_T1A_T2A,5,A,A,6,11,5,3,14,mirror,Did you see the mirror?,0.12,0.016,JPG\,foosballtable,candy,envelope03a,microscope,pencil01,leaf02a,scissors01,watermelon01,grape01,dandelion,pineapple01a,hammer01,celery,thermometer02b,blankImage,blankImage,blankImage,shower,,,,,,,,,,,,0,75,75,305,,,,,,,,,,,,,,,,,,,,,,,,,,,,,,,,,,,518.0671784000006,519.0805671999988,519.063854899985,519.5644027999952,519.5644027999952,None,521.3355154999881,None,right,0.963335400010692,521.3355154999881,None,522.3172682999866,None,right,0.9894407999818213,522.3172682999866,None,,,,,,,,,,,,,,,,,,,,,,,PPT21,001,2022-07-01_10h00.03.424,ABstudy,2022.1.4,59.912778978309575,
AB,Lag1_T1A_T2A,1,A,A,5,6,4,3,9,Pigeon,Did you see the Pigeon?,0.12,0.016,JPG\,candle01,paintbrush01,scissors01,fan,microscope,toothbrush03b,candle08b,watermelon01,teabag,blankImage,blankImage,blankImage,blankImage,blankImage,blankImage,blankImage,blankImage,floorlamp,,,,,,,,,,,,0,76,76,286,,,,,,,,,,,,,,,,,,,,,,,,,,,,,,,,,,,523.3372495999793,524.3526163999923,524.3191266999929,524.8890550999786,524.8890550999786,None,526.087520000001,None,right,0.8522687000222504,526.087520000001,None,526.9717347999976,None,right,0.766438399994513,526.9717347999976,None,,,,,,,,,,,,,,,,,,,,,,,PPT21,001,2022-07-01_10h00.03.424,ABstudy,2022.1.4,59.912778978309575,
AB,Lag5_T1P_T2A,5,P,A,5,10,4,3,13,pin,Did you see the pin?,0.12,0.016,JPG\,candle01,fork03c,plate01b,violin,pin,candy,calculator01,paintbrush01,cherry01,sock01a,teabag,banana01,cd,blankImage,blankImage,blankImage,blankImage,pin,,,,,,,,,,,,0,77,77,215,,,,,,,,,,,,,,,,,,,,,,,,,,,,,,,,,,,527.7554904999852,528.7569033999753,528.7401820999803,529.3210602999898,529.3210602999898,None,530.8958607999957,None,right,0.7468766999954823,530.8958607999957,None,531.6596102999756,None,right,0.3511888000066392,531.6596102999756,None,,,,,,,,,,,,,,,,,,,,,,,PPT21,001,2022-07-01_10h00.03.424,ABstudy,2022.1.4,59.912778978309575,
AB,Lag1_T1P_T2P,1,P,P,6,7,5,5,12,bat,Did you see the bat?,0.12,0.016,JPG\,comb02a,key01,medal02b,battery02b,lighter01,bat,stapler05,sandal,pig,cellphone,computerkeyboard02,calculator01,blankImage,blankImage,blankImage,blankImage,blankImage,bat,,,,,,,,,,,,0,78,78,35,,,,,,,,,,,,,,,,,,,,,,,,,,,,,,,,,,,532.0430449999985,533.0442228999746,533.0275884000002,533.6530732999963,533.6530732999963,None,535.134584399988,None,left,0.8115764000103809,535.134584399988,None,535.963803599996,None,right,0.7107123000023421,535.963803599996,None,,,,,,,,,,,,,,,,,,,,,,,PPT21,001,2022-07-01_10h00.03.424,ABstudy,2022.1.4,59.912778978309575,
AB,Lag5_T1P_T2P,5,P,P,6,11,5,5,16,Parking meter,Did you see the Parking meter?,0.12,0.016,JPG\,dice05a,watch02a,pig,lighter01,button01,parkingmeter,paintbrush01,microscope,plate01b,pen04b,stapler03b,weight04a,carrot01,shirt02,globe,garlic01a,blankImage,parkingmeter,,,,,,,,,,,,0,79,79,172,,,,,,,,,,,,,,,,,,,,,,,,,,,,,,,,,,,536.7024748999975,537.7156207999797,537.6989533999877,538.2794134999858,538.2794134999858,None,540.1932343999797,None,right,1.2657726000179537,540.1932343999797,None,541.4862738999946,None,right,0.46149469999363646,541.4862738999946,None,,,,,,,,,,,,,,,,,,,,,,,PPT21,001,2022-07-01_10h00.03.424,ABstudy,2022.1.4,59.912778978309575,
AB,Lag1_T1P_T2A,1,P,A,5,6,4,4,10,paper airplane,Did you see the paper airplane?,0.12,0.016,JPG\,thermometer02b,avocado01,scissors01,tennisball01b,paperairplane,banana01,strawberry,cigarette,potato02b,pineapple01a,blankImage,blankImage,blankImage,blankImage,blankImage,blankImage,blankImage,paperairplane,,,,,,,,,,,,0,80,80,191,,,,,,,,,,,,,,,,,,,,,,,,,,,,,,,,,,,541.9794408000016,542.9877565999923,542.9710878999904,543.5522493000026,543.5522493000026,None,544.7451807999751,None,left,0.7061474999936763,544.7451807999751,None,545.4734927999962,None,right,0.2889826000027824,545.4734927999962,None,,,,,,,,,,,,,,,,,,,,,,,PPT21,001,2022-07-01_10h00.03.424,ABstudy,2022.1.4,59.912778978309575,
AB,Lag5_T1A_T2P,5,A,P,7,12,6,4,16,hand,Did you see the hand?,0.12,0.016,JPG\,celery,tennisball01b,calculator01,pear01,screw02,orange,button01,cellphone,onion,apple07,iron01b,stapler05,banana01,paintbrush01,dandelion,toothbrush03b,blankImage,bull,,,,,,,,,,,,0,81,81,281,,,,,,,,,,,,,,,,,,,,,,,,,,,,,,,,,,,545.8054446000024,546.807991299982,546.7746556999919,547.3798424999986,547.3798424999986,None,549.3434343999834,None,right,1.0514027000172064,549.3434343999834,None,550.411597600003,None,right,0.5351733000134118,550.411597600003,None,,,,,,,,,,,,,,,,,,,,,,,PPT21,001,2022-07-01_10h00.03.424,ABstudy,2022.1.4,59.912778978309575,
AB,Lag5_T1A_T2P,5,A,P,5,10,4,3,13,flower,Did you see the flower?,0.12,0.016,JPG\,cucumber,ring01,lipstick02a,microscope,violin,garlic01a,celery,lighter01,cherry01,stapler03a,belt02a,key01,binoculars01b,blankImage,blankImage,blankImage,blankImage,christmastree,,,,,,,,,,,,0,82,82,284,,,,,,,,,,,,,,,,,,,,,,,,,,,,,,,,,,,550.9811000999762,551.9966808999889,551.9632910999935,552.5335069999855,552.5335069999855,None,554.1953156999953,None,right,0.7513374999980442,554.1953156999953,None,554.9662817999779,None,right,0.3405205000017304,554.9662817999779,None,,,,,,,,,,,,,,,,,,,,,,,PPT21,001,2022-07-01_10h00.03.424,ABstudy,2022.1.4,59.912778978309575,
AB,Lag5_T1P_T2P,5,P,P,6,11,5,4,15,shower,Did you see the shower?,0.12,0.016,JPG\,dice05a,watch02a,pig,lighter01,button01,shower,paintbrush01,microscope,plate01b,pen04b,stapler05,weight04a,carrot01,shirt02,globe,blankImage,blankImage,shower,,,,,,,,,,,,0,83,83,121,,,,,,,,,,,,,,,,,,,,,,,,,,,,,,,,,,,555.3374061999784,556.3509507999988,556.3343175999762,556.9231339999824,556.9231339999824,None,558.7277936999744,None,right,0.7307845999894198,558.7277936999744,None,559.487404399988,None,right,0.4992459999921266,559.487404399988,None,,,,,,,,,,,,,,,,,,,,,,,PPT21,001,2022-07-01_10h00.03.424,ABstudy,2022.1.4,59.912778978309575,
AB,Lag1_T1P_T2A,1,P,A,7,8,6,4,12,gorilla,Did you see the gorilla?,0.12,0.016,JPG\,scissors01,ashtray01,garlic01a,medal02b,cigarette,candle08b,gorilla,envelope03a,cucumber,rice,toiletpaper01a,greenolive,blankImage,blankImage,blankImage,blankImage,blankImage,gorilla,,,,,,,,,,,,0,84,84,189,,,,,,,,,,,,,,,,,,,,,,,,,,,,,,,,,,,560.0088984999747,561.0224438000005,561.0056029999978,561.585355999996,561.585355999996,None,563.1032172999985,None,left,0.5626436000165995,563.1032172999985,None,563.6910972999758,None,right,0.3274354000168387,563.6910972999758,None,,,,,,,,,,,,,,,,,,,,,,,PPT21,001,2022-07-01_10h00.03.424,ABstudy,2022.1.4,59.912778978309575,
AB,Lag1_T1A_T2P,1,A,P,8,9,7,4,13,Fireplace,Did you see the Fireplace?,0.12,0.016,JPG\,scissors01,ashtray01,garlic01a,medal02b,cigarette,candle08b,leaf02a,envelope03a,stapler06,rice,toiletpaper01a,greenolive,cymbal,blankImage,blankImage,blankImage,blankImage,dartboard,,,,,,,,,,,,0,85,85,252,,,,,,,,,,,,,,,,,,,,,,,,,,,,,,,,,,,564.0476826999802,565.0596681000025,565.043002499995,565.6194601999887,565.6194601999887,None,567.1184293999977,None,right,0.7799552000069525,567.1184293999977,None,567.929118799977,None,right,0.5455752999987453,567.929118799977,None,,,,,,,,,,,,,,,,,,,,,,,PPT21,001,2022-07-01_10h00.03.424,ABstudy,2022.1.4,59.912778978309575,
AB,Lag1_T1P_T2P,1,P,P,6,7,5,3,10,Pool table,Did you see the Pool table?,0.12,0.016,JPG\,tomato01,pen04b,shirt02,carrot01,lamp04a,pooltable,stapler06,avocado01,sewingmachine01a,apple07,blankImage,blankImage,blankImage,blankImage,blankImage,blankImage,blankImage,pooltable,,,,,,,,,,,,0,86,86,29,,,,,,,,,,,,,,,,,,,,,,,,,,,,,,,,,,,568.502840799978,569.514053299994,569.4974632999802,570.0930515999789,570.0930515999789,None,571.3670700999792,None,left,0.6353828000137582,571.3670700999792,None,572.0330242999771,None,left,0.2736282999976538,572.0330242999771,None,,,,,,,,,,,,,,,,,,,,,,,PPT21,001,2022-07-01_10h00.03.424,ABstudy,2022.1.4,59.912778978309575,
AB,Lag5_T1P_T2P,5,P,P,8,13,7,4,17,butterfly,Did you see the butterfly?,0.12,0.016,JPG\,speaker04,sewingmachine01a,eraser,violin,globe,belt02a,sunglasses04,butterfly,cd,greenolive,alligator,pear01,stapler01,screwdriver04b,banana01,cigarette,blankImage,butterfly,,,,,,,,,,,,0,87,87,126,,,,,,,,,,,,,,,,,,,,,,,,,,,,,,,,,,,572.3357844999991,573.3510301999922,573.3176563000015,573.8979235999868,573.8979235999868,None,575.8466804999916,None,left,0.39615620000404306,575.8466804999916,None,576.2708862999862,None,left,0.3954647999780718,576.2708862999862,None,,,,,,,,,,,,,,,,,,,,,,,PPT21,001,2022-07-01_10h00.03.424,ABstudy,2022.1.4,59.912778978309575,
AB,Lag5_T1P_T2P,5,P,P,8,13,7,4,17,surf board,Did you see the surf board?,0.12,0.016,JPG\,candy,brownsugar,dice05a,cd,sock01a,blueberry01,button01,surfboard,feather03a,grape01,dandelion,scissors01,stapler03b,candle08b,book01b,globe,blankImage,surfboard,,,,,,,,,,,,0,88,88,142,,,,,,,,,,,,,,,,,,,,,,,,,,,,,,,,,,,576.6918309999746,577.7055928999907,577.6888713999942,578.2625914999808,578.2625914999808,None,580.2251231999835,None,left,1.1931118000065908,580.2251231999835,None,581.4426908000023,None,right,0.27962509999633767,581.4426908000023,None,,,,,,,,,,,,,,,,,,,,,,,PPT21,001,2022-07-01_10h00.03.424,ABstudy,2022.1.4,59.912778978309575,
AB,Lag1_T1A_T2A,1,A,A,8,9,7,3,12,popcorn,Did you see the popcorn?,0.12,0.016,JPG\,brownsugar,candle01,match,printer02,broom01,balloon01b,belt02a,potato02b,computerkeyboard02,feather03a,rice,mushroom01,blankImage,blankImage,blankImage,blankImage,blankImage,banjo,,,,,,,,,,,,0,89,89,290,,,,,,,,,,,,,,,,,,,,,,,,,,,,,,,,,,,581.7490585999913,582.7601517000003,582.7434972999908,583.2444596999849,583.2444596999849,None,584.8183542999905,None,right,0.8081823000102304,584.8183542999905,None,585.6466600999993,None,right,0.5079935999820009,585.6466600999993,None,,,,,,,,,,,,,,,,,,,,,,,PPT21,001,2022-07-01_10h00.03.424,ABstudy,2022.1.4,59.912778978309575,
AB,Lag5_T1P_T2P,5,P,P,8,13,7,3,16,banjo,Did you see the banjo?,0.12,0.016,JPG\,celery,brownsugar,key01,sunglasses04,leaf02a,toothbrush03b,dice05a,banjo,scarf,globe,paintbrush01,scissors01,stapler03a,battery02b,feather03a,cymbal,blankImage,banjo,,,,,,,,,,,,0,90,90,102,,,,,,,,,,,,,,,,,,,,,,,,,,,,,,,,,,,586.2317725999746,587.231684999977,587.231684999977,587.8155390000029,587.7981420999859,None,589.6180664999993,None,right,0.5286517999775242,589.6180664999993,None,590.1678289999836,None,right,0.34671549999620765,590.1678289999836,None,,,,,,,,,,,,,,,,,,,,,,,PPT21,001,2022-07-01_10h00.03.424,ABstudy,2022.1.4,59.912778978309575,
AB,Lag5_T1P_T2P,5,P,P,8,13,7,3,16,Chefs hat,Did you see the Chefs hat?,0.12,0.016,JPG\,rice,watermelon01,tableknife02,scarf,computerkeyboard02,cauliflower01,battery02b,chefshat,book01b,sandal,sponge01,microscope,stapler01,fork03c,thermometer02b,apple07,blankImage,chefshat,,,,,,,,,,,,0,91,91,128,,,,,,,,,,,,,,,,,,,,,,,,,,,,,,,,,,,590.539314099995,591.5526793999888,591.5360051000025,592.1491032999766,592.1491032999766,None,594.1182252999861,None,right,0.5397326000093017,594.1182252999861,None,594.6886713999847,None,left,0.3060676000022795,594.6886713999847,None,,,,,,,,,,,,,,,,,,,,,,,PPT21,001,2022-07-01_10h00.03.424,ABstudy,2022.1.4,59.912778978309575,
AB,Lag5_T1P_T2P,5,P,P,6,11,5,4,15,Witch hat,Did you see the Witch hat?,0.12,0.016,JPG\,pizza,watch02a,greenolive,cucumber,match,witchhat,scissors01,broom01,globe,cherry01,stapler03a,cigarette,microscope,cellphone,speaker04,blankImage,blankImage,witchhat,,,,,,,,,,,,0,92,92,101,,,,,,,,,,,,,,,,,,,,,,,,,,,,,,,,,,,595.0279124999943,596.0405194999767,596.0238130999787,596.6414084999997,596.6414084999997,None,598.4310528999777,None,left,0.3875271000142675,598.4310528999777,None,598.8448735999991,None,left,0.24656050000339746,598.8448735999991,None,,,,,,,,,,,,,,,,,,,,,,,PPT21,001,2022-07-01_10h00.03.424,ABstudy,2022.1.4,59.912778978309575,
AB,Lag5_T1P_T2P,5,P,P,8,13,7,5,18,hand,Did you see the hand?,0.12,0.016,JPG\,foosballtable,candy,envelope03a,microscope,pencil01,leaf02a,scissors01,hand01b,grape01,dandelion,pineapple01a,hammer01,stapler03a,thermometer02b,ring01,sewingmachine01a,blankImage,hand01b,,,,,,,,,,,,0,93,93,131,,,,,,,,,,,,,,,,,,,,,,,,,,,,,,,,,,,599.1188673999859,600.1275367999915,600.110858400003,600.6113850999973,600.6113850999973,None,602.6458596999873,None,left,0.32494259998202324,602.6458596999873,None,602.9971887999855,None,left,0.205795300018508,602.9971887999855,None,,,,,,,,,,,,,,,,,,,,,,,PPT21,001,2022-07-01_10h00.03.424,ABstudy,2022.1.4,59.912778978309575,
AB,Lag5_T1A_T2P,5,A,P,7,12,6,4,16,church,Did you see the church?,0.12,0.016,JPG\,printer02,leaf02a,cauliflower01,sock01a,brownsugar,paintbrush01,pig,orange,belt02a,shirt02,key01,stapler06,cigarette,scissors01,envelope03a,blueberry01,blankImage,ant,,,,,,,,,,,,0,94,94,279,,,,,,,,,,,,,,,,,,,,,,,,,,,,,,,,,,,603.2458916999749,604.2484685999807,604.2151187999989,604.8008792999899,604.8008792999899,None,606.7709915000014,None,right,0.5036657999735326,606.7709915000014,None,607.3015512999846,None,left,0.26029649999691173,607.3015512999846,None,,,,,,,,,,,,,,,,,,,,,,,PPT21,001,2022-07-01_10h00.03.424,ABstudy,2022.1.4,59.912778978309575,
AB,Lag5_T1A_T2P,5,A,P,5,10,4,3,13,License Plate,Did you see the License Plate?,0.12,0.016,JPG\,tomato01,pen04b,shirt02,carrot01,lamp04a,key01,pizza,avocado01,sewingmachine01a,stapler06,iron01b,book01b,chain01,blankImage,blankImage,blankImage,blankImage,porcupine,,,,,,,,,,,,0,95,95,270,,,,,,,,,,,,,,,,,,,,,,,,,,,,,,,,,,,607.6332483000006,608.6362204999896,608.6195330999908,609.2087609999871,609.2087609999871,None,610.720067199989,None,right,1.0185200999840163,610.720067199989,None,611.7561452999944,None,right,0.3739052999881096,611.7561452999944,None,,,,,,,,,,,,,,,,,,,,,,,PPT21,001,2022-07-01_10h00.03.424,ABstudy,2022.1.4,59.912778978309575,
AB,Lag1_T1A_T2P,1,A,P,5,6,4,3,9,chimney,Did you see the chimney?,0.12,0.016,JPG\,cucumber,sponge01,alligator,pear01,ashtray01,stapler06,clock04,battery02b,fork03c,blankImage,blankImage,blankImage,blankImage,blankImage,blankImage,blankImage,blankImage,trophy01,,,,,,,,,,,,0,96,96,246,,,,,,,,,,,,,,,,,,,,,,,,,,,,,,,,,,,612.1569297999959,613.157519499975,613.1409318999795,613.7020556999778,613.7020556999778,None,614.8144107999979,None,right,0.6997898999834433,614.8144107999979,None,615.5438726999855,None,left,0.30616929999087006,615.5438726999855,None,,,,,,,,,,,,,,,,,,,,,,,PPT21,001,2022-07-01_10h00.03.424,ABstudy,2022.1.4,59.912778978309575,
AB,Lag1_T1P_T2P,1,P,P,5,6,4,3,9,mail box,Did you see the mail box?,0.12,0.016,JPG\,watermelon01,banana01,ring01,pencil01,mailbox02,stapler04b,cucumber,thermometer02b,key01,blankImage,blankImage,blankImage,blankImage,blankImage,blankImage,blankImage,blankImage,mailbox02,,,,,,,,,,,,0,97,97,21,,,,,,,,,,,,,,,,,,,,,,,,,,,,,,,,,,,615.9294567999896,616.9444975999941,616.9277987999958,617.5241567999765,617.5241567999765,None,618.5462248999975,None,left,0.7290442000085022,618.5462248999975,None,619.2970537999936,None,left,0.49725210000178777,619.2970537999936,None,,,,,,,,,,,,,,,,,,,,,,,PPT21,001,2022-07-01_10h00.03.424,ABstudy,2022.1.4,59.912778978309575,
AB,Lag1_T1P_T2P,1,P,P,6,7,5,4,11,no parking sign,Did you see the no parking sign?,0.12,0.016,JPG\,fork03c,belt02a,grape01,computerkeyboard02,lemon02,parkingsign,stapler05,toiletpaper01a,toaster01,lipstick02a,book01b,blankImage,blankImage,blankImage,blankImage,blankImage,blankImage,parkingsign,,,,,,,,,,,,0,98,98,47,,,,,,,,,,,,,,,,,,,,,,,,,,,,,,,,,,,619.8216869999887,620.8318559999752,620.8151502999826,621.3727511999896,621.3727511999896,None,622.8037861999765,None,left,0.6793956000183243,622.8037861999765,None,623.5024827999878,None,right,0.29947850000462495,623.5024827999878,None,,,,,,,,,,,,,,,,,,,,,,,PPT21,001,2022-07-01_10h00.03.424,ABstudy,2022.1.4,59.912778978309575,
AB,Lag1_T1P_T2P,1,P,P,5,6,4,5,11,golf ball,Did you see the golf ball?,0.12,0.016,JPG\,foosballtable,cigarette,pen04b,birthdaycandle,golfball,stapler05,binoculars01b,chain01,potato02b,cauliflower01,paintbrush01,blankImage,blankImage,blankImage,blankImage,blankImage,blankImage,golfball,,,,,,,,,,,,0,99,99,13,,,,,,,,,,,,,,,,,,,,,,,,,,,,,,,,,,,623.8252039999934,624.8354393999907,624.8188508999883,625.3192848999752,625.3192848999752,None,626.7234420999885,None,left,0.7344467999937478,626.7234420999885,None,627.4884449999954,None,right,0.2576989999797661,627.4884449999954,None,,,,,,,,,,,,,,,,,,,,,,,PPT21,001,2022-07-01_10h00.03.424,ABstudy,2022.1.4,59.912778978309575,
AB,Lag1_T1A_T2P,1,A,P,5,6,4,3,9,microphone,Did you see the microphone?,0.12,0.016,JPG\,hammer01,sponge01,toaster01,cherry01,feather03a,stapler06,measuringcup01,pencil01,tennisball01b,blankImage,blankImage,blankImage,blankImage,blankImage,blankImage,blankImage,blankImage,cactus,,,,,,,,,,,,0,100,100,230,,,,,,,,,,,,,,,,,,,,,,,,,,,,,,,,,,,627.7790424999839,628.7898305999988,628.773185099999,629.3383283999865,629.3383283999865,None,630.4993128999777,None,right,0.5590954000072088,630.4993128999777,None,631.0767746999918,None,left,0.22153969999635592,631.0767746999918,None,,,,,,,,,,,,,,,,,,,,,,,PPT21,001,2022-07-01_10h00.03.424,ABstudy,2022.1.4,59.912778978309575,
AB,Lag1_T1A_T2P,1,A,P,8,9,7,3,12,elbow,Did you see the elbow?,0.12,0.016,JPG\,watermelon01,cigarette,faucet,cymbal,cauliflower01,feather03a,cherry01,broom01,stapler01,key01,baseball01a,iron01b,blankImage,blankImage,blankImage,blankImage,blankImage,cashregister01,,,,,,,,,,,,0,101,101,251,,,,,,,,,,,,,,,,,,,,,,,,,,,,,,,,,,,631.3348849999893,632.3436437999771,632.3271538999979,632.9333763000031,632.9333763000031,None,634.3483351999894,None,right,0.6854702999989968,634.3483351999894,None,635.0628217999765,None,left,0.25096400000620633,635.0628217999765,None,,,,,,,,,,,,,,,,,,,,,,,PPT21,001,2022-07-01_10h00.03.424,ABstudy,2022.1.4,59.912778978309575,
AB,Lag1_T1P_T2P,1,P,P,5,6,4,5,11,candy cane,Did you see the candy cane?,0.12,0.016,JPG\,shirt02,match,screw02,foosballtable,candycane01a,stapler04b,sewingmachine01a,watch02a,button01,comb02a,dice05a,blankImage,blankImage,blankImage,blankImage,blankImage,blankImage,candycane01a,,,,,,,,,,,,0,102,102,9,,,,,,,,,,,,,,,,,,,,,,,,,,,,,,,,,,,635.3511036999989,636.3639315999753,636.3473355000024,636.9277688000002,636.9277688000002,None,638.3077638999966,None,left,0.6944850999861956,638.3077638999966,None,639.0340572999849,None,right,0.24779679998755455,639.0340572999849,None,,,,,,,,,,,,,,,,,,,,,,,PPT21,001,2022-07-01_10h00.03.424,ABstudy,2022.1.4,59.912778978309575,
AB,Lag1_T1P_T2P,1,P,P,7,8,6,3,11,harmonica,Did you see the harmonica?,0.12,0.016,JPG\,cucumber,ring01,lipstick02a,microscope,violin,garlic01a,harmonica,stapler03b,cherry01,sewingmachine01a,belt02a,blankImage,blankImage,blankImage,blankImage,blankImage,blankImage,harmonica,,,,,,,,,,,,0,103,103,43,,,,,,,,,,,,,,,,,,,,,,,,,,,,,,,,,,,639.3102117999806,640.318501599977,640.3017951999791,640.8990495999751,640.8990495999751,None,642.2522595999762,None,left,0.8860812999773771,642.2522595999762,None,643.1708563999855,None,left,0.25560679999762215,643.1708563999855,None,,,,,,,,,,,,,,,,,,,,,,,PPT21,001,2022-07-01_10h00.03.424,ABstudy,2022.1.4,59.912778978309575,
AB,Lag1_T1P_T2P,1,P,P,5,6,4,3,9,Pumpkin,Did you see the Pumpkin?,0.12,0.016,JPG\,binoculars01b,speaker04,sandal,envelope03a,pumpkin,stapler03b,battery02b,chain01,measuringcup01,blankImage,blankImage,blankImage,blankImage,blankImage,blankImage,blankImage,blankImage,pumpkin,,,,,,,,,,,,0,104,104,23,,,,,,,,,,,,,,,,,,,,,,,,,,,,,,,,,,,643.4611146999814,644.4719237999816,644.4553814999817,645.0491287999903,645.0491287999903,None,646.2348994999775,None,left,0.43123439999180846,646.2348994999775,None,646.6920841999818,None,left,0.34263860000646673,646.6920841999818,None,,,,,,,,,,,,,,,,,,,,,,,PPT21,001,2022-07-01_10h00.03.424,ABstudy,2022.1.4,59.912778978309575,
AB,Lag5_T1A_T2P,5,A,P,6,11,5,3,14,Kiwi,Did you see the Kiwi?,0.12,0.016,JPG\,paintbrush01,dice05a,watermelon01,broccoli01a,hammer01,leaf02a,match,tennisball01b,lemon02,fan,stapler06,grape01,envelope03a,sponge01,blankImage,blankImage,blankImage,granolabar01,,,,,,,,,,,,0,105,105,261,,,,,,,,,,,,,,,,,,,,,,,,,,,,,,,,,,,647.0603501999867,648.0756136999989,648.0422593999829,648.6489847999765,648.6489847999765,None,650.3426930999849,None,right,0.7158827999955975,650.3426930999849,None,651.0784360999824,None,right,0.2999312999891117,651.0784360999824,None,,,,,,,,,,,,,,,,,,,,,,,PPT21,001,2022-07-01_10h00.03.424,ABstudy,2022.1.4,59.912778978309575,
AB,Lag1_T1P_T2P,1,P,P,8,9,7,3,12,Sheep,Did you see the Sheep?,0.12,0.016,JPG\,celery,orange,scissors01,balloon01b,avocado01,printer02,mushroom01,sheep,stapler03b,dice05a,ashtray01,fan,blankImage,blankImage,blankImage,blankImage,blankImage,sheep,,,,,,,,,,,,0,106,106,71,,,,,,,,,,,,,,,,,,,,,,,,,,,,,,,,,,,651.3978870999999,652.4130765000009,652.3796811999928,652.9649866999825,652.9649866999825,None,654.4706076000002,None,left,0.7241469000000507,654.4706076000002,None,655.2159284999943,None,right,0.1857824999897275,655.2159284999943,None,,,,,,,,,,,,,,,,,,,,,,,PPT21,001,2022-07-01_10h00.03.424,ABstudy,2022.1.4,59.912778978309575,
AB,Lag5_T1A_T2P,5,A,P,6,11,5,3,14,keys,Did you see the keys?,0.12,0.016,JPG\,pencil01,microscope,banana01,computerkeyboard02,celery,cellphone,scissors01,sock01a,book01b,onion,stapler03a,binoculars01b,baseball01a,iron01b,blankImage,blankImage,blankImage,treadmill,,,,,,,,,,,,0,107,107,275,,,,,,,,,,,,,,,,,,,,,,,,,,,,,,,,,,,655.4355766999943,656.4504976999888,656.4171177999815,656.9868051999947,656.9868051999947,None,658.75491649998,None,right,0.4714774999883957,658.75491649998,None,659.2534408999782,None,left,0.18857460000435822,659.2534408999782,None,,,,,,,,,,,,,,,,,,,,,,,PPT21,001,2022-07-01_10h00.03.424,ABstudy,2022.1.4,59.912778978309575,
AB,Lag5_T1A_T2A,5,A,A,5,10,4,5,15,flower,Did you see the flower?,0.12,0.016,JPG\,clock01a,cellphone,toaster01,toothbrush03b,cauliflower01,microscope,comb02a,paintbrush01,scarf,clock04,sponge01,iron01b,watch02a,celery,ring01,blankImage,blankImage,stepladder,,,,,,,,,,,,0,108,108,303,,,,,,,,,,,,,,,,,,,,,,,,,,,,,,,,,,,659.4706764000002,660.4714545999886,660.4547326999891,661.0235588999931,661.0235588999931,None,662.8701998000033,None,right,0.6999954999773763,662.8701998000033,None,663.5908057999914,None,right,0.19530870000016876,663.5908057999914,None,,,,,,,,,,,,,,,,,,,,,,,PPT21,001,2022-07-01_10h00.03.424,ABstudy,2022.1.4,59.912778978309575,
AB,Lag1_T1A_T2A,1,A,A,6,7,5,5,12,Safe,Did you see the Safe?,0.12,0.016,JPG\,hammer01,sponge01,toaster01,cherry01,feather03a,mushroom01,measuringcup01,pencil01,tennisball01b,brick,clock04,medal02b,blankImage,blankImage,blankImage,blankImage,blankImage,downhillski,,,,,,,,,,,,0,109,109,294,,,,,,,,,,,,,,,,,,,,,,,,,,,,,,,,,,,663.8642757999769,664.8758001999813,664.8591066999943,665.4327221999993,665.4327221999993,None,666.8928729999752,None,right,1.0611235000251327,666.8928729999752,None,667.9787560999976,None,right,0.3029361000226345,667.9787560999976,None,,,,,,,,,,,,,,,,,,,,,,,PPT21,001,2022-07-01_10h00.03.424,ABstudy,2022.1.4,59.912778978309575,
AB,Lag1_T1P_T2P,1,P,P,5,6,4,5,11,Guitar case,Did you see the Guitar case?,0.12,0.016,JPG\,broccoli01a,scissors01,toothbrush03b,foosballtable,guitarcase,stapler05,hammer01,toiletpaper01a,cd,garlic01a,carrot01,blankImage,blankImage,blankImage,blankImage,blankImage,blankImage,guitarcase,,,,,,,,,,,,0,110,110,14,,,,,,,,,,,,,,,,,,,,,,,,,,,,,,,,,,,668.3226121999905,669.3301365999796,669.3134297999786,669.8892784999916,669.8892784999916,None,671.3188730999827,None,left,0.6918424000032246,671.3188730999827,None,672.0328682999825,None,right,0.21716010000091046,672.0328682999825,None,,,,,,,,,,,,,,,,,,,,,,,PPT21,001,2022-07-01_10h00.03.424,ABstudy,2022.1.4,59.912778978309575,
AB,Lag1_T1P_T2P,1,P,P,8,9,7,4,13,Bird House,Did you see the Bird House?,0.12,0.016,JPG\,toiletpaper01a,mushroom01,medal02b,sandal,rice,cd,feather03a,birdhouse,stapler01,garlic01a,toaster01,belt02a,cigarette,blankImage,blankImage,blankImage,blankImage,birdhouse,,,,,,,,,,,,0,111,111,77,,,,,,,,,,,,,,,,,,,,,,,,,,,,,,,,,,,672.2780844999943,673.2839805999829,673.2673524999991,673.8682956999983,673.8682956999983,None,675.4190834999899,None,left,1.039361800008919,675.4190834999899,None,676.4870187999913,None,left,0.2355260000040289,676.4870187999913,None,,,,,,,,,,,,,,,,,,,,,,,PPT21,001,2022-07-01_10h00.03.424,ABstudy,2022.1.4,59.912778978309575,
AB,Lag5_T1P_T2P,5,P,P,8,13,7,5,18,sock,Did you see the sock?,0.12,0.016,JPG\,thermometer02b,avocado01,scissors01,tennisball01b,medal02b,banana01,strawberry,athleticsock,potato02b,pineapple01a,microscope,cymbal,stapler03b,celery,garlic01a,sunglasses04,blankImage,athleticsock,,,,,,,,,,,,0,112,112,141,,,,,,,,,,,,,,,,,,,,,,,,,,,,,,,,,,,676.7560915999929,677.7716592999932,677.7383173999842,678.3268991999794,678.3268991999794,None,680.2931547999906,None,left,0.44484129999182187,680.2931547999906,None,680.7576963999891,None,left,0.17213069999706931,680.7576963999891,None,,,,,,,,,,,,,,,,,,,,,,,PPT21,001,2022-07-01_10h00.03.424,ABstudy,2022.1.4,59.912778978309575,
AB,Lag1_T1P_T2P,1,P,P,7,8,6,5,13,horse,Did you see the horse?,0.12,0.016,JPG\,watermelon01,pencil01,microscope,blueberry01,computerkeyboard02,lamp04a,horse,stapler03b,sock01a,key01,binoculars01b,cauliflower01,ashtray01,blankImage,blankImage,blankImage,blankImage,horse,,,,,,,,,,,,0,113,113,3,,,,,,,,,,,,,,,,,,,,,,,,,,,,,,,,,,,680.9732437999919,681.9758407999761,681.9424360999838,682.5305255999847,682.5305255999847,None,684.1070594999765,None,left,0.6785995000100229,684.1070594999765,None,684.8133575999818,None,right,0.22835859999759123,684.8133575999818,None,,,,,,,,,,,,,,,,,,,,,,,PPT21,001,2022-07-01_10h00.03.424,ABstudy,2022.1.4,59.912778978309575,
AB,Lag5_T1A_T2A,5,A,A,5,10,4,5,15,truck,Did you see the truck?,0.12,0.016,JPG\,pizza,printer02,medal02b,spoon01,grape01,lighter01,belt02a,watermelon01,celery,battery02b,screw02,comb02a,cauliflower01,lipstick02a,potato02b,blankImage,blankImage,postalmailbox01,,,,,,,,,,,,0,114,114,297,,,,,,,,,,,,,,,,,,,,,,,,,,,,,,,,,,,685.0645763999783,686.0800006999925,686.046600599977,686.6407425999932,686.6407425999932,None,688.5913870999939,None,right,0.7552321999974083,688.5913870999939,None,689.3666035999777,None,right,0.23507850000169128,689.3666035999777,None,,,,,,,,,,,,,,,,,,,,,,,PPT21,001,2022-07-01_10h00.03.424,ABstudy,2022.1.4,59.912778978309575,
AB,Lag1_T1P_T2A,1,P,A,5,6,4,5,11,Electric toothbrush,Did you see the Electric toothbrush?,0.12,0.016,JPG\,carrot01,greenolive,fork03c,chain01,electrictoothbrush01c,watermelon01,tableknife02,printer02,comb02a,toaster01,orange,blankImage,blankImage,blankImage,blankImage,blankImage,blankImage,electrictoothbrush01c,,,,,,,,,,,,0,115,115,186,,,,,,,,,,,,,,,,,,,,,,,,,,,,,,,,,,,689.6379356999823,690.6511625999992,690.6344897999952,691.2345791999833,691.2345791999833,None,692.5595602999965,None,left,0.6508493000001181,692.5595602999965,None,693.2384425999771,None,right,0.19585129999904893,693.2384425999771,None,,,,,,,,,,,,,,,,,,,,,,,PPT21,001,2022-07-01_10h00.03.424,ABstudy,2022.1.4,59.912778978309575,
AB,Lag1_T1P_T2P,1,P,P,8,9,7,3,12,Wheelchair,Did you see the Wheelchair?,0.12,0.016,JPG\,cigarette,pig,banana01,strawberry,clock01a,plate01b,spoon01,wheelchair,stapler03b,pineapple01a,chain01,paintbrush01,blankImage,blankImage,blankImage,blankImage,blankImage,wheelchair,,,,,,,,,,,,0,116,116,27,,,,,,,,,,,,,,,,,,,,,,,,,,,,,,,,,,,693.4567580999865,694.4716288999771,694.4382862999919,695.012175699987,695.012175699987,None,696.4738111999759,None,right,0.6407165999989957,696.4738111999759,None,697.1410159999796,None,left,0.2125956999952905,697.1410159999796,None,,,,,,,,,,,,,,,,,,,,,,,PPT21,001,2022-07-01_10h00.03.424,ABstudy,2022.1.4,59.912778978309575,
AB,Lag1_T1P_T2P,1,P,P,5,6,4,3,9,camel,Did you see the camel?,0.12,0.016,JPG\,iron01b,brick,broccoli01a,balloon01b,dromedary,stapler05,sandal,teabag,scissors01,blankImage,blankImage,blankImage,blankImage,blankImage,blankImage,blankImage,blankImage,dromedary,,,,,,,,,,,,0,117,117,11,,,,,,,,,,,,,,,,,,,,,,,,,,,,,,,,,,,697.3769706999883,698.3922214999911,698.3588630000013,698.9349648999923,698.9349648999923,None,700.0170837999904,None,left,0.6884170999983326,700.0170837999904,None,700.7275369999988,None,right,0.20277929998701438,700.7275369999988,None,,,,,,,,,,,,,,,,,,,,,,,PPT21,001,2022-07-01_10h00.03.424,ABstudy,2022.1.4,59.912778978309575,
AB,Lag1_T1P_T2P,1,P,P,5,6,4,5,11,Basketball,Did you see the Basketball?,0.12,0.016,JPG\,pencil01,microscope,banana01,computerkeyboard02,basketball01,stapler04b,scissors01,sock01a,book01b,onion,dice05a,blankImage,blankImage,blankImage,blankImage,blankImage,blankImage,basketball01,,,,,,,,,,,,0,118,118,34,,,,,,,,,,,,,,,,,,,,,,,,,,,,,,,,,,,700.9691425999918,701.9796630999772,701.9632508999784,702.5449454999762,702.5449454999762,None,703.9211915999767,None,left,0.6644286999944597,703.9211915999767,None,704.615742199996,None,right,0.2505617999995593,704.615742199996,None,,,,,,,,,,,,,,,,,,,,,,,PPT21,001,2022-07-01_10h00.03.424,ABstudy,2022.1.4,59.912778978309575,
AB,Lag1_T1P_T2P,1,P,P,6,7,5,3,10,fortune cookie,Did you see the fortune cookie?,0.12,0.016,JPG\,scissors01,grape01,mushroom01,toiletpaper01a,greenolive,fortunecookie,stapler03b,ashtray01,carrot01,pineapple01a,blankImage,blankImage,blankImage,blankImage,blankImage,blankImage,blankImage,fortunecookie,,,,,,,,,,,,0,119,119,42,,,,,,,,,,,,,,,,,,,,,,,,,,,,,,,,,,,704.9039819999889,705.9165732999973,705.899935399997,706.4588079999958,706.4588079999958,None,707.7636555999925,None,left,0.7752776000124868,707.7636555999925,None,708.5691833999881,None,right,0.25676540000131354,708.5691833999881,None,,,,,,,,,,,,,,,,,,,,,,,PPT21,001,2022-07-01_10h00.03.424,ABstudy,2022.1.4,59.912778978309575,
AB,Lag5_T1A_T2A,5,A,A,5,10,4,5,15,window,Did you see the window?,0.12,0.016,JPG\,leaf02a,apple07,cd,pineapple01a,envelope03a,paintbrush01,pig,canoftennisballs,rice,feather03a,lemon02,balloon01b,avocado01,calculator01,watermelon01,blankImage,blankImage,saxophone,,,,,,,,,,,,0,120,120,301,,,,,,,,,,,,,,,,,,,,,,,,,,,,,,,,,,,708.8530059999903,709.8542008999793,709.8376237999764,710.4188319999957,710.4188319999957,None,712.3333097999857,None,right,0.740256799996132,712.3333097999857,None,713.0903216000006,None,right,0.46350290000555106,713.0903216000006,None,,,,,,,,,,,,,,,,,,,,,,,PPT21,001,2022-07-01_10h00.03.424,ABstudy,2022.1.4,59.912778978309575,
AB,Lag1_T1P_T2P,1,P,P,5,6,4,4,10,Ladybug,Did you see the Ladybug?,0.12,0.016,JPG\,key01,apple07,ring01,leaf02a,ladybug03,stapler04b,violin,sponge01,baseball01a,thermometer02b,blankImage,blankImage,blankImage,blankImage,blankImage,blankImage,blankImage,ladybug03,,,,,,,,,,,,0,121,121,65,,,,,,,,,,,,,,,,,,,,,,,,,,,,,,,,,,,713.5791888999811,714.5919076999999,714.575217799982,715.1596135,715.1596135,None,716.3933494999947,None,left,0.5288833000231534,716.3933494999947,None,716.9439962999895,None,left,0.17835140001261607,716.9439962999895,None,,,,,,,,,,,,,,,,,,,,,,,PPT21,001,2022-07-01_10h00.03.424,ABstudy,2022.1.4,59.912778978309575,
AB,Lag5_T1P_T2P,5,P,P,5,10,4,4,14,bell,Did you see the bell?,0.12,0.016,JPG\,teabag,envelope03a,cellphone,apple07,callbell,orange,brownsugar,book01b,hammer01,stapler03b,toaster01,calculator01,globe,battery02b,blankImage,blankImage,blankImage,callbell,,,,,,,,,,,,0,122,122,147,,,,,,,,,,,,,,,,,,,,,,,,,,,,,,,,,,,717.1467203999928,718.1618794999958,718.1284935000003,718.7028576000012,718.7028576000012,None,720.5151771999954,None,left,0.5828182999975979,720.5151771999954,None,721.1150772999972,None,left,0.23875970000517555,721.1150772999972,None,,,,,,,,,,,,,,,,,,,,,,,PPT21,001,2022-07-01_10h00.03.424,ABstudy,2022.1.4,59.912778978309575,
AB,Lag5_T1P_T2P,5,P,P,5,10,4,5,15,penguin,Did you see the penguin?,0.12,0.016,JPG\,watermelon01,cigarette,pintofbeer,cymbal,penguin,feather03a,cherry01,broom01,battery02b,stapler05,baseball01a,iron01b,garlic01a,computerkeyboard02,pig,blankImage,blankImage,penguin,,,,,,,,,,,,0,123,123,137,,,,,,,,,,,,,,,,,,,,,,,,,,,,,,,,,,,721.3876264999853,722.3996309999784,722.3829677999893,722.9871810999757,722.9871810999757,None,724.7042329999967,None,left,0.4338866999896709,724.7042329999967,None,725.1688514999987,None,left,0.19253659999230877,725.1688514999987,None,,,,,,,,,,,,,,,,,,,,,,,PPT21,001,2022-07-01_10h00.03.424,ABstudy,2022.1.4,59.912778978309575,
AB,Lag5_T1P_T2A,5,P,A,6,11,5,3,14,toy truck,Did you see the toy truck?,0.12,0.016,JPG\,globe,belt02a,sponge01,violin,fork03c,bluecheese,clock01a,microscope,balloon01b,scarf,teabag,pen04b,brick,brownsugar,blankImage,blankImage,blankImage,bluecheese,,,,,,,,,,,,0,124,124,204,,,,,,,,,,,,,,,,,,,,,,,,,,,,,,,,,,,725.3887417999795,726.4039658999827,726.3707152999996,726.9589810000034,726.9589810000034,None,728.572657199984,None,right,0.7731583999993745,728.572657199984,None,729.3732754999946,None,right,0.3245249000028707,729.3732754999946,None,,,,,,,,,,,,,,,,,,,,,,,PPT21,001,2022-07-01_10h00.03.424,ABstudy,2022.1.4,59.912778978309575,
AB,Lag1_T1P_T2P,1,P,P,6,7,5,5,12,snowman,Did you see the snowman?,0.12,0.016,JPG\,comb02a,watch02a,scissors01,dice05a,tableknife02,snowman,stapler03a,printer02,dandelion,spoon01,ashtray01,battery02b,blankImage,blankImage,blankImage,blankImage,blankImage,snowman,,,,,,,,,,,,0,125,125,4,,,,,,,,,,,,,,,,,,,,,,,,,,,,,,,,,,,729.7272958999965,730.7412448999821,730.7245453999785,731.3429564999824,731.2700296999828,None,732.7775872999919,None,left,0.8324365000007674,732.7775872999919,None,733.6295468999888,None,right,0.24453210001229309,733.6295468999888,None,,,,,,,,,,,,,,,,,,,,,,,PPT21,001,2022-07-01_10h00.03.424,ABstudy,2022.1.4,59.912778978309575,
AB,Lag5_T1P_T2P,5,P,P,5,10,4,4,14,License Plate,Did you see the License Plate?,0.12,0.016,JPG\,toaster01,chain01,sponge01,baseball01a,licenseplate,belt02a,book01b,iron01b,grape01,stapler06,celery,onion,mushroom01,toothbrush03b,blankImage,blankImage,blankImage,licenseplate,,,,,,,,,,,,0,126,126,120,,,,,,,,,,,,,,,,,,,,,,,,,,,,,,,,,,,733.9434602999827,734.9454419999965,734.9287420999899,735.5515848999785,735.5515848999785,None,737.1606298999977,None,left,0.38545349999913014,737.1606298999977,None,737.5645293999987,None,left,0.2130901999771595,737.5645293999987,None,,,,,,,,,,,,,,,,,,,,,,,PPT21,001,2022-07-01_10h00.03.424,ABstudy,2022.1.4,59.912778978309575,
AB,Lag5_T1P_T2P,5,P,P,8,13,7,3,16,parachute,Did you see the parachute?,0.12,0.016,JPG\,brick,plate01b,pen04b,toaster01,screwdriver04b,candle01,envelope03a,parachute,pig,ring01,orange,clock01a,stapler03b,calculator01,mushroom01,chain01,blankImage,parachute,,,,,,,,,,,,0,127,127,114,,,,,,,,,,,,,,,,,,,,,,,,,,,,,,,,,,,737.8017924999876,738.8160129000025,738.7990926999773,739.4390640999773,739.3614826999838,None,741.4059707999986,None,left,0.8524542999803089,741.4059707999986,None,742.2873265999951,None,left,1.1947779999754857,742.2873265999951,None,,,,,,,,,,,,,,,,,,,,,,,PPT21,001,2022-07-01_10h00.03.424,ABstudy,2022.1.4,59.912778978309575,
AB,Lag1_T1A_T2A,1,A,A,6,7,5,5,12,flamingo,Did you see the flamingo?,0.12,0.016,JPG\,chain01,pen04b,birthdaycandle,watermelon01,broom01,scissors01,measuringcup01,candle01,hammer01,calculator01,ashtray01,feather03a,blankImage,blankImage,blankImage,blankImage,blankImage,witchhat,,,,,,,,,,,,0,128,128,288,,,,,,,,,,,,,,,,,,,,,,,,,,,,,,,,,,,743.5135255999921,744.5212768999918,744.5045863999985,745.0932632999902,745.0932632999902,None,746.5801958999946,None,right,0.7895758999802638,746.5801958999946,None,747.3909721999953,None,right,0.5229357999924105,747.3909721999953,None,,,,,,,,,,,,,,,,,,,,,,,PPT21,001,2022-07-01_10h00.03.424,ABstudy,2022.1.4,59.912778978309575,
AB,Lag5_T1A_T2P,5,A,P,7,12,6,4,16,scooter,Did you see the scooter?,0.12,0.016,JPG\,cigarette,pig,banana01,strawberry,clock01a,plate01b,spoon01,blueberry01,battery02b,pineapple01a,chain01,stapler05,candy,pen04b,teabag,birthdaycandle,blankImage,1nose,,,,,,,,,,,,0,129,129,268,,,,,,,,,,,,,,,,,,,,,,,,,,,,,,,,,,,747.9566009999835,748.9592154999846,748.9258331999881,749.5030965999758,749.5030965999758,None,751.4235205999867,None,right,0.48225270002149045,751.4235205999867,None,751.9291516999947,None,left,0.22453100001439452,751.9291516999947,None,,,,,,,,,,,,,,,,,,,,,,,PPT21,001,2022-07-01_10h00.03.424,ABstudy,2022.1.4,59.912778978309575,
AB,Lag1_T1P_T2P,1,P,P,5,6,4,4,10,skateboard,Did you see the skateboard?,0.12,0.016,JPG\,binoculars01b,cymbal,pizza,candy,skateboard,stapler05,grape01,thermometer02b,speaker04,lemon02,blankImage,blankImage,blankImage,blankImage,blankImage,blankImage,blankImage,skateboard,,,,,,,,,,,,0,130,130,25,,,,,,,,,,,,,,,,,,,,,,,,,,,,,,,,,,,752.1853361999965,753.1971105999837,753.1804004999867,753.7714832999918,753.7714832999918,None,755.010961699998,None,left,0.7834818999981508,755.010961699998,None,755.8161689999979,None,right,0.25835920000099577,755.8161689999979,None,,,,,,,,,,,,,,,,,,,,,,,PPT21,001,2022-07-01_10h00.03.424,ABstudy,2022.1.4,59.912778978309575,
AB,Lag5_T1A_T2P,5,A,P,5,10,4,5,15,parachute,Did you see the parachute?,0.12,0.016,JPG\,binoculars01b,speaker04,sandal,envelope03a,plate01b,comb02a,battery02b,chain01,measuringcup01,stapler03b,medal02b,lamp04a,tennisball01b,pizza,cigarette,blankImage,blankImage,knee,,,,,,,,,,,,0,131,131,264,,,,,,,,,,,,,,,,,,,,,,,,,,,,,,,,,,,756.1056944000011,757.1174323000014,757.1007741999929,757.6744156999921,757.6744156999921,None,759.5281291999854,None,right,0.7457350000040606,759.5281291999854,None,760.3048280999938,None,right,0.4180597999948077,760.3048280999938,None,,,,,,,,,,,,,,,,,,,,,,,PPT21,001,2022-07-01_10h00.03.424,ABstudy,2022.1.4,59.912778978309575,
AB,Lag1_T1P_T2P,1,P,P,6,7,5,3,10,handcuffs,Did you see the handcuffs?,0.12,0.016,JPG\,sewingmachine01a,scarf,carrot01,book01b,eraser,handcuffs,stapler05,lipstick02a,printer02,garlic01a,blankImage,blankImage,blankImage,blankImage,blankImage,blankImage,blankImage,handcuffs,,,,,,,,,,,,0,132,132,2,,,,,,,,,,,,,,,,,,,,,,,,,,,,,,,,,,,760.764526199986,761.7725598999823,761.7559957999911,762.4043998999987,762.4043998999987,None,763.5984674999781,None,left,0.739279000001261,763.5984674999781,None,764.3578780999815,None,right,0.27602560000377707,764.3578780999815,None,,,,,,,,,,,,,,,,,,,,,,,PPT21,001,2022-07-01_10h00.03.424,ABstudy,2022.1.4,59.912778978309575,
AB,Lag1_T1P_T2P,1,P,P,7,8,6,3,11,compass,Did you see the compass?,0.12,0.016,JPG\,brick,plate01b,pen04b,toaster01,screwdriver04b,candle01,magneticcompass,stapler03a,pig,ring01,orange,blankImage,blankImage,blankImage,blankImage,blankImage,blankImage,magneticcompass,,,,,,,,,,,,0,133,133,66,,,,,,,,,,,,,,,,,,,,,,,,,,,,,,,,,,,764.6609154999896,765.6758631999837,765.6424550999945,766.2236014999798,766.2236014999798,None,767.5971290000016,None,left,0.6764865000150166,767.5971290000016,None,768.2952478999796,None,right,0.7459759000048507,768.2952478999796,None,,,,,,,,,,,,,,,,,,,,,,,PPT21,001,2022-07-01_10h00.03.424,ABstudy,2022.1.4,59.912778978309575,
AB,Lag1_T1A_T2P,1,A,P,8,9,7,4,13,Toolbox,Did you see the Toolbox?,0.12,0.016,JPG\,pizza,printer02,medal02b,spoon01,grape01,lighter01,belt02a,watermelon01,stapler03b,battery02b,screw02,comb02a,cauliflower01,blankImage,blankImage,blankImage,blankImage,ladybug03,,,,,,,,,,,,0,134,134,237,,,,,,,,,,,,,,,,,,,,,,,,,,,,,,,,,,,769.0692674999882,770.0803420000011,770.0637118000013,770.6602971999964,770.6602971999964,None,772.2408162999782,None,right,0.5694437999918591,772.2408162999782,None,772.8329217999999,None,left,0.23252269998192787,772.8329217999999,None,,,,,,,,,,,,,,,,,,,,,,,PPT21,001,2022-07-01_10h00.03.424,ABstudy,2022.1.4,59.912778978309575,
AB,Lag1_T1A_T2A,1,A,A,5,6,4,4,10,rose,Did you see the rose?,0.12,0.016,JPG\,sock01a,spoon01,alligator,comb02a,printer02,medal02b,lamp04a,cymbal,greenolive,computerkeyboard02,blankImage,blankImage,blankImage,blankImage,blankImage,blankImage,blankImage,cruiseship,,,,,,,,,,,,0,135,135,293,,,,,,,,,,,,,,,,,,,,,,,,,,,,,,,,,,,773.0854858999955,774.1008899000008,774.0675334999978,774.6562085999758,774.6562085999758,None,775.9674152999942,None,right,0.9315951000025962,775.9674152999942,None,776.9205551999912,None,right,0.2813988999987487,776.9205551999912,None,,,,,,,,,,,,,,,,,,,,,,,PPT21,001,2022-07-01_10h00.03.424,ABstudy,2022.1.4,59.912778978309575,
AB,Lag1_T1P_T2P,1,P,P,6,7,5,3,10,jelly beans,Did you see the jelly beans?,0.12,0.016,JPG\,lipstick02a,cucumber,candle08b,printer02,grape01,jellybean,stapler01,lighter01,belt02a,balloon01b,blankImage,blankImage,blankImage,blankImage,blankImage,blankImage,blankImage,jellybean,,,,,,,,,,,,0,136,136,15,,,,,,,,,,,,,,,,,,,,,,,,,,,,,,,,,,,777.2284154999943,778.2385471999878,778.2218809999758,778.7821141000022,778.7821141000022,None,780.0078860999784,None,left,0.9223051000153646,780.0078860999784,None,780.9579788999981,None,right,0.4285090000194032,780.9579788999981,None,,,,,,,,,,,,,,,,,,,,,,,PPT21,001,2022-07-01_10h00.03.424,ABstudy,2022.1.4,59.912778978309575,
