TrialType,CondType,Lag,T1_PA,T2_PA,T1Loc,T2Loc,PreDistractor,PostDistractor,TotalImg,cueWord,T1cue,StimLength,isi,PicFolder,Img1,Img2,Img3,Img4,Img5,Img6,Img7,Img8,Img9,Img10,Img11,Img12,Img13,Img14,Img15,Img16,Img17,T1_Identity,ImageType,T1PA,T2PA,Picture,Image,FullPathName,FilePath,Practice_Trials.thisRepN,Practice_Trials.thisTrialN,Practice_Trials.thisN,Practice_Trials.thisIndex,trials.thisRepN,trials.thisTrialN,trials.thisN,trials.thisIndex,trials_2.thisRepN,trials_2.thisTrialN,trials_2.thisN,trials_2.thisIndex,Practice_Ins.started,Practice_Ins.stopped,End_Prac_Ins.keys,End_Prac_Ins.rt,End_Prac_Ins.started,End_Prac_Ins.stopped,text_2.started,text_2.stopped,Fixation_Cross_2.started,Fixation_Cross_2.stopped,Rapid_Image_Present_2.started,Rapid_Image_Present_2.stopped,key_resp.keys,key_resp.rt,key_resp.started,key_resp.stopped,T1Response_2.started,T1Response_2.stopped,T2Response_2.started,T2Response_2.stopped,key_resp_4.keys,key_resp_4.rt,key_resp_4.started,key_resp_4.stopped,text.started,text.stopped,End_Instructions.keys,End_Instructions.rt,End_Instructions.started,End_Instructions.stopped,text_5.started,text_5.stopped,FC.started,FC.stopped,Rapid_Image_Present.started,Rapid_Image_Present.stopped,T1Response.started,T1Response.stopped,key_resp_2.keys,key_resp_2.rt,key_resp_2.started,key_resp_2.stopped,T2Response.started,T2Response.stopped,key_resp_3.keys,key_resp_3.rt,key_resp_3.started,key_resp_3.stopped,text_6.started,text_6.stopped,Fin_ins.keys,Fin_ins.rt,Fin_ins.started,Fin_ins.stopped,MemTest.started,MemTest.stopped,MemResponse.keys,MemResponse.rt,MemResponse.started,MemResponse.stopped,Display.started,Display.stopped,text_7.started,text_7.stopped,endOfExperiment.started,endOfExperiment.stopped,key_resp_5.keys,key_resp_5.rt,key_resp_5.started,key_resp_5.stopped,participant,session,date,expName,psychopyVersion,frameRate,
,,,,,,,,,,,,,,,,,,,,,,,,,,,,,,,,,,,,,,,,,,,,,,,,,,,,15.310171599994646,None,space,34.606435699999565,15.310171599994646,None,,,,,,,,,,,,,,,,,,,,,,,,,,,,,,,,,,,,,,,,,,,,,,,,,,,,,,,,,,,,,,,,,PPT23,001,2022-07-01_14h29.26.291,ABstudy,2022.1.4,59.92236457578735,
AB_Prac,Lag5_T1P_T2A,5,P,A,6,11,5,5,16,Wheat,Did you see the Wheat?,0.5,0.016,JPG\,bottleopener01,dentalfloss03b,cooler01,icecreamcone01a,paperclip01b,wheat,pencilsharpener02a,plasticbasket01a,toycar04,apricot,hairclip02,rock01a,honeydewmelon,antenna,blackberry,cardboardbox,blankImage,wheat,,,,,,,,0,0,0,7,,,,,,,,,,,,,,,49.99648870000965,51.007795899990015,50.99110839999048,51.62078339999425,51.62078339999425,None,left,1.290667499997653,59.70622839999851,None,59.70622839999851,None,61.01831409998704,None,right,0.8191963000281248,61.01831409998704,None,,,,,,,,,,,,,,,,,,,,,,,,,,,,,,,,,,,,,,,,,,,,,,,PPT23,001,2022-07-01_14h29.26.291,ABstudy,2022.1.4,59.92236457578735,
AB_Prac,Lag1_T1A_T2A,1,A,A,8,9,7,3,12,Moose,Did you see the Moose?,0.5,0.016,JPG\,clothespin03b,corkscrew03a,drillbit03a,fusilli03a,needlenosepliers01,perfume01a,pistachio,scrubbingbrush05b,spatula03,toothpastetube,hinge,toydinosaur,blankImage,blankImage,blankImage,blankImage,blankImage,None,,,,,,,,0,1,1,10,,,,,,,,,,,,,,,61.87343279999914,62.88607979999506,62.86940130000585,63.444332399987616,63.444332399987616,None,right,1.262579200003529,69.44581289999769,None,69.44581289999769,None,70.72729800001252,None,right,0.7732003999990411,70.72729800001252,None,,,,,,,,,,,,,,,,,,,,,,,,,,,,,,,,,,,,,,,,,,,,,,,PPT23,001,2022-07-01_14h29.26.291,ABstudy,2022.1.4,59.92236457578735,
AB_Prac,Lag5_T1P_T2P,5,P,P,7,12,6,3,15,vacuum,Did you see the vacuum?,0.5,0.016,JPG\,fork07b,lightbulb01,manshoe,saw02b,shoelace,soap03a,vacuumcleaner01,floortile01,necklace,doll,cabbage,stapler03a,hanger02a,laptop01a,nailpolish03b,blankImage,blankImage,vacuumcleaner01,,,,,,,,0,2,2,2,,,,,,,,,,,,,,,71.53372229999513,72.54568450001534,72.52900979999686,73.11064520000946,73.11064520000946,None,left,0.8701040000014473,80.62274160000379,None,80.62274160000379,None,81.52163930001552,None,left,0.5151761999877635,81.52163930001552,None,,,,,,,,,,,,,,,,,,,,,,,,,,,,,,,,,,,,,,,,,,,,,,,PPT23,001,2022-07-01_14h29.26.291,ABstudy,2022.1.4,59.92236457578735,
AB_Prac,Lag5_T1A_T2A,5,A,A,6,11,5,5,16,castle,Did you see the castle?,0.5,0.016,JPG\,tape02a,englishmuffin,flask,ladle02a,monitor,peach01,keychain,squeegee01b,telephone01b,whisk,walkman,syringe02,baguette01,coaster,box01a,coffeepot03a,blankImage,None,,,,,,,,0,3,3,11,,,,,,,,,,,,,,,82.06167600001208,83.07294240000192,83.05621370000881,83.65388560001156,83.65388560001156,None,right,0.7997065999952611,91.77264569999534,None,91.77264569999534,None,92.59966129998793,None,right,0.5248385000159033,92.59966129998793,None,,,,,,,,,,,,,,,,,,,,,,,,,,,,,,,,,,,,,,,,,,,,,,,PPT23,001,2022-07-01_14h29.26.291,ABstudy,2022.1.4,59.92236457578735,
AB_Prac,Lag1_T1P_T2P,1,P,P,6,7,5,5,12,triangle,Did you see the triangle?,0.5,0.016,JPG\,ginger,mousetrap,plum01,slipper01b,dropper01,triangle,stapler04b,pants,raspberry01,rope03,scale01a,vase01,blankImage,blankImage,blankImage,blankImage,blankImage,triangle,,,,,,,,0,4,4,1,,,,,,,,,,,,,,,93.15554529998917,94.16743329999736,94.15085430000909,94.72993309999583,94.72993309999583,None,left,0.6008596000028774,100.76328000001376,None,100.76328000001376,None,101.39399479998974,None,left,0.411119399999734,101.39399479998974,None,,,,,,,,,,,,,,,,,,,,,,,,,,,,,,,,,,,,,,,,,,,,,,,PPT23,001,2022-07-01_14h29.26.291,ABstudy,2022.1.4,59.92236457578735,
AB_Prac,Lag1_T1P_T2P,1,P,P,8,9,7,5,14,Tennis racket,Did you see the Tennis racket?,0.5,0.016,JPG\,coconut,computermouse06,croissant01,deodorant02a,pillow01a,peanut01,boot02b,tennisracket,stapler03b,crayon,eggplant,marker01a,plant01,radish01,blankImage,blankImage,blankImage,tennisracket,,,,,,,,0,5,5,0,,,,,,,,,,,,,,,101.84173600000213,102.84236949999467,102.82564389999607,103.41536340001039,103.41536340001039,None,left,0.7096209000155795,110.4145370000042,None,110.4145370000042,None,111.16528360001394,None,left,0.35098069999367,111.16528360001394,None,,,,,,,,,,,,,,,,,,,,,,,,,,,,,,,,,,,,,,,,,,,,,,,PPT23,001,2022-07-01_14h29.26.291,ABstudy,2022.1.4,59.92236457578735,
AB_Prac,Lag5_T1P_T2A,5,P,A,6,11,5,5,16,bread,Did you see the bread?,0.5,0.016,JPG\,cleaver01,clipboard,dustpan,hikingshoe01,notebook03a,baguette01,playingcard,pliers02b,styrofoamcup,rollingpin01a,swimgoggles,wineglass01,fryingpan02a,safetypin,syringe01,thimble,blankImage,baguette01,,,,,,,,0,6,6,8,,,,,,,,,,,,,,,111.60869819999789,112.61889740001061,112.60219890001463,113.18290670000715,113.18290670000715,None,left,0.596480900014285,121.16115639999043,None,121.16115639999043,None,121.77854289999232,None,right,0.3698425999900792,121.77854289999232,None,,,,,,,,,,,,,,,,,,,,,,,,,,,,,,,,,,,,,,,,,,,,,,,PPT23,001,2022-07-01_14h29.26.291,ABstudy,2022.1.4,59.92236457578735,
AB_Prac,Lag5_T1P_T2P,5,P,P,5,10,4,5,15,washing machine,Did you see the washing machine?,0.5,0.016,JPG\,waterbottle03,wheel01,flashlight02b,zucchini01,washingmachine,headphones02b,nutcracker01,paintroller01,paperclip03,stapler06,ribbon04,electricrazor,bottleofredwine01,pitabread,pot02a,blankImage,blankImage,washingmachine,,,,,,,,0,7,7,4,,,,,,,,,,,,,,,122.1921655999904,123.1963156000129,123.17965679999907,123.76208270000643,123.76208270000643,None,left,0.6610225000185892,131.32008500001393,None,131.32008500001393,None,132.00490940001328,None,left,0.38372260000323877,132.00490940001328,None,,,,,,,,,,,,,,,,,,,,,,,,,,,,,,,,,,,,,,,,,,,,,,,PPT23,001,2022-07-01_14h29.26.291,ABstudy,2022.1.4,59.92236457578735,
AB_Prac,Lag5_T1P_T2P,5,P,P,5,10,4,5,15,Vulture,Did you see the Vulture?,0.5,0.016,JPG\,shorts01,toast,ramekin01,bib,vulture,cracker02,date,glasses01a,hat03b,stapler01,measuringtape01,nail,pill,drum01,starfish01,blankImage,blankImage,vulture,,,,,,,,0,8,8,3,,,,,,,,,,,,,,,132.4121155999892,133.4229697000119,133.40633940001135,134.01853110000957,134.01853110000957,None,left,0.49082480001379736,141.6175334000145,None,141.6175334000145,None,142.1316228999931,None,left,0.3612659999926109,142.1316228999931,None,,,,,,,,,,,,,,,,,,,,,,,,,,,,,,,,,,,,,,,,,,,,,,,PPT23,001,2022-07-01_14h29.26.291,ABstudy,2022.1.4,59.92236457578735,
AB_Prac,Lag1_T1P_T2A,1,P,A,5,6,4,5,11,Webcam,Did you see the Webcam?,0.5,0.016,JPG\,pictureframe04,binder03b,straw,adjustablewrench01b,webcam,cane,hairdryer02a,icepack,kitchenscale01a,lifejacket,piggybank,blankImage,blankImage,blankImage,blankImage,blankImage,blankImage,webcam,,,,,,,,0,9,9,6,,,,,,,,,,,,,,,142.5260505999904,143.53304209999624,143.51855850001448,144.18630820000544,144.10139630001504,None,left,0.6248229000193533,149.71603229999891,None,149.71603229999891,None,150.35848640001495,None,right,0.4297284999920521,150.35848640001495,None,,,,,,,,,,,,,,,,,,,,,,,,,,,,,,,,,,,,,,,,,,,,,,,PPT23,001,2022-07-01_14h29.26.291,ABstudy,2022.1.4,59.92236457578735,
AB_Prac,Lag5_T1A_T2P,5,A,P,6,11,5,3,14,dog,Did you see the dog?,0.5,0.016,JPG\,bucket01a,doorlock,cookiecutter,fireextinguisher01,gluestick,highlighter02b,sportbag,spraybottle01,suitcase,thread02,stapler05,walnut01c,icecubetray01a,vikingmask01b,blankImage,blankImage,blankImage,None,,,,,,,,0,10,10,9,,,,,,,,,,,,,,,150.81053970000357,151.82477850001305,151.79138859998784,152.39058420000947,152.39058420000947,None,right,0.7317923000082374,159.53632710000966,None,159.53632710000966,None,160.2848217000137,None,left,0.42346059999545105,160.2848217000137,None,,,,,,,,,,,,,,,,,,,,,,,,,,,,,,,,,,,,,,,,,,,,,,,PPT23,001,2022-07-01_14h29.26.291,ABstudy,2022.1.4,59.92236457578735,
AB_Prac,Lag1_T1P_T2A,1,P,A,8,9,7,5,14,flower,Did you see the flower?,0.5,0.016,JPG\,razor01,axe01,binder03b,bowl01,kettle01,lettuce,lime,plasticflower01b,mitten04,pencilcase01,plunger02,strawbasket01,toothpick02,wallet02a,blankImage,blankImage,blankImage,plasticflower01b,,,,,,,,0,11,11,5,,,,,,,,,,,,,,,160.7416280999896,161.75135269999737,161.73473729999387,162.31711639999412,162.31711639999412,None,left,0.6175728000234812,169.38627550000092,None,169.38627550000092,None,170.0273228000151,None,right,0.35332360002212226,170.0273228000151,None,,,,,,,,,,,,,,,,,,,,,,,,,,,,,,,,,,,,,,,,,,,,,,,PPT23,001,2022-07-01_14h29.26.291,ABstudy,2022.1.4,59.92236457578735,
,,,,,,,,,,,,,,,,,,,,,,,,,,,,,,,,,,,,,,,,,,,,,,,,,,,,,,,,,,,,,,,,,,,,,,,,,,,,170.40960149999592,None,space,9.338188099995023,170.40960149999592,None,,,,,,,,,,,,,,,,,,,,,,,,,,,,,,,,,,,,,,,,,PPT23,001,2022-07-01_14h29.26.291,ABstudy,2022.1.4,59.92236457578735,
AB,Lag5_T1A_T2P,5,A,P,6,11,5,3,14,Kiwi,Did you see the Kiwi?,0.12,0.016,JPG\,paintbrush01,dice05a,watermelon01,broccoli01a,hammer01,leaf02a,match,tennisball01b,lemon02,fan,stapler06,grape01,envelope03a,sponge01,blankImage,blankImage,blankImage,granolabar01,,,,,,,,,,,,0,0,0,261,,,,,,,,,,,,,,,,,,,,,,,,,,,,,,,,,,,180.3837760000024,181.3873966000101,181.370616900007,181.98467549998895,181.98467549998895,None,183.6801417999959,None,right,0.7958971000043675,183.6801417999959,None,184.50915110000642,None,right,0.4551021000079345,184.50915110000642,None,,,,,,,,,,,,,,,,,,,,,,,PPT23,001,2022-07-01_14h29.26.291,ABstudy,2022.1.4,59.92236457578735,
AB,Lag5_T1P_T2P,5,P,P,7,12,6,5,17,American football helmet,Did you see the American football helmet?,0.12,0.016,JPG\,alligator,banana01,apple07,tomato01,button01,spoon01,footballhelmet,fork03c,slipper03b,potato02b,grape01,stapler03b,teabag,screwdriver04b,hammer01,tennisball01b,blankImage,footballhelmet,,,,,,,,,,,,0,1,1,148,,,,,,,,,,,,,,,,,,,,,,,,,,,,,,,,,,,185.00568589998875,186.00930159998825,185.9938550000079,186.4960754000058,186.4960754000058,None,188.51927520000027,None,left,0.6766940999950748,188.51927520000027,None,189.21310449999874,None,right,0.41546580000431277,189.21310449999874,None,,,,,,,,,,,,,,,,,,,,,,,PPT23,001,2022-07-01_14h29.26.291,ABstudy,2022.1.4,59.92236457578735,
AB,Lag1_T1A_T2A,1,A,A,7,8,6,5,13,Poker chips,Did you see the Poker chips?,0.12,0.016,JPG\,violin,pizza,toothbrush03b,pineapple01a,banana01,ashtray01,candy,dandelion,clock04,sock01a,microscope,speaker04,calculator01,blankImage,blankImage,blankImage,blankImage,cigar,,,,,,,,,,,,0,2,2,289,,,,,,,,,,,,,,,,,,,,,,,,,,,,,,,,,,,189.6535445000045,190.66354370000772,190.64693779998925,191.23755049999454,191.23755049999454,None,192.8387747000088,None,right,0.7497309999889694,192.8387747000088,None,193.61687170001096,None,right,0.3716009000199847,193.61687170001096,None,,,,,,,,,,,,,,,,,,,,,,,PPT23,001,2022-07-01_14h29.26.291,ABstudy,2022.1.4,59.92236457578735,
AB,Lag1_T1P_T2P,1,P,P,5,6,4,3,9,Escalator,Did you see the Escalator?,0.12,0.016,JPG\,celery,pencil01,fan,foosballtable,escalator,stapler05,potato02b,fork03c,button01,blankImage,blankImage,blankImage,blankImage,blankImage,blankImage,blankImage,blankImage,escalator,,,,,,,,,,,,0,3,3,82,,,,,,,,,,,,,,,,,,,,,,,,,,,,,,,,,,,194.01963930000784,195.03471010000794,195.0012713999895,195.58858949999558,195.58858949999558,None,196.70654029998695,None,left,0.809799499984365,196.70654029998695,None,197.5372028000129,None,right,0.42706709998310544,197.5372028000129,None,,,,,,,,,,,,,,,,,,,,,,,PPT23,001,2022-07-01_14h29.26.291,ABstudy,2022.1.4,59.92236457578735,
AB,Lag1_T1P_T2P,1,P,P,6,7,5,3,10,windmill,Did you see the windmill?,0.12,0.016,JPG\,pizza,printer02,medal02b,spoon01,grape01,windmill,stapler04b,watermelon01,celery,battery02b,blankImage,blankImage,blankImage,blankImage,blankImage,blankImage,blankImage,windmill,,,,,,,,,,,,0,4,4,75,,,,,,,,,,,,,,,,,,,,,,,,,,,,,,,,,,,197.99344459999702,199.00510690000374,198.98845699999947,199.60600890000933,199.60600890000933,None,200.7604210000136,None,left,0.7404044999857433,200.7604210000136,None,201.52455940001528,None,left,0.3432279999833554,201.52455940001528,None,,,,,,,,,,,,,,,,,,,,,,,PPT23,001,2022-07-01_14h29.26.291,ABstudy,2022.1.4,59.92236457578735,
AB,Lag1_T1P_T2P,1,P,P,6,7,5,3,10,spider web,Did you see the spider web?,0.12,0.016,JPG\,toaster01,chain01,sponge01,baseball01a,carrot01,spiderweb,stapler03b,iron01b,grape01,brick,blankImage,blankImage,blankImage,blankImage,blankImage,blankImage,blankImage,spiderweb,,,,,,,,,,,,0,5,5,72,,,,,,,,,,,,,,,,,,,,,,,,,,,,,,,,,,,201.93598680000287,202.94215220000478,202.9254651000083,203.53332980000414,203.53332980000414,None,204.66868239999167,None,right,0.9670088000129908,204.66868239999167,None,205.66155720001552,None,left,0.4620480999874417,205.66155720001552,None,,,,,,,,,,,,,,,,,,,,,,,PPT23,001,2022-07-01_14h29.26.291,ABstudy,2022.1.4,59.92236457578735,
AB,Lag1_T1P_T2P,1,P,P,8,9,7,3,12,mail box,Did you see the mail box?,0.12,0.016,JPG\,paintbrush01,dice05a,watermelon01,broccoli01a,hammer01,leaf02a,match,mailbox01,stapler05,fan,lipstick02a,grape01,blankImage,blankImage,blankImage,blankImage,blankImage,mailbox01,,,,,,,,,,,,0,6,6,20,,,,,,,,,,,,,,,,,,,,,,,,,,,,,,,,,,,206.1508399999875,207.16311369999312,207.1465557999909,207.7254898000101,207.7254898000101,None,209.2573446999886,None,left,0.7148716999799944,209.2573446999886,None,209.99954089999665,None,right,0.4205734000133816,209.99954089999665,None,,,,,,,,,,,,,,,,,,,,,,,PPT23,001,2022-07-01_14h29.26.291,ABstudy,2022.1.4,59.92236457578735,
AB,Lag5_T1P_T2P,5,P,P,5,10,4,5,15,mouse,Did you see the mouse?,0.12,0.016,JPG\,pineapple01a,leaf02a,grape01,toiletpaper01a,mouse,tennisball01b,spoon01,chain01,pig,stapler03a,ring01,lemon02,dice05a,pizza,potato02b,blankImage,blankImage,mouse,,,,,,,,,,,,0,7,7,94,,,,,,,,,,,,,,,,,,,,,,,,,,,,,,,,,,,210.45289230000344,211.46740809999756,211.4509156999993,212.05644670000765,212.05644670000765,None,213.82708039999125,None,left,0.6328609000192955,213.82708039999125,None,214.48738899998716,None,left,0.3485625000030268,214.48738899998716,None,,,,,,,,,,,,,,,,,,,,,,,PPT23,001,2022-07-01_14h29.26.291,ABstudy,2022.1.4,59.92236457578735,
AB,Lag1_T1P_T2P,1,P,P,6,7,5,5,12,owl,Did you see the owl?,0.12,0.016,JPG\,paintbrush01,eraser,medal02b,hammer01,speaker04,greathornowl,stapler01,comb02a,plate01b,clock01a,button01,globe,blankImage,blankImage,blankImage,blankImage,blankImage,greathornowl,,,,,,,,,,,,0,8,8,1,,,,,,,,,,,,,,,,,,,,,,,,,,,,,,,,,,,214.86008320000838,215.87174540001433,215.85509560001083,216.4271727000014,216.4271727000014,None,218.02596120000817,None,left,0.6903010999958497,218.02596120000817,None,218.74118059998727,None,left,0.4389643000031356,218.74118059998727,None,,,,,,,,,,,,,,,,,,,,,,,PPT23,001,2022-07-01_14h29.26.291,ABstudy,2022.1.4,59.92236457578735,
AB,Lag1_T1A_T2P,1,A,P,5,6,4,3,9,Spider,Did you see the Spider?,0.12,0.016,JPG\,pen04b,speaker04,lighter01,cherry01,8ball,stapler04b,sock01a,toothbrush03b,broom01,blankImage,blankImage,blankImage,blankImage,blankImage,blankImage,blankImage,blankImage,bridge,,,,,,,,,,,,0,9,9,250,,,,,,,,,,,,,,,,,,,,,,,,,,,,,,,,,,,219.2130518000049,220.2262580000097,220.20954909999273,220.7984548000095,220.7984548000095,None,221.88737139999284,None,right,0.8206621999852359,221.88737139999284,None,222.72908710001502,None,left,0.41092500000377186,222.72908710001502,None,,,,,,,,,,,,,,,,,,,,,,,PPT23,001,2022-07-01_14h29.26.291,ABstudy,2022.1.4,59.92236457578735,
AB,Lag1_T1P_T2A,1,P,A,6,7,5,3,10,Dragon fly,Did you see the Dragon fly?,0.12,0.016,JPG\,leaf02a,pear01,measuringcup01,cigarette,fan,dragonfly01,teabag,tableknife02,ring01,pencil01,blankImage,blankImage,blankImage,blankImage,blankImage,blankImage,blankImage,dragonfly01,,,,,,,,,,,,0,10,10,185,,,,,,,,,,,,,,,,,,,,,,,,,,,,,,,,,,,223.16988420000416,224.18016059999354,224.1634955999907,224.7427636999928,224.7427636999928,None,225.94521770000574,None,left,0.6982887999911327,225.94521770000574,None,226.66573480001534,None,right,0.4666035000118427,226.66573480001534,None,,,,,,,,,,,,,,,,,,,,,,,PPT23,001,2022-07-01_14h29.26.291,ABstudy,2022.1.4,59.92236457578735,
AB,Lag5_T1P_T2P,5,P,P,6,11,5,4,15,shovel,Did you see the shovel?,0.12,0.016,JPG\,carrot01,watch02a,clock04,microscope,toiletpaper01a,shovel01,alligator,ring01,brick,watermelon01,stapler03b,pencil01,measuringcup01,balloon01b,computerkeyboard02,blankImage,blankImage,shovel01,,,,,,,,,,,,0,11,11,139,,,,,,,,,,,,,,,,,,,,,,,,,,,,,,,,,,,227.15181690000463,228.1672419999959,228.13388999999734,228.7201778999879,228.7201778999879,None,230.53681170000345,None,left,0.563351100019645,230.53681170000345,None,231.12017149999156,None,left,0.34764990000985563,231.12017149999156,None,,,,,,,,,,,,,,,,,,,,,,,PPT23,001,2022-07-01_14h29.26.291,ABstudy,2022.1.4,59.92236457578735,
AB,Lag5_T1P_T2P,5,P,P,6,11,5,4,15,sword,Did you see the sword?,0.12,0.016,JPG\,8ball,banana01,scissors01,pig,shirt02,broadsword,pear01,sponge01,fork03c,tableknife02,stapler06,match,toothbrush03b,birthdaycandle,candle01,blankImage,blankImage,broadsword,,,,,,,,,,,,0,12,12,167,,,,,,,,,,,,,,,,,,,,,,,,,,,,,,,,,,,231.4931504999986,232.50508100001025,232.48834949999582,233.10044599999674,233.10044599999674,None,234.8827217000071,None,left,0.4974693000258412,234.8827217000071,None,235.4226794000133,None,left,0.28576040000189096,235.4226794000133,None,,,,,,,,,,,,,,,,,,,,,,,PPT23,001,2022-07-01_14h29.26.291,ABstudy,2022.1.4,59.92236457578735,
AB,Lag5_T1A_T2P,5,A,P,6,11,5,5,16,baseball bat,Did you see the baseball bat?,0.12,0.016,JPG\,avocado01,aceofdiamond,match,cauliflower01,paintbrush01,clock01a,pig,cd,balloon01b,cellphone,stapler01,pear01,toaster01,sponge01,orange,blueberry01,blankImage,stool01,,,,,,,,,,,,0,13,13,273,,,,,,,,,,,,,,,,,,,,,,,,,,,,,,,,,,,235.796216799994,236.80922850000206,236.79256289999466,237.38127760001225,237.38127760001225,None,239.2947426000028,None,right,0.5734272999980021,239.2947426000028,None,239.8955918000138,None,left,0.364354799996363,239.8955918000138,None,,,,,,,,,,,,,,,,,,,,,,,PPT23,001,2022-07-01_14h29.26.291,ABstudy,2022.1.4,59.92236457578735,
AB,Lag5_T1P_T2P,5,P,P,5,10,4,5,15,sword fish,Did you see the sword fish?,0.12,0.016,JPG\,scissors01,balloon01b,eraser,feather03a,swordfish,candle01,measuringcup01,calculator01,thermometer02b,stapler04b,pear01,carrot01,globe,baseball01a,leaf02a,blankImage,blankImage,swordfish,,,,,,,,,,,,0,14,14,160,,,,,,,,,,,,,,,,,,,,,,,,,,,,,,,,,,,240.2835352999973,241.29717259999597,241.28053139999975,241.85853220001445,241.85853220001445,None,243.77228420000756,None,left,0.4959646000061184,243.77228420000756,None,244.28549119998934,None,left,0.32657210002071224,244.28549119998934,None,,,,,,,,,,,,,,,,,,,,,,,PPT23,001,2022-07-01_14h29.26.291,ABstudy,2022.1.4,59.92236457578735,
AB,Lag5_T1P_T2P,5,P,P,6,11,5,3,14,wrench,Did you see the wrench?,0.12,0.016,JPG\,cherry01,cymbal,envelope03a,foosballtable,shirt02,stubbywrench01a,sewingmachine01a,candle08b,battery02b,apple07,stapler03b,screwdriver04b,strawberry,sunglasses04,blankImage,blankImage,blankImage,stubbywrench01a,,,,,,,,,,,,0,15,15,122,,,,,,,,,,,,,,,,,,,,,,,,,,,,,,,,,,,244.63880129999598,245.65192969999043,245.63503169998876,246.3587162999902,246.3587162999902,None,247.88637739999103,None,left,0.7024805000110064,247.88637739999103,None,248.6209499000106,None,left,0.3027526000223588,248.6209499000106,None,,,,,,,,,,,,,,,,,,,,,,,PPT23,001,2022-07-01_14h29.26.291,ABstudy,2022.1.4,59.92236457578735,
AB,Lag5_T1P_T2P,5,P,P,7,12,6,3,15,mail box,Did you see the mail box?,0.12,0.016,JPG\,key01,apple07,ring01,leaf02a,hammer01,tableknife02,postalmailbox01,sponge01,baseball01a,thermometer02b,celery,stapler06,grape01,cucumber,tennisball01b,blankImage,blankImage,postalmailbox01,,,,,,,,,,,,0,16,16,113,,,,,,,,,,,,,,,,,,,,,,,,,,,,,,,,,,,248.9573090999911,249.9723517000093,249.9389330999984,250.51776660000905,250.51776660000905,None,252.44459239998832,None,left,0.8792368000140414,252.44459239998832,None,253.3419761999976,None,right,0.3502939000027254,253.3419761999976,None,,,,,,,,,,,,,,,,,,,,,,,PPT23,001,2022-07-01_14h29.26.291,ABstudy,2022.1.4,59.92236457578735,
AB,Lag1_T1P_T2P,1,P,P,5,6,4,3,9,Pumpkin,Did you see the Pumpkin?,0.12,0.016,JPG\,binoculars01b,speaker04,sandal,envelope03a,pumpkin,stapler03b,battery02b,chain01,measuringcup01,blankImage,blankImage,blankImage,blankImage,blankImage,blankImage,blankImage,blankImage,pumpkin,,,,,,,,,,,,0,17,17,23,,,,,,,,,,,,,,,,,,,,,,,,,,,,,,,,,,,253.71281019999878,254.72717470000498,254.71051229999284,255.30867840000428,255.30867840000428,None,256.37752690000343,None,left,0.5147822000144515,256.37752690000343,None,256.91251389999525,None,left,0.3398938000027556,256.91251389999525,None,,,,,,,,,,,,,,,,,,,,,,,PPT23,001,2022-07-01_14h29.26.291,ABstudy,2022.1.4,59.92236457578735,
AB,Lag1_T1A_T2A,1,A,A,5,6,4,4,10,rose,Did you see the rose?,0.12,0.016,JPG\,sock01a,spoon01,alligator,comb02a,printer02,medal02b,lamp04a,cymbal,greenolive,computerkeyboard02,blankImage,blankImage,blankImage,blankImage,blankImage,blankImage,blankImage,cruiseship,,,,,,,,,,,,0,18,18,293,,,,,,,,,,,,,,,,,,,,,,,,,,,,,,,,,,,257.2856150000007,258.2973065999977,258.28052729999763,258.8669874999905,258.8669874999905,None,260.1468763999874,None,right,0.9210336000251118,260.1468763999874,None,261.1001072000072,None,right,0.43170469999313354,261.1001072000072,None,,,,,,,,,,,,,,,,,,,,,,,PPT23,001,2022-07-01_14h29.26.291,ABstudy,2022.1.4,59.92236457578735,
AB,Lag5_T1P_T2A,5,P,A,6,11,5,3,14,Balcony,Did you see the Balcony?,0.12,0.016,JPG\,tomato01,pen04b,shirt02,carrot01,lamp04a,balcony02,pizza,avocado01,sewingmachine01a,apple07,iron01b,book01b,chain01,sock01a,blankImage,blankImage,blankImage,balcony02,,,,,,,,,,,,0,19,19,207,,,,,,,,,,,,,,,,,,,,,,,,,,,,,,,,,,,261.55776930000866,262.5683645000099,262.5518076000153,263.14803119999124,263.14803119999124,None,264.8171408000053,None,right,0.7867547000059858,264.8171408000053,None,265.62175700001535,None,right,0.3921818000089843,265.62175700001535,None,,,,,,,,,,,,,,,,,,,,,,,PPT23,001,2022-07-01_14h29.26.291,ABstudy,2022.1.4,59.92236457578735,
AB,Lag1_T1A_T2P,1,A,P,5,6,4,3,9,chimney,Did you see the chimney?,0.12,0.016,JPG\,cucumber,sponge01,alligator,pear01,ashtray01,stapler06,clock04,battery02b,fork03c,blankImage,blankImage,blankImage,blankImage,blankImage,blankImage,blankImage,blankImage,trophy01,,,,,,,,,,,,0,20,20,246,,,,,,,,,,,,,,,,,,,,,,,,,,,,,,,,,,,266.04263690000516,267.05627979998826,267.0393505000102,267.6346186999872,267.6346186999872,None,268.78582650001044,None,right,0.7225582999817561,268.78582650001044,None,269.5256677000143,None,right,1.8946732000040356,269.5256677000143,None,,,,,,,,,,,,,,,,,,,,,,,PPT23,001,2022-07-01_14h29.26.291,ABstudy,2022.1.4,59.92236457578735,
AB,Lag1_T1P_T2P,1,P,P,7,8,6,3,11,swing,Did you see the swing?,0.12,0.016,JPG\,sewingmachine01a,thermometer02b,sponge01,eraser,broccoli01a,fork03c,swing,stapler03b,belt02a,medal02b,pineapple01a,blankImage,blankImage,blankImage,blankImage,blankImage,blankImage,swing,,,,,,,,,,,,0,21,21,30,,,,,,,,,,,,,,,,,,,,,,,,,,,,,,,,,,,271.44942739998805,272.4616578000132,272.44497519999277,273.0294531999971,273.0294531999971,None,274.41060470000957,None,right,0.9051174999913201,274.41060470000957,None,275.34798680001404,None,left,0.49589439999544993,275.34798680001404,None,,,,,,,,,,,,,,,,,,,,,,,PPT23,001,2022-07-01_14h29.26.291,ABstudy,2022.1.4,59.92236457578735,
AB,Lag5_T1P_T2P,5,P,P,5,10,4,5,15,Eye,Did you see the Eye?,0.12,0.016,JPG\,apple07,toiletpaper01a,pizza,dandelion,eye,eraser,microscope,violin,orange,stapler01,balloon01b,sandal,lighter01,fan,book01b,blankImage,blankImage,eye,,,,,,,,,,,,0,22,22,171,,,,,,,,,,,,,,,,,,,,,,,,,,,,,,,,,,,275.86997440000414,276.88262690001284,276.86589789998834,277.466336100013,277.466336100013,None,279.2897842999955,None,left,0.6658642999827862,279.2897842999955,None,279.98586330001126,None,left,0.36198779998812824,279.98586330001126,None,,,,,,,,,,,,,,,,,,,,,,,PPT23,001,2022-07-01_14h29.26.291,ABstudy,2022.1.4,59.92236457578735,
AB,Lag5_T1A_T2A,5,A,A,5,10,4,5,15,flower,Did you see the flower?,0.12,0.016,JPG\,clock01a,cellphone,toaster01,toothbrush03b,cauliflower01,microscope,comb02a,paintbrush01,scarf,clock04,sponge01,iron01b,watch02a,celery,ring01,blankImage,blankImage,stepladder,,,,,,,,,,,,0,23,23,303,,,,,,,,,,,,,,,,,,,,,,,,,,,,,,,,,,,280.3754900000058,281.3870966999966,281.37051609999617,281.9627646000008,281.9627646000008,None,283.7531171999872,None,right,1.1867781000037212,283.7531171999872,None,284.9576284000068,None,right,0.5823093999933917,284.9576284000068,None,,,,,,,,,,,,,,,,,,,,,,,PPT23,001,2022-07-01_14h29.26.291,ABstudy,2022.1.4,59.92236457578735,
AB,Lag1_T1P_T2A,1,P,A,8,9,7,5,14,Parrot,Did you see the Parrot?,0.12,0.016,JPG\,candy,brownsugar,dice05a,cd,sock01a,blueberry01,button01,parrot01,feather03a,grape01,dandelion,scissors01,watch02a,candle08b,blankImage,blankImage,blankImage,parrot01,,,,,,,,,,,,0,24,24,192,,,,,,,,,,,,,,,,,,,,,,,,,,,,,,,,,,,285.5641287000035,286.57570240000496,286.5589717999974,287.12361489998875,287.12361489998875,None,288.82879190001404,None,left,0.6949948999972548,288.82879190001404,None,289.5455583000148,None,right,0.3860220000206027,289.5455583000148,None,,,,,,,,,,,,,,,,,,,,,,,PPT23,001,2022-07-01_14h29.26.291,ABstudy,2022.1.4,59.92236457578735,
AB,Lag5_T1P_T2P,5,P,P,6,11,5,4,15,saxophone,Did you see the saxophone?,0.12,0.016,JPG\,pizza,strawberry,potato02b,speaker04,battery02b,saxophone,dice05a,cellphone,globe,banana01,stapler03b,baseball01a,toaster01,broom01,ring01,blankImage,blankImage,saxophone,,,,,,,,,,,,0,25,25,117,,,,,,,,,,,,,,,,,,,,,,,,,,,,,,,,,,,289.9684630999982,290.97999880000134,290.963239100005,291.56569509999827,291.56569509999827,None,293.4651542000065,None,left,0.48243810000712983,293.4651542000065,None,293.9661042999942,None,left,0.28546940002706833,293.9661042999942,None,,,,,,,,,,,,,,,,,,,,,,,PPT23,001,2022-07-01_14h29.26.291,ABstudy,2022.1.4,59.92236457578735,
AB,Lag5_T1P_T2P,5,P,P,8,13,7,5,18,skis,Did you see the skis?,0.12,0.016,JPG\,tennisball01b,paintbrush01,medal02b,apple07,speaker04,iron01b,avocado01,downhillski,belt02a,toiletpaper01a,watermelon01,candle01,stapler01,cymbal,ashtray01,screwdriver04b,blankImage,downhillski,,,,,,,,,,,,0,26,26,106,,,,,,,,,,,,,,,,,,,,,,,,,,,,,,,,,,,294.2853518000047,295.3007719999878,295.2674396999937,295.8556341000076,295.8556341000076,None,297.82076460000826,None,left,0.80760349999764,297.82076460000826,None,298.65445100000943,None,right,0.33483959999284707,298.65445100000943,None,,,,,,,,,,,,,,,,,,,,,,,PPT23,001,2022-07-01_14h29.26.291,ABstudy,2022.1.4,59.92236457578735,
AB,Lag5_T1P_T2P,5,P,P,5,10,4,5,15,funnel,Did you see the funnel?,0.12,0.016,JPG\,pineapple01a,tennisball01b,computerkeyboard02,feather03a,funnel,acorn,violin,blueberry01,medal02b,stapler01,greenolive,screwdriver04b,potato02b,fork03c,cymbal,blankImage,blankImage,funnel,,,,,,,,,,,,0,27,27,109,,,,,,,,,,,,,,,,,,,,,,,,,,,,,,,,,,,299.02735910000047,300.0389731999894,300.0222827999969,300.61866109998664,300.61866109998664,None,302.32976620001136,None,left,0.7055331000010483,302.32976620001136,None,303.05853519999073,None,left,0.6655315000098199,303.05853519999073,None,,,,,,,,,,,,,,,,,,,,,,,PPT23,001,2022-07-01_14h29.26.291,ABstudy,2022.1.4,59.92236457578735,
AB,Lag5_T1P_T2P,5,P,P,7,12,6,4,16,Fireplace,Did you see the Fireplace?,0.12,0.016,JPG\,printer02,leaf02a,cauliflower01,sock01a,brownsugar,paintbrush01,fireplace,orange,belt02a,shirt02,key01,stapler01,cigarette,scissors01,envelope03a,blueberry01,blankImage,fireplace,,,,,,,,,,,,0,28,28,88,,,,,,,,,,,,,,,,,,,,,,,,,,,,,,,,,,,303.75041979999514,304.76053810000303,304.743901800015,305.33554689999437,305.33554689999437,None,307.3235721999954,None,right,0.8717170000018086,307.3235721999954,None,308.21359709999524,None,left,0.38170300002093427,308.21359709999524,None,,,,,,,,,,,,,,,,,,,,,,,PPT23,001,2022-07-01_14h29.26.291,ABstudy,2022.1.4,59.92236457578735,
AB,Lag1_T1P_T2P,1,P,P,5,6,4,5,11,golf ball,Did you see the golf ball?,0.12,0.016,JPG\,foosballtable,cigarette,pen04b,birthdaycandle,golfball,stapler05,binoculars01b,chain01,potato02b,cauliflower01,paintbrush01,blankImage,blankImage,blankImage,blankImage,blankImage,blankImage,golfball,,,,,,,,,,,,0,29,29,13,,,,,,,,,,,,,,,,,,,,,,,,,,,,,,,,,,,308.61780519998865,309.6316400000069,309.61498969999957,310.1158407999901,310.1158407999901,None,311.5149744999944,None,left,0.7127595999918412,311.5149744999944,None,312.25181039999006,None,right,0.3763768000062555,312.25181039999006,None,,,,,,,,,,,,,,,,,,,,,,,PPT23,001,2022-07-01_14h29.26.291,ABstudy,2022.1.4,59.92236457578735,
AB,Lag5_T1P_T2P,5,P,P,7,12,6,5,17,statue,Did you see the statue?,0.12,0.016,JPG\,pear01,clock01a,cymbal,match,ashtray01,globe,statue,button01,lemon02,pen04b,dice05a,stapler06,toothbrush03b,screwdriver04b,feather03a,key01,blankImage,statue,,,,,,,,,,,,0,30,30,100,,,,,,,,,,,,,,,,,,,,,,,,,,,,,,,,,,,312.6557180999953,313.6694346999866,313.65265199998976,314.22539840001264,314.22539840001264,None,316.1851220999961,None,left,0.5798980999970809,316.1851220999961,None,316.78923439999926,None,left,0.2786960000230465,316.78923439999926,None,,,,,,,,,,,,,,,,,,,,,,,PPT23,001,2022-07-01_14h29.26.291,ABstudy,2022.1.4,59.92236457578735,
AB,Lag5_T1A_T2P,5,A,P,7,12,6,4,16,hand,Did you see the hand?,0.12,0.016,JPG\,celery,tennisball01b,calculator01,pear01,screw02,orange,button01,cellphone,onion,apple07,iron01b,stapler05,banana01,paintbrush01,dandelion,toothbrush03b,blankImage,bull,,,,,,,,,,,,0,31,31,281,,,,,,,,,,,,,,,,,,,,,,,,,,,,,,,,,,,317.0929853999987,318.10701040001004,318.07350269999006,318.6670609000139,318.6670609000139,None,320.5993460000027,None,right,0.7331481000001077,320.5993460000027,None,321.3603761999984,None,left,0.32352810000884347,321.3603761999984,None,,,,,,,,,,,,,,,,,,,,,,,PPT23,001,2022-07-01_14h29.26.291,ABstudy,2022.1.4,59.92236457578735,
AB,Lag5_T1P_T2A,5,P,A,6,11,5,5,16,fish,Did you see the fish?,0.12,0.016,JPG\,cucumber,ring01,lipstick02a,microscope,violin,redlionfish,celery,lighter01,cherry01,sewingmachine01a,belt02a,key01,binoculars01b,medal02b,watermelon01,dice05a,blankImage,redlionfish,,,,,,,,,,,,0,32,32,221,,,,,,,,,,,,,,,,,,,,,,,,,,,,,,,,,,,321.78495820000535,322.7950106000062,322.778303900006,323.36088039999595,323.36088039999595,None,325.2189691000094,None,right,0.8402743999904487,325.2189691000094,None,326.08136459998786,None,right,0.3297837999998592,326.08136459998786,None,,,,,,,,,,,,,,,,,,,,,,,PPT23,001,2022-07-01_14h29.26.291,ABstudy,2022.1.4,59.92236457578735,
AB,Lag1_T1A_T2P,1,A,P,7,8,6,5,13,Ant,Did you see the Ant?,0.12,0.016,JPG\,rice,watermelon01,tableknife02,scarf,computerkeyboard02,cauliflower01,battery02b,stapler03b,book01b,sandal,sponge01,microscope,tomato01,blankImage,blankImage,blankImage,blankImage,sandcastle,,,,,,,,,,,,0,33,33,242,,,,,,,,,,,,,,,,,,,,,,,,,,,,,,,,,,,326.4346091999905,327.44946440000786,327.4160620000039,327.9913765999954,327.9913765999954,None,329.6665800999908,None,right,0.7531006000062916,329.6665800999908,None,330.4364547999867,None,left,0.47945460001938045,330.4364547999867,None,,,,,,,,,,,,,,,,,,,,,,,PPT23,001,2022-07-01_14h29.26.291,ABstudy,2022.1.4,59.92236457578735,
AB,Lag5_T1A_T2P,5,A,P,7,12,6,4,16,flower,Did you see the flower?,0.12,0.016,JPG\,printer02,envelope03a,potato02b,calculator01,tableknife02,cigarette,ashtray01,pig,broom01,greenolive,candle08b,stapler03a,strawberry,candle01,foosballtable,tennisball01b,blankImage,calendar,,,,,,,,,,,,0,34,34,282,,,,,,,,,,,,,,,,,,,,,,,,,,,,,,,,,,,330.93895829998655,331.95391660000314,331.9204944999947,332.5200590000022,332.5200590000022,None,334.43987629999174,None,right,0.6999469000147656,334.43987629999174,None,335.1570745999925,None,left,0.47069859999464825,335.1570745999925,None,,,,,,,,,,,,,,,,,,,,,,,PPT23,001,2022-07-01_14h29.26.291,ABstudy,2022.1.4,59.92236457578735,
AB,Lag5_T1P_T2A,5,P,A,7,12,6,4,16,Bear,Did you see the Bear?,0.12,0.016,JPG\,comb02a,key01,medal02b,battery02b,lighter01,microscope,grizzly,sandal,pig,cellphone,computerkeyboard02,calculator01,cymbal,clock04,cucumber,avocado01,blankImage,grizzly,,,,,,,,,,,,0,35,35,213,,,,,,,,,,,,,,,,,,,,,,,,,,,,,,,,,,,335.6598302999919,336.6592584000027,336.64389929999015,337.2475310000009,337.2475310000009,None,339.2082916999934,None,left,1.011710699996911,339.2082916999934,None,340.2458636999945,None,right,0.5741545000055339,340.2458636999945,None,,,,,,,,,,,,,,,,,,,,,,,PPT23,001,2022-07-01_14h29.26.291,ABstudy,2022.1.4,59.92236457578735,
AB,Lag5_T1P_T2A,5,P,A,7,12,6,3,15,Toy soldier,Did you see the Toy soldier?,0.12,0.016,JPG\,binoculars01b,cymbal,pizza,candy,paintbrush01,sponge01,toysoldier01b,thermometer02b,speaker04,lemon02,lipstick02a,strawberry,candle01,acorn,plate01b,blankImage,blankImage,toysoldier01b,,,,,,,,,,,,0,36,36,203,,,,,,,,,,,,,,,,,,,,,,,,,,,,,,,,,,,340.85087699998985,341.86404980000225,341.84743359999266,342.4217662999872,342.4217662999872,None,344.26870660000714,None,left,0.6230548000021372,344.26870660000714,None,344.9168951000029,None,right,0.5035179999831598,344.9168951000029,None,,,,,,,,,,,,,,,,,,,,,,,PPT23,001,2022-07-01_14h29.26.291,ABstudy,2022.1.4,59.92236457578735,
AB,Lag1_T1A_T2P,1,A,P,5,6,4,3,9,microphone,Did you see the microphone?,0.12,0.016,JPG\,hammer01,sponge01,toaster01,cherry01,feather03a,stapler06,measuringcup01,pencil01,tennisball01b,blankImage,blankImage,blankImage,blankImage,blankImage,blankImage,blankImage,blankImage,cactus,,,,,,,,,,,,0,37,37,230,,,,,,,,,,,,,,,,,,,,,,,,,,,,,,,,,,,345.5091487999889,346.5199391999922,346.4864704000065,347.138913200004,347.05789840000216,None,348.15237799999886,None,right,0.7476697000092827,348.15237799999886,None,348.93525390001014,None,left,0.3638771999976598,348.93525390001014,None,,,,,,,,,,,,,,,,,,,,,,,PPT23,001,2022-07-01_14h29.26.291,ABstudy,2022.1.4,59.92236457578735,
AB,Lag5_T1P_T2A,5,P,A,5,10,4,3,13,fan,Did you see the fan?,0.12,0.016,JPG\,scissors01,grape01,mushroom01,toiletpaper01a,fanheater,pizza,cigarette,ashtray01,carrot01,pineapple01a,foosballtable,lipstick02a,teabag,blankImage,blankImage,blankImage,blankImage,fanheater,,,,,,,,,,,,0,38,38,220,,,,,,,,,,,,,,,,,,,,,,,,,,,,,,,,,,,349.32824259999325,350.33892929999274,350.32221919999574,350.8962532999867,350.8962532999867,None,352.50598600000376,None,right,0.8582049999968149,352.50598600000376,None,353.3923496000061,None,right,0.33988420001696795,353.3923496000061,None,,,,,,,,,,,,,,,,,,,,,,,PPT23,001,2022-07-01_14h29.26.291,ABstudy,2022.1.4,59.92236457578735,
AB,Lag5_T1P_T2P,5,P,P,7,12,6,3,15,Eye patch,Did you see the Eye patch?,0.12,0.016,JPG\,candle01,paintbrush01,scissors01,fan,microscope,toothbrush03b,eyepatch,watermelon01,teabag,pencil01,lemon02,stapler05,shirt02,cauliflower01,cd,blankImage,blankImage,eyepatch,,,,,,,,,,,,0,39,39,108,,,,,,,,,,,,,,,,,,,,,,,,,,,,,,,,,,,353.7658068999881,354.77676249999786,354.7600955000089,355.3438790999935,355.3438790999935,None,357.2018120000139,None,left,0.514030799997272,357.2018120000139,None,357.74624599999515,None,left,0.26653799999621697,357.74624599999515,None,,,,,,,,,,,,,,,,,,,,,,,PPT23,001,2022-07-01_14h29.26.291,ABstudy,2022.1.4,59.92236457578735,
AB,Lag1_T1P_T2P,1,P,P,6,7,5,5,12,exit sign,Did you see the exit sign?,0.12,0.016,JPG\,printer02,envelope03a,potato02b,calculator01,tableknife02,exitsign,stapler01,pig,broom01,greenolive,candle08b,battery02b,blankImage,blankImage,blankImage,blankImage,blankImage,exitsign,,,,,,,,,,,,0,40,40,41,,,,,,,,,,,,,,,,,,,,,,,,,,,,,,,,,,,358.0341905000096,359.0485139999946,359.0330191999965,359.72370470000897,359.64590259999386,None,361.0439589000016,None,left,1.1516477999975905,361.0439589000016,None,362.21757030001027,None,right,0.48214850001386367,362.21757030001027,None,,,,,,,,,,,,,,,,,,,,,,,PPT23,001,2022-07-01_14h29.26.291,ABstudy,2022.1.4,59.92236457578735,
AB,Lag5_T1P_T2P,5,P,P,7,12,6,3,15,Rollerblade,Did you see the Rollerblade?,0.12,0.016,JPG\,hammer01,sponge01,toaster01,cherry01,feather03a,mushroom01,rollerblade,pencil01,tennisball01b,brick,clock04,stapler06,teabag,garlic01a,envelope03a,blankImage,blankImage,rollerblade,,,,,,,,,,,,0,41,41,116,,,,,,,,,,,,,,,,,,,,,,,,,,,,,,,,,,,362.7222703000007,363.7359043000033,363.71926469999016,364.27987339999527,364.27987339999527,None,366.0985209000064,None,left,0.4967373999825213,366.0985209000064,None,366.6217556000047,None,left,0.21331960000679828,366.6217556000047,None,,,,,,,,,,,,,,,,,,,,,,,PPT23,001,2022-07-01_14h29.26.291,ABstudy,2022.1.4,59.92236457578735,
AB,Lag1_T1A_T2A,1,A,A,6,7,5,5,12,Safe,Did you see the Safe?,0.12,0.016,JPG\,hammer01,sponge01,toaster01,cherry01,feather03a,mushroom01,measuringcup01,pencil01,tennisball01b,brick,clock04,medal02b,blankImage,blankImage,blankImage,blankImage,blankImage,downhillski,,,,,,,,,,,,0,42,42,294,,,,,,,,,,,,,,,,,,,,,,,,,,,,,,,,,,,366.9048721000145,367.90658410001197,367.88981689998764,368.4836257999996,368.4836257999996,None,369.92758059999323,None,right,1.0523159000149462,369.92758059999323,None,371.00971429998754,None,right,0.40214340001693927,371.00971429998754,None,,,,,,,,,,,,,,,,,,,,,,,PPT23,001,2022-07-01_14h29.26.291,ABstudy,2022.1.4,59.92236457578735,
AB,Lag5_T1P_T2P,5,P,P,8,13,7,4,17,butterfly,Did you see the butterfly?,0.12,0.016,JPG\,speaker04,sewingmachine01a,eraser,violin,globe,belt02a,sunglasses04,butterfly,cd,greenolive,alligator,pear01,stapler01,screwdriver04b,banana01,cigarette,blankImage,butterfly,,,,,,,,,,,,0,43,43,126,,,,,,,,,,,,,,,,,,,,,,,,,,,,,,,,,,,371.44919429998845,372.46091250001336,372.4442655000021,373.0303016999969,373.0303016999969,None,375.0022189000156,None,left,0.70511060001445,375.0022189000156,None,375.7320432999986,None,right,0.33556100001442246,375.7320432999986,None,,,,,,,,,,,,,,,,,,,,,,,PPT23,001,2022-07-01_14h29.26.291,ABstudy,2022.1.4,59.92236457578735,
AB,Lag5_T1P_T2P,5,P,P,7,12,6,5,17,flamingo,Did you see the flamingo?,0.12,0.016,JPG\,pig,belt02a,rice,screwdriver04b,candle01,apple07,flamingo,pear01,feather03a,match,thermometer02b,stapler06,lemon02,violin,medal02b,pineapple01a,blankImage,flamingo,,,,,,,,,,,,0,44,44,153,,,,,,,,,,,,,,,,,,,,,,,,,,,,,,,,,,,376.1054487999936,377.11594190000324,377.0992142999894,377.5997767999943,377.5997767999943,None,379.5969933999877,None,left,0.5341544999973848,379.5969933999877,None,380.15224120000494,None,left,0.29093899999861605,380.15224120000494,None,,,,,,,,,,,,,,,,,,,,,,,PPT23,001,2022-07-01_14h29.26.291,ABstudy,2022.1.4,59.92236457578735,
AB,Lag1_T1P_T2P,1,P,P,8,9,7,3,12,zebra,Did you see the zebra?,0.12,0.016,JPG\,apple07,toiletpaper01a,pizza,dandelion,greenolive,eraser,microscope,zebra,stapler03b,lipstick02a,balloon01b,sandal,blankImage,blankImage,blankImage,blankImage,blankImage,zebra,,,,,,,,,,,,0,45,45,28,,,,,,,,,,,,,,,,,,,,,,,,,,,,,,,,,,,380.4785963000031,381.4869856000005,381.4701719000004,382.0494270999916,382.0494270999916,None,383.524333999987,None,right,1.0080060999898706,383.524333999987,None,384.55623919999925,None,left,0.327038099989295,384.55623919999925,None,,,,,,,,,,,,,,,,,,,,,,,PPT23,001,2022-07-01_14h29.26.291,ABstudy,2022.1.4,59.92236457578735,
AB,Lag1_T1P_T2P,1,P,P,8,9,7,3,12,Eiffel tower,Did you see the Eiffel tower?,0.12,0.016,JPG\,celery,tennisball01b,calculator01,pear01,screw02,orange,button01,eiffeltower,stapler03b,apple07,iron01b,brownsugar,blankImage,blankImage,blankImage,blankImage,blankImage,eiffeltower,,,,,,,,,,,,0,46,46,40,,,,,,,,,,,,,,,,,,,,,,,,,,,,,,,,,,,384.9106357000128,385.9242830000003,385.9076289999939,386.48350740000024,386.48350740000024,None,387.89062250001007,None,left,0.6884721999813337,387.89062250001007,None,388.6109870999935,None,left,0.2882621999888215,388.6109870999935,None,,,,,,,,,,,,,,,,,,,,,,,PPT23,001,2022-07-01_14h29.26.291,ABstudy,2022.1.4,59.92236457578735,
AB,Lag1_T1P_T2P,1,P,P,8,9,7,3,12,cactus,Did you see the cactus?,0.12,0.016,JPG\,tennisball01b,paintbrush01,medal02b,apple07,speaker04,iron01b,avocado01,cactus,stapler03b,toiletpaper01a,watermelon01,candle01,blankImage,blankImage,blankImage,blankImage,blankImage,cactus,,,,,,,,,,,,0,47,47,58,,,,,,,,,,,,,,,,,,,,,,,,,,,,,,,,,,,388.9329052999965,389.94564379999065,389.9301807000011,390.57535470000585,390.57535470000585,None,391.98903560001054,None,left,0.6866916000144556,391.98903560001054,None,392.6981051999901,None,right,0.3132423000060953,392.6981051999901,None,,,,,,,,,,,,,,,,,,,,,,,PPT23,001,2022-07-01_14h29.26.291,ABstudy,2022.1.4,59.92236457578735,
AB,Lag1_T1A_T2P,1,A,P,8,9,7,4,13,Toolbox,Did you see the Toolbox?,0.12,0.016,JPG\,pizza,printer02,medal02b,spoon01,grape01,lighter01,belt02a,watermelon01,stapler03b,battery02b,screw02,comb02a,cauliflower01,blankImage,blankImage,blankImage,blankImage,ladybug03,,,,,,,,,,,,0,48,48,237,,,,,,,,,,,,,,,,,,,,,,,,,,,,,,,,,,,393.03819980000844,394.04926420000265,394.0325140999921,394.6707116999896,394.6707116999896,None,396.28293340001255,None,right,0.6408149999915622,396.28293340001255,None,396.9523068999988,None,right,0.35557539999717847,396.9523068999988,None,,,,,,,,,,,,,,,,,,,,,,,PPT23,001,2022-07-01_14h29.26.291,ABstudy,2022.1.4,59.92236457578735,
AB,Lag1_T1P_T2P,1,P,P,7,8,6,3,11,compass,Did you see the compass?,0.12,0.016,JPG\,brick,plate01b,pen04b,toaster01,screwdriver04b,candle01,magneticcompass,stapler03a,pig,ring01,orange,blankImage,blankImage,blankImage,blankImage,blankImage,blankImage,magneticcompass,,,,,,,,,,,,0,49,49,66,,,,,,,,,,,,,,,,,,,,,,,,,,,,,,,,,,,397.34182750000036,398.3536970000132,398.3369316000026,398.9085482000082,398.9085482000082,None,400.30242200000794,None,left,0.5652100000006612,400.30242200000794,None,400.8891594999877,None,right,0.3143835999944713,400.8891594999877,None,,,,,,,,,,,,,,,,,,,,,,,PPT23,001,2022-07-01_14h29.26.291,ABstudy,2022.1.4,59.92236457578735,
AB,Lag5_T1A_T2A,5,A,A,7,12,6,4,16,Eye,Did you see the Eye?,0.12,0.016,JPG\,rice,watermelon01,tableknife02,scarf,computerkeyboard02,cauliflower01,battery02b,binoculars01b,book01b,sandal,sponge01,microscope,tomato01,fork03c,thermometer02b,apple07,blankImage,scooter,,,,,,,,,,,,0,50,50,302,,,,,,,,,,,,,,,,,,,,,,,,,,,,,,,,,,,401.2251130999939,402.2405029000074,402.20714990000124,402.8056593000074,402.8056593000074,None,404.7805082999985,None,right,0.7269706999941263,404.7805082999985,None,405.52732210000977,None,right,0.540078900026856,405.52732210000977,None,,,,,,,,,,,,,,,,,,,,,,,PPT23,001,2022-07-01_14h29.26.291,ABstudy,2022.1.4,59.92236457578735,
AB,Lag5_T1A_T2P,5,A,P,6,11,5,4,15,butterfly,Did you see the butterfly?,0.12,0.016,JPG\,comb02a,key01,medal02b,battery02b,lighter01,microscope,watermelon01,sandal,pig,cellphone,stapler06,calculator01,cymbal,clock04,cucumber,blankImage,blankImage,uprightpiano01,,,,,,,,,,,,0,51,51,276,,,,,,,,,,,,,,,,,,,,,,,,,,,,,,,,,,,406.0996740999981,407.1130128999939,407.0974525999918,407.6962174999935,407.6962174999935,None,409.49100499998895,None,right,0.5605096000072081,409.49100499998895,None,410.0845944999892,None,left,0.32693379998090677,410.0845944999892,None,,,,,,,,,,,,,,,,,,,,,,,PPT23,001,2022-07-01_14h29.26.291,ABstudy,2022.1.4,59.92236457578735,
AB,Lag1_T1A_T2A,1,A,A,8,9,7,3,12,punching bag,Did you see the punching bag?,0.12,0.016,JPG\,key01,apple07,ring01,leaf02a,hammer01,tableknife02,violin,sponge01,baseball01a,thermometer02b,celery,calculator01,blankImage,blankImage,blankImage,blankImage,blankImage,bathtub,,,,,,,,,,,,0,52,52,291,,,,,,,,,,,,,,,,,,,,,,,,,,,,,,,,,,,410.4342009999964,411.44955680001294,411.41615390000516,411.9948487000074,411.9948487000074,None,413.4643081999966,None,right,0.8195915000105742,413.4643081999966,None,414.3031392999983,None,right,0.3644936999771744,414.3031392999983,None,,,,,,,,,,,,,,,,,,,,,,,PPT23,001,2022-07-01_14h29.26.291,ABstudy,2022.1.4,59.92236457578735,
AB,Lag1_T1P_T2P,1,P,P,8,9,7,5,14,Waterfall,Did you see the Waterfall?,0.12,0.016,JPG\,pizza,watch02a,greenolive,cucumber,match,violin,scissors01,waterfall,stapler03a,cherry01,ring01,cigarette,microscope,cellphone,blankImage,blankImage,blankImage,waterfall,,,,,,,,,,,,0,53,53,52,,,,,,,,,,,,,,,,,,,,,,,,,,,,,,,,,,,414.6874894000066,415.6874552000081,415.67099310000776,416.2446826999949,416.2446826999949,None,417.9900898000051,None,left,0.5976605000032578,417.9900898000051,None,418.60764530001325,None,right,0.37207859999034554,418.60764530001325,None,,,,,,,,,,,,,,,,,,,,,,,PPT23,001,2022-07-01_14h29.26.291,ABstudy,2022.1.4,59.92236457578735,
AB,Lag5_T1P_T2P,5,P,P,5,10,4,5,15,Bee,Did you see the Bee?,0.12,0.016,JPG\,fork03c,dandelion,dice05a,belt02a,honeybee,watch02a,key01,globe,eraser,stapler03a,greenolive,shirt02,candle08b,cigarette,garlic01a,blankImage,blankImage,honeybee,,,,,,,,,,,,0,54,54,149,,,,,,,,,,,,,,,,,,,,,,,,,,,,,,,,,,,419.0121743000054,420.0250928000023,420.008580099995,420.57655619998695,420.57655619998695,None,422.46125120000215,None,left,0.6618828999926336,422.46125120000215,None,423.14470549998805,None,left,0.33078370001749136,423.14470549998805,None,,,,,,,,,,,,,,,,,,,,,,,PPT23,001,2022-07-01_14h29.26.291,ABstudy,2022.1.4,59.92236457578735,
AB,Lag1_T1P_T2P,1,P,P,6,7,5,3,10,cupcake,Did you see the cupcake?,0.12,0.016,JPG\,printer02,leaf02a,cauliflower01,sock01a,brownsugar,cupcake,stapler01,orange,belt02a,shirt02,blankImage,blankImage,blankImage,blankImage,blankImage,blankImage,blankImage,cupcake,,,,,,,,,,,,0,55,55,38,,,,,,,,,,,,,,,,,,,,,,,,,,,,,,,,,,,423.50116670000716,424.5128982999886,424.4963563999918,425.0718216999958,425.0718216999958,None,426.3508215000038,None,left,0.7578159999975469,426.3508215000038,None,427.1324508000107,None,right,0.41510300000663847,427.1324508000107,None,,,,,,,,,,,,,,,,,,,,,,,PPT23,001,2022-07-01_14h29.26.291,ABstudy,2022.1.4,59.92236457578735,
AB,Lag1_T1P_T2P,1,P,P,8,9,7,4,13,bowling ball,Did you see the bowling ball?,0.12,0.016,JPG\,dandelion,pineapple01a,broom01,pen04b,sock01a,sandal,foosballtable,bowlingball,stapler01,toothbrush03b,celery,candle08b,tennisball01b,blankImage,blankImage,blankImage,blankImage,bowlingball,,,,,,,,,,,,0,56,56,7,,,,,,,,,,,,,,,,,,,,,,,,,,,,,,,,,,,427.625073800009,428.6334876999899,428.6001322999946,429.10289119998924,429.10289119998924,None,430.72573599999305,None,left,0.7897414000181016,430.72573599999305,None,431.5363950000028,None,right,0.38712490000762045,431.5363950000028,None,,,,,,,,,,,,,,,,,,,,,,,PPT23,001,2022-07-01_14h29.26.291,ABstudy,2022.1.4,59.92236457578735,
AB,Lag5_T1P_T2A,5,P,A,7,12,6,5,17,shoulder,Did you see the shoulder?,0.12,0.016,JPG\,battery02b,sunglasses04,pear01,tennisball01b,clock01a,speaker04,shoulder,spoon01,alligator,pineapple01a,avocado01,grape01,blueberry01,violin,strawberry,sock01a,blankImage,shoulder,,,,,,,,,,,,0,57,57,224,,,,,,,,,,,,,,,,,,,,,,,,,,,,,,,,,,,431.9556822000013,432.9711557000119,432.93772240000544,433.5295821999898,433.5295821999898,None,435.57674220000627,None,left,0.7311402999912389,435.57674220000627,None,436.32802529999753,None,right,0.3472639999818057,436.32802529999753,None,,,,,,,,,,,,,,,,,,,,,,,PPT23,001,2022-07-01_14h29.26.291,ABstudy,2022.1.4,59.92236457578735,
AB,Lag1_T1P_T2A,1,P,A,5,6,4,4,10,flower,Did you see the flower?,0.12,0.016,JPG\,broom01,globe,cellphone,tableknife02,daffodil,scissors01,ring01,alligator,rice,toaster01,blankImage,blankImage,blankImage,blankImage,blankImage,blankImage,blankImage,daffodil,,,,,,,,,,,,0,58,58,184,,,,,,,,,,,,,,,,,,,,,,,,,,,,,,,,,,,436.69784919999074,437.7091703999904,437.69269769999664,438.25927109998884,438.25927109998884,None,439.488008299988,None,left,0.627466900012223,439.488008299988,None,440.14785519998986,None,right,0.3677689000032842,440.14785519998986,None,,,,,,,,,,,,,,,,,,,,,,,PPT23,001,2022-07-01_14h29.26.291,ABstudy,2022.1.4,59.92236457578735,
AB,Lag1_T1P_T2P,1,P,P,7,8,6,3,11,Daddy Long Legs,Did you see the Daddy Long Legs?,0.12,0.016,JPG\,lighter01,hammer01,spoon01,chain01,cymbal,sponge01,daddylonglegs,stapler03b,pig,watermelon01,cauliflower01,blankImage,blankImage,blankImage,blankImage,blankImage,blankImage,daddylonglegs,,,,,,,,,,,,0,59,59,86,,,,,,,,,,,,,,,,,,,,,,,,,,,,,,,,,,,440.5512626999989,441.56300460000057,441.5462688000116,442.16682059998857,442.16682059998857,None,443.49736139999004,None,left,0.642159899987746,443.49736139999004,None,444.1656418000057,None,right,0.3176765000098385,444.1656418000057,None,,,,,,,,,,,,,,,,,,,,,,,PPT23,001,2022-07-01_14h29.26.291,ABstudy,2022.1.4,59.92236457578735,
AB,Lag5_T1P_T2P,5,P,P,8,13,7,4,17,cruise ship,Did you see the cruise ship?,0.12,0.016,JPG\,measuringcup01,dice05a,greenolive,lipstick02a,feather03a,balloon01b,lighter01,cruiseship,carrot01,plate01b,microscope,brick,stapler05,screw02,speaker04,spoon01,blankImage,cruiseship,,,,,,,,,,,,0,60,60,105,,,,,,,,,,,,,,,,,,,,,,,,,,,,,,,,,,,444.51986440000474,445.53363510000054,445.5169945000089,446.10121930000605,446.10121930000605,None,448.03437430001213,None,left,0.6567627000040375,448.03437430001213,None,448.72073510001064,None,right,0.43538479998824187,448.72073510001064,None,,,,,,,,,,,,,,,,,,,,,,,PPT23,001,2022-07-01_14h29.26.291,ABstudy,2022.1.4,59.92236457578735,
AB,Lag1_T1A_T2P,1,A,P,8,9,7,5,14,clock,Did you see the clock?,0.12,0.016,JPG\,speaker04,sewingmachine01a,eraser,violin,globe,belt02a,sunglasses04,cymbal,stapler01,greenolive,alligator,pear01,watch02a,screwdriver04b,blankImage,blankImage,blankImage,peacock,,,,,,,,,,,,0,61,61,240,,,,,,,,,,,,,,,,,,,,,,,,,,,,,,,,,,,449.2367854999902,450.23838409999735,450.22171260000323,450.81152809999185,450.81152809999185,None,452.47023549998994,None,right,0.7249340999987908,452.47023549998994,None,453.2252107000095,None,left,0.43421229999512434,453.2252107000095,None,,,,,,,,,,,,,,,,,,,,,,,PPT23,001,2022-07-01_14h29.26.291,ABstudy,2022.1.4,59.92236457578735,
AB,Lag5_T1P_T2P,5,P,P,8,13,7,5,18,popcorn,Did you see the popcorn?,0.12,0.016,JPG\,toaster01,garlic01a,hairclip03,fan,comb02a,apple07,orange,popcorn,onion,blueberry01,toiletpaper01a,fork03c,stapler06,pineapple01a,scarf,eraser,blankImage,popcorn,,,,,,,,,,,,0,62,62,155,,,,,,,,,,,,,,,,,,,,,,,,,,,,,,,,,,,453.6976309999882,454.7097395999881,454.69291420001537,455.2959356000065,455.2959356000065,None,457.29930280000553,None,left,0.7119687999947928,457.29930280000553,None,458.02978290000465,None,left,0.293459200009238,458.02978290000465,None,,,,,,,,,,,,,,,,,,,,,,,PPT23,001,2022-07-01_14h29.26.291,ABstudy,2022.1.4,59.92236457578735,
AB,Lag5_T1P_T2A,5,P,A,5,10,4,4,14,Ship in a bottle,Did you see the Ship in a bottle?,0.12,0.016,JPG\,sewingmachine01a,thermometer02b,sponge01,eraser,shipinabottle,fork03c,pizza,violin,belt02a,medal02b,pineapple01a,tennisball01b,dandelion,cauliflower01,blankImage,blankImage,blankImage,shipinabottle,,,,,,,,,,,,0,63,63,208,,,,,,,,,,,,,,,,,,,,,,,,,,,,,,,,,,,458.35471260000486,459.36426760000177,459.3475560999941,459.94400920000044,459.94400920000044,None,461.65327040001284,None,left,0.6621961999917403,461.65327040001284,None,462.33382430000347,None,right,0.38921329998993315,462.33382430000347,None,,,,,,,,,,,,,,,,,,,,,,,PPT23,001,2022-07-01_14h29.26.291,ABstudy,2022.1.4,59.92236457578735,
AB,Lag5_T1P_T2A,5,P,A,8,13,7,4,17,fountain,Did you see the fountain?,0.12,0.016,JPG\,printer02,envelope03a,potato02b,calculator01,tableknife02,cigarette,ashtray01,parkfountain,broom01,greenolive,candle08b,battery02b,strawberry,candle01,foosballtable,tennisball01b,blankImage,parkfountain,,,,,,,,,,,,0,64,64,219,,,,,,,,,,,,,,,,,,,,,,,,,,,,,,,,,,,462.7571760000137,463.7686010999896,463.7519347000052,464.37451039999723,464.37451039999723,None,466.32167120001395,None,left,0.6575572000001557,466.32167120001395,None,467.0050770000089,None,right,0.3430761000199709,467.0050770000089,None,,,,,,,,,,,,,,,,,,,,,,,PPT23,001,2022-07-01_14h29.26.291,ABstudy,2022.1.4,59.92236457578735,
AB,Lag1_T1A_T2P,1,A,P,8,9,7,4,13,nose,Did you see the nose?,0.12,0.016,JPG\,pizza,strawberry,potato02b,speaker04,battery02b,iron01b,dice05a,cellphone,stapler06,banana01,medal02b,baseball01a,toaster01,blankImage,blankImage,blankImage,blankImage,cow,,,,,,,,,,,,0,65,65,231,,,,,,,,,,,,,,,,,,,,,,,,,,,,,,,,,,,467.37433779999265,468.38975550001487,468.3564309999929,468.946537300013,468.946537300013,None,470.5140362000093,None,right,1.0729902000166476,470.5140362000093,None,471.6097710999893,None,left,0.3772694999934174,471.6097710999893,None,,,,,,,,,,,,,,,,,,,,,,,PPT23,001,2022-07-01_14h29.26.291,ABstudy,2022.1.4,59.92236457578735,
AB,Lag5_T1P_T2P,5,P,P,6,11,5,4,15,fish,Did you see the fish?,0.12,0.016,JPG\,sock01a,spoon01,alligator,comb02a,printer02,rockbass,lamp04a,cymbal,greenolive,computerkeyboard02,stapler03a,scarf,teabag,watermelon01,battery02b,blankImage,blankImage,rockbass,,,,,,,,,,,,0,66,66,115,,,,,,,,,,,,,,,,,,,,,,,,,,,,,,,,,,,472.0149192000099,473.0283141999971,473.01273519999813,473.60559620001004,473.60559620001004,None,475.4357890000101,None,left,0.8791991999896709,475.4357890000101,None,476.3341677999997,None,right,0.43692780000856146,476.3341677999997,None,,,,,,,,,,,,,,,,,,,,,,,PPT23,001,2022-07-01_14h29.26.291,ABstudy,2022.1.4,59.92236457578735,
AB,Lag1_T1P_T2P,1,P,P,8,9,7,3,12,bridge,Did you see the bridge?,0.12,0.016,JPG\,speaker04,sewingmachine01a,eraser,violin,globe,belt02a,sunglasses04,bridge,stapler01,greenolive,alligator,pear01,blankImage,blankImage,blankImage,blankImage,blankImage,bridge,,,,,,,,,,,,0,67,67,78,,,,,,,,,,,,,,,,,,,,,,,,,,,,,,,,,,,476.8111776000005,477.81673759999103,477.8013077999931,478.48705269998754,478.40690319999703,None,479.8697204999917,None,left,0.7815910000063013,479.8697204999917,None,480.6692389000091,None,left,0.22228819999145344,480.6692389000091,None,,,,,,,,,,,,,,,,,,,,,,,PPT23,001,2022-07-01_14h29.26.291,ABstudy,2022.1.4,59.92236457578735,
AB,Lag5_T1A_T2A,5,A,A,5,10,4,5,15,sword,Did you see the sword?,0.12,0.016,JPG\,pencil01,broccoli01a,button01,sponge01,watermelon01,lipstick02a,comb02a,fan,lighter01,sock01a,spoon01,blueberry01,belt02a,onion,grape01,blankImage,blankImage,parachute,,,,,,,,,,,,0,68,68,298,,,,,,,,,,,,,,,,,,,,,,,,,,,,,,,,,,,480.9721043999889,481.98691070001223,481.97006910000346,482.55000260000816,482.55000260000816,None,484.33401759999106,None,right,0.8686658999940846,484.33401759999106,None,485.2231374999974,None,right,0.3406832999899052,485.2231374999974,None,,,,,,,,,,,,,,,,,,,,,,,PPT23,001,2022-07-01_14h29.26.291,ABstudy,2022.1.4,59.92236457578735,
AB,Lag5_T1P_T2P,5,P,P,7,12,6,4,16,Wolf,Did you see the Wolf?,0.12,0.016,JPG\,brick,eraser,cucumber,ashtray01,thermometer02b,binoculars01b,greywolf,screwdriver04b,grape01,brownsugar,battery02b,stapler03b,dice05a,avocado01,birthdaycandle,watch02a,blankImage,greywolf,,,,,,,,,,,,0,69,69,89,,,,,,,,,,,,,,,,,,,,,,,,,,,,,,,,,,,485.5924731999985,486.607885800011,486.57450419999077,487.15694610000355,487.15694610000355,None,489.18332219999866,None,right,0.8999040999915451,489.18332219999866,None,490.11135590000777,None,right,0.6199138000083622,490.11135590000777,None,,,,,,,,,,,,,,,,,,,,,,,PPT23,001,2022-07-01_14h29.26.291,ABstudy,2022.1.4,59.92236457578735,
AB,Lag1_T1P_T2P,1,P,P,7,8,6,5,13,tiger,Did you see the tiger?,0.12,0.016,JPG\,globe,broccoli01a,binoculars01b,iron01b,avocado01,dandelion,tiger02,stapler03b,fan,pizza,celery,blueberry01,sewingmachine01a,blankImage,blankImage,blankImage,blankImage,tiger02,,,,,,,,,,,,0,70,70,50,,,,,,,,,,,,,,,,,,,,,,,,,,,,,,,,,,,490.76426419999916,491.779689899995,491.74628530000336,492.3407082000049,492.3407082000049,None,493.9111916999973,None,left,0.7073913000058383,493.9111916999973,None,494.6495004000026,None,right,0.44118039999739267,494.6495004000026,None,,,,,,,,,,,,,,,,,,,,,,,PPT23,001,2022-07-01_14h29.26.291,ABstudy,2022.1.4,59.92236457578735,
AB,Lag1_T1A_T2P,1,A,P,6,7,5,5,12,Piano,Did you see the Piano?,0.12,0.016,JPG\,toiletpaper01a,mushroom01,medal02b,sandal,rice,cd,stapler01,pizza,candle08b,garlic01a,toaster01,belt02a,blankImage,blankImage,blankImage,blankImage,blankImage,moose,,,,,,,,,,,,0,71,71,239,,,,,,,,,,,,,,,,,,,,,,,,,,,,,,,,,,,495.121481899987,496.1342207000125,496.1174796000123,496.7238500000094,496.7238500000094,None,498.2412845999934,None,right,1.4260287000215612,498.2412845999934,None,499.68793949999963,None,left,0.44353079999564216,499.68793949999963,None,,,,,,,,,,,,,,,,,,,,,,,PPT23,001,2022-07-01_14h29.26.291,ABstudy,2022.1.4,59.92236457578735,
AB,Lag1_T1P_T2P,1,P,P,8,9,7,4,13,Hula hoop,Did you see the Hula hoop?,0.12,0.016,JPG\,brownsugar,candle01,match,printer02,broom01,balloon01b,belt02a,hulahoop,stapler04b,feather03a,rice,mushroom01,pencil01,blankImage,blankImage,blankImage,blankImage,hulahoop,,,,,,,,,,,,0,72,72,64,,,,,,,,,,,,,,,,,,,,,,,,,,,,,,,,,,,500.1631376000005,501.1723733000108,501.1558384000091,501.6575615000038,501.6575615000038,None,503.3377783999895,None,left,0.6173315999913029,503.3377783999895,None,503.9751396999927,None,right,0.3956942000077106,503.9751396999927,None,,,,,,,,,,,,,,,,,,,,,,,PPT23,001,2022-07-01_14h29.26.291,ABstudy,2022.1.4,59.92236457578735,
AB,Lag5_T1A_T2A,5,A,A,5,10,4,5,15,window,Did you see the window?,0.12,0.016,JPG\,leaf02a,apple07,cd,pineapple01a,envelope03a,paintbrush01,pig,canoftennisballs,rice,feather03a,lemon02,balloon01b,avocado01,calculator01,watermelon01,blankImage,blankImage,saxophone,,,,,,,,,,,,0,73,73,301,,,,,,,,,,,,,,,,,,,,,,,,,,,,,,,,,,,504.3947140999953,505.4098892000038,505.37657500000205,505.9499719000014,505.9499719000014,None,507.84925870000734,None,right,0.6975528000039048,507.84925870000734,None,508.5635703000007,None,right,0.367137699999148,508.5635703000007,None,,,,,,,,,,,,,,,,,,,,,,,PPT23,001,2022-07-01_14h29.26.291,ABstudy,2022.1.4,59.92236457578735,
AB,Lag5_T1P_T2P,5,P,P,7,12,6,3,15,marble,Did you see the marble?,0.12,0.016,JPG\,cigarette,ashtray01,envelope03a,sandal,chain01,cucumber,marble,tomato01,dandelion,candle01,lemon02,stapler03b,potato02b,cymbal,clock01a,blankImage,blankImage,marble,,,,,,,,,,,,0,74,74,146,,,,,,,,,,,,,,,,,,,,,,,,,,,,,,,,,,,508.95388859999366,509.96463900001254,509.94794310000725,510.53599720000057,510.53599720000057,None,512.4482514999982,None,right,3.0666523999825586,512.4482514999982,None,515.5367244000081,None,right,0.46624530002009124,515.5367244000081,None,,,,,,,,,,,,,,,,,,,,,,,PPT23,001,2022-07-01_14h29.26.291,ABstudy,2022.1.4,59.92236457578735,
AB,Lag1_T1A_T2A,1,A,A,6,7,5,5,12,flamingo,Did you see the flamingo?,0.12,0.016,JPG\,chain01,pen04b,birthdaycandle,watermelon01,broom01,scissors01,measuringcup01,candle01,hammer01,calculator01,ashtray01,feather03a,blankImage,blankImage,blankImage,blankImage,blankImage,witchhat,,,,,,,,,,,,0,75,75,288,,,,,,,,,,,,,,,,,,,,,,,,,,,,,,,,,,,516.0220001999987,517.0217092999956,517.0051617000136,517.5932730000059,517.5932730000059,None,519.039694200008,None,right,0.8036263999820221,519.039694200008,None,519.8743260999909,None,right,0.449889700015774,519.8743260999909,None,,,,,,,,,,,,,,,,,,,,,,,PPT23,001,2022-07-01_14h29.26.291,ABstudy,2022.1.4,59.92236457578735,
AB,Lag1_T1P_T2P,1,P,P,5,6,4,3,9,dolphin,Did you see the dolphin?,0.12,0.016,JPG\,pig,belt02a,rice,screwdriver04b,dolphin01,stapler05,candle08b,pear01,feather03a,blankImage,blankImage,blankImage,blankImage,blankImage,blankImage,blankImage,blankImage,dolphin01,,,,,,,,,,,,0,76,76,10,,,,,,,,,,,,,,,,,,,,,,,,,,,,,,,,,,,520.3455036999949,521.3591982999933,521.3424725999939,521.8449767999991,521.8286025999987,None,522.9894501999952,None,left,0.861969899997348,522.9894501999952,None,523.8787085000076,None,left,0.2525178999931086,523.8787085000076,None,,,,,,,,,,,,,,,,,,,,,,,PPT23,001,2022-07-01_14h29.26.291,ABstudy,2022.1.4,59.92236457578735,
AB,Lag1_T1P_T2A,1,P,A,5,6,4,5,11,Moon,Did you see the Moon?,0.12,0.016,JPG\,lamp04a,broccoli01a,alligator,garlic01a,moon,brownsugar,avocado01,ring01,leaf02a,cellphone,medal02b,blankImage,blankImage,blankImage,blankImage,blankImage,blankImage,moon,,,,,,,,,,,,0,77,77,190,,,,,,,,,,,,,,,,,,,,,,,,,,,,,,,,,,,524.1650644000038,525.17980849999,525.14636839999,525.7241556000081,525.7241556000081,None,527.0775933999976,None,right,0.6613710999954492,527.0775933999976,None,527.7654760000005,None,right,0.33327980001922697,527.7654760000005,None,,,,,,,,,,,,,,,,,,,,,,,PPT23,001,2022-07-01_14h29.26.291,ABstudy,2022.1.4,59.92236457578735,
AB,Lag5_T1P_T2P,5,P,P,8,13,7,4,17,lamp,Did you see the lamp?,0.12,0.016,JPG\,globe,broccoli01a,binoculars01b,iron01b,avocado01,dandelion,pineapple01a,floorlamp,fan,pizza,celery,blueberry01,stapler01,dice05a,watermelon01,candy,blankImage,floorlamp,,,,,,,,,,,,0,78,78,99,,,,,,,,,,,,,,,,,,,,,,,,,,,,,,,,,,,528.1184200000134,529.1336076000007,529.100414799992,529.687177499989,529.687177499989,None,531.6497606000048,None,left,0.6567542999982834,531.6497606000048,None,532.3367858999991,None,left,0.3546265000186395,532.3367858999991,None,,,,,,,,,,,,,,,,,,,,,,,PPT23,001,2022-07-01_14h29.26.291,ABstudy,2022.1.4,59.92236457578735,
AB,Lag1_T1A_T2P,1,A,P,5,6,4,3,9,barrel,Did you see the barrel?,0.12,0.016,JPG\,clock01a,cellphone,toaster01,toothbrush03b,cauliflower01,stapler01,comb02a,paintbrush01,scarf,blankImage,blankImage,blankImage,blankImage,blankImage,blankImage,blankImage,blankImage,sheep,,,,,,,,,,,,0,79,79,243,,,,,,,,,,,,,,,,,,,,,,,,,,,,,,,,,,,532.7267470000079,533.7388115999929,533.7234301000135,534.3190908000106,534.3190908000106,None,535.4141185999906,None,right,0.8609101999900304,535.4141185999906,None,536.3076069999952,None,right,0.3833310000190977,536.3076069999952,None,,,,,,,,,,,,,,,,,,,,,,,PPT23,001,2022-07-01_14h29.26.291,ABstudy,2022.1.4,59.92236457578735,
AB,Lag1_T1P_T2A,1,P,A,8,9,7,4,13,boat,Did you see the boat?,0.12,0.016,JPG\,fork03c,dandelion,dice05a,belt02a,onion,watch02a,key01,boat,eraser,medal02b,greenolive,shirt02,candle08b,blankImage,blankImage,blankImage,blankImage,boat,,,,,,,,,,,,0,80,80,199,,,,,,,,,,,,,,,,,,,,,,,,,,,,,,,,,,,536.7129569000099,537.7255561999918,537.7090057999885,538.290665700013,538.290665700013,None,539.8999846999941,None,left,0.6630109999969136,539.8999846999941,None,540.5951970999886,None,right,0.3117160999972839,540.5951970999886,None,,,,,,,,,,,,,,,,,,,,,,,PPT23,001,2022-07-01_14h29.26.291,ABstudy,2022.1.4,59.92236457578735,
AB,Lag1_T1P_T2P,1,P,P,8,9,7,4,13,mattress,Did you see the mattress?,0.12,0.016,JPG\,button01,celery,birthdaycandle,apple07,avocado01,tennisball01b,dice05a,mattress,stapler01,feather03a,tomato01,scarf,orange,blankImage,blankImage,blankImage,blankImage,mattress,,,,,,,,,,,,0,81,81,22,,,,,,,,,,,,,,,,,,,,,,,,,,,,,,,,,,,540.9323098000023,541.9465353999985,541.9297299000027,542.6280509000062,542.5452637000126,None,544.0879166999948,None,left,0.6109143000212498,544.0879166999948,None,544.7157109999971,None,left,0.3030346000159625,544.7157109999971,None,,,,,,,,,,,,,,,,,,,,,,,PPT23,001,2022-07-01_14h29.26.291,ABstudy,2022.1.4,59.92236457578735,
AB,Lag5_T1P_T2P,5,P,P,7,12,6,4,16,flower,Did you see the flower?,0.12,0.016,JPG\,cucumber,sponge01,alligator,pear01,ashtray01,hammer01,hibiscusflower02,battery02b,fork03c,binoculars01b,mushroom01,stapler01,leaf02a,acorn,comb02a,screwdriver04b,blankImage,hibiscusflower02,,,,,,,,,,,,0,82,82,132,,,,,,,,,,,,,,,,,,,,,,,,,,,,,,,,,,,545.0516233000089,546.0670186000061,546.0336976000108,546.6171002000046,546.6171002000046,None,548.6021880999906,None,left,0.6491809000144713,548.6021880999906,None,549.2847019000037,None,right,0.6943783000169788,549.2847019000037,None,,,,,,,,,,,,,,,,,,,,,,,PPT23,001,2022-07-01_14h29.26.291,ABstudy,2022.1.4,59.92236457578735,
AB,Lag5_T1P_T2P,5,P,P,6,11,5,3,14,Poker chips,Did you see the Poker chips?,0.12,0.016,JPG\,iron01b,brick,broccoli01a,balloon01b,tomato01,pokerchips,sandal,teabag,scissors01,pineapple01a,stapler04b,measuringcup01,sock01a,book01b,blankImage,blankImage,blankImage,pokerchips,,,,,,,,,,,,0,83,83,154,,,,,,,,,,,,,,,,,,,,,,,,,,,,,,,,,,,550.0121019000071,551.0223582999897,551.0056091999868,551.5737257000001,551.5737257000001,None,553.3540802999923,None,left,0.5855309999897145,553.3540802999923,None,553.9594166000024,None,right,0.5071599000075366,553.9594166000024,None,,,,,,,,,,,,,,,,,,,,,,,PPT23,001,2022-07-01_14h29.26.291,ABstudy,2022.1.4,59.92236457578735,
AB,Lag5_T1P_T2A,5,P,A,8,13,7,3,16,Shelves,Did you see the Shelves?,0.12,0.016,JPG\,pineapple01a,leaf02a,grape01,toiletpaper01a,match,tennisball01b,spoon01,shelves,pig,measuringcup01,ring01,lemon02,dice05a,pizza,potato02b,eraser,blankImage,shelves,,,,,,,,,,,,0,84,84,222,,,,,,,,,,,,,,,,,,,,,,,,,,,,,,,,,,,554.4996159000148,555.5100788999989,555.4935469999909,556.0931028999912,556.0931028999912,None,558.0270934000146,None,left,0.6402031000179704,558.0270934000146,None,558.696663700015,None,right,0.3544941000000108,558.696663700015,None,,,,,,,,,,,,,,,,,,,,,,,PPT23,001,2022-07-01_14h29.26.291,ABstudy,2022.1.4,59.92236457578735,
AB,Lag5_T1P_T2P,5,P,P,8,13,7,3,16,banjo,Did you see the banjo?,0.12,0.016,JPG\,celery,brownsugar,key01,sunglasses04,leaf02a,toothbrush03b,dice05a,banjo,scarf,globe,paintbrush01,scissors01,stapler03a,battery02b,feather03a,cymbal,blankImage,banjo,,,,,,,,,,,,0,85,85,102,,,,,,,,,,,,,,,,,,,,,,,,,,,,,,,,,,,559.0897255000018,560.0978441000043,560.0811657999875,560.6725219000073,560.6725219000073,None,562.5235376000055,None,left,0.5365195999911521,562.5235376000055,None,563.0840071999992,None,left,0.27880000000004657,563.0840071999992,None,,,,,,,,,,,,,,,,,,,,,,,PPT23,001,2022-07-01_14h29.26.291,ABstudy,2022.1.4,59.92236457578735,
AB,Lag1_T1P_T2A,1,P,A,7,8,6,4,12,gate,Did you see the gate?,0.12,0.016,JPG\,pen04b,speaker04,lighter01,cherry01,pintofbeer,onion,entrancegate,toothbrush03b,broom01,sewingmachine01a,book01b,iron01b,blankImage,blankImage,blankImage,blankImage,blankImage,entrancegate,,,,,,,,,,,,0,86,86,187,,,,,,,,,,,,,,,,,,,,,,,,,,,,,,,,,,,563.3865438000066,564.4019296999904,564.3686375000107,564.9440349999932,564.9440349999932,None,566.397855999996,None,left,0.7337384000129532,566.397855999996,None,567.1546578000125,None,right,0.3517598000180442,567.1546578000125,None,,,,,,,,,,,,,,,,,,,,,,,PPT23,001,2022-07-01_14h29.26.291,ABstudy,2022.1.4,59.92236457578735,
AB,Lag1_T1P_T2P,1,P,P,8,9,7,3,12,snow globe,Did you see the Snow globe?,0.12,0.016,JPG\,eraser,measuringcup01,chain01,birthdaycandle,ring01,rice,8ball,stapler04b,stapler01,celery,microscope,sunglasses04,blankImage,blankImage,blankImage,blankImage,blankImage,snowglobe,,,,,,,,,,,,0,87,87,56,,,,,,,,,,,,,,,,,,,,,,,,,,,,,,,,,,,567.5416628000094,568.5561250000028,568.5394627999922,569.1729713999957,569.0974376999948,None,570.5691661000019,None,right,0.8497452999872621,570.5691661000019,None,571.4429338999907,None,left,0.3040225000004284,571.4429338999907,None,,,,,,,,,,,,,,,,,,,,,,,PPT23,001,2022-07-01_14h29.26.291,ABstudy,2022.1.4,59.92236457578735,
AB,Lag1_T1P_T2P,1,P,P,7,8,6,3,11,Sand castle,Did you see the Sand castle?,0.12,0.016,JPG\,thermometer02b,candle08b,comb02a,toothbrush03b,brick,computerkeyboard02,sandcastle,stapler06,candy,birthdaycandle,clock04,blankImage,blankImage,blankImage,blankImage,blankImage,blankImage,sandcastle,,,,,,,,,,,,0,88,88,70,,,,,,,,,,,,,,,,,,,,,,,,,,,,,,,,,,,571.7831067999941,572.7938336000079,572.777145,573.3649496000144,573.3649496000144,None,574.7299299000006,None,right,0.8731479000125546,574.7299299000006,None,575.630244800006,None,left,0.24421120001352392,575.630244800006,None,,,,,,,,,,,,,,,,,,,,,,,PPT23,001,2022-07-01_14h29.26.291,ABstudy,2022.1.4,59.92236457578735,
AB,Lag1_T1P_T2P,1,P,P,8,9,7,3,12,apron,Did you see the apron?,0.12,0.016,JPG\,avocado01,tambourine02,match,cauliflower01,paintbrush01,clock01a,pig,apron,stapler03a,cellphone,watch02a,pear01,blankImage,blankImage,blankImage,blankImage,blankImage,apron,,,,,,,,,,,,0,89,89,32,,,,,,,,,,,,,,,,,,,,,,,,,,,,,,,,,,,575.9022888999898,576.9151027000044,576.8997696000151,577.5103658000007,577.5103658000007,None,578.9143648000027,None,left,0.8399513000040315,578.9143648000027,None,579.784638400015,None,left,0.25083090001135133,579.784638400015,None,,,,,,,,,,,,,,,,,,,,,,,PPT23,001,2022-07-01_14h29.26.291,ABstudy,2022.1.4,59.92236457578735,
AB,Lag1_T1A_T2P,1,A,P,8,9,7,4,13,Christmas tree,Did you see the Christmas tree?,0.12,0.016,JPG\,broom01,globe,cellphone,tableknife02,cauliflower01,scissors01,ring01,alligator,stapler03a,toaster01,cigarette,grape01,microscope,blankImage,blankImage,blankImage,blankImage,windmill,,,,,,,,,,,,0,90,90,247,,,,,,,,,,,,,,,,,,,,,,,,,,,,,,,,,,,580.080263699987,581.0855688999873,581.0687901999918,581.6300121000095,581.6300121000095,None,583.2105022000032,None,right,0.639808699983405,583.2105022000032,None,583.8717753000092,None,left,0.2665700000070501,583.8717753000092,None,,,,,,,,,,,,,,,,,,,,,,,PPT23,001,2022-07-01_14h29.26.291,ABstudy,2022.1.4,59.92236457578735,
AB,Lag1_T1A_T2P,1,A,P,5,6,4,4,10,Bull,Did you see the Bull?,0.12,0.016,JPG\,celery,pencil01,fan,foosballtable,iron01b,stapler01,potato02b,fork03c,button01,pineapple01a,blankImage,blankImage,blankImage,blankImage,blankImage,blankImage,blankImage,spiderweb,,,,,,,,,,,,0,91,91,244,,,,,,,,,,,,,,,,,,,,,,,,,,,,,,,,,,,584.2059317000094,585.2062655999907,585.1894821999886,585.7855586000078,585.7855586000078,None,586.9674684999918,None,right,0.6113312000234146,586.9674684999918,None,587.6089179000119,None,left,0.28305250001722015,587.6089179000119,None,,,,,,,,,,,,,,,,,,,,,,,PPT23,001,2022-07-01_14h29.26.291,ABstudy,2022.1.4,59.92236457578735,
AB,Lag5_T1P_T2A,5,P,A,5,10,4,3,13,Totem Pole,Did you see the Totem Pole?,0.12,0.016,JPG\,canoftennisballs,banana01,scissors01,pig,totempole,leaf02a,pear01,sponge01,fork03c,tableknife02,balloon01b,match,toothbrush03b,blankImage,blankImage,blankImage,blankImage,totempole,,,,,,,,,,,,0,92,92,202,,,,,,,,,,,,,,,,,,,,,,,,,,,,,,,,,,,587.9184982999868,588.9267218000023,588.9101129999908,589.4868306000135,589.4868306000135,None,591.141121099994,None,right,0.6297546999994665,591.141121099994,None,591.7957689999894,None,right,1.0225856000033673,591.7957689999894,None,,,,,,,,,,,,,,,,,,,,,,,PPT23,001,2022-07-01_14h29.26.291,ABstudy,2022.1.4,59.92236457578735,
AB,Lag5_T1P_T2P,5,P,P,6,11,5,5,16,microwave,Did you see the microwave?,0.12,0.016,JPG\,pen04b,speaker04,lighter01,cherry01,weight04a,microwave,sock01a,toothbrush03b,broom01,sewingmachine01a,stapler06,iron01b,clock01a,sandal,cd,blueberry01,blankImage,microwave,,,,,,,,,,,,0,93,93,136,,,,,,,,,,,,,,,,,,,,,,,,,,,,,,,,,,,592.8495108000061,593.8646028999938,593.8312364000012,594.3848615000024,594.3848615000024,None,596.3434152000118,None,left,0.5556658999994397,596.3434152000118,None,596.9321327999933,None,left,0.27076700000907294,596.9321327999933,None,,,,,,,,,,,,,,,,,,,,,,,PPT23,001,2022-07-01_14h29.26.291,ABstudy,2022.1.4,59.92236457578735,
AB,Lag1_T1P_T2P,1,P,P,5,6,4,3,9,camel,Did you see the camel?,0.12,0.016,JPG\,iron01b,brick,broccoli01a,balloon01b,dromedary,stapler05,sandal,teabag,scissors01,blankImage,blankImage,blankImage,blankImage,blankImage,blankImage,blankImage,blankImage,dromedary,,,,,,,,,,,,0,94,94,11,,,,,,,,,,,,,,,,,,,,,,,,,,,,,,,,,,,597.2424403000041,598.2523789000115,598.2356591999996,598.8201281999936,598.8201281999936,None,599.9891460000072,None,left,1.03794390000985,599.9891460000072,None,601.0554808999877,None,right,0.5078378000180237,601.0554808999877,None,,,,,,,,,,,,,,,,,,,,,,,PPT23,001,2022-07-01_14h29.26.291,ABstudy,2022.1.4,59.92236457578735,
AB,Lag1_T1P_T2A,1,P,A,7,8,6,4,12,Steering wheel,Did you see the Steering wheel?,0.12,0.016,JPG\,alligator,banana01,apple07,tomato01,button01,spoon01,steeringwheel,fork03c,canoftennisballs,potato02b,grape01,leaf02a,blankImage,blankImage,blankImage,blankImage,blankImage,steeringwheel,,,,,,,,,,,,0,95,95,198,,,,,,,,,,,,,,,,,,,,,,,,,,,,,,,,,,,601.5960733999964,602.6068718000024,602.5901770000055,603.0921698999882,603.0921698999882,None,604.6686930000142,None,left,0.67117529999814,604.6686930000142,None,605.3621934000112,None,right,0.3448952000180725,605.3621934000112,None,,,,,,,,,,,,,,,,,,,,,,,PPT23,001,2022-07-01_14h29.26.291,ABstudy,2022.1.4,59.92236457578735,
AB,Lag1_T1P_T2P,1,P,P,7,8,6,4,12,rooster,Did you see the rooster?,0.12,0.016,JPG\,pizza,strawberry,potato02b,speaker04,battery02b,iron01b,rooster,stapler03b,globe,banana01,medal02b,baseball01a,blankImage,blankImage,blankImage,blankImage,blankImage,rooster,,,,,,,,,,,,0,96,96,69,,,,,,,,,,,,,,,,,,,,,,,,,,,,,,,,,,,605.7289450000098,606.7443966999999,606.7110987000051,607.2970033999882,607.2970033999882,None,608.7455237999966,None,left,0.6967794999945909,608.7455237999966,None,609.46431879999,None,right,0.3307144000136759,609.46431879999,None,,,,,,,,,,,,,,,,,,,,,,,PPT23,001,2022-07-01_14h29.26.291,ABstudy,2022.1.4,59.92236457578735,
AB,Lag1_T1P_T2A,1,P,A,6,7,5,5,12,Tombstone,Did you see the Tombstone?,0.12,0.016,JPG\,cigarette,ashtray01,envelope03a,sandal,chain01,tombstone,broccoli01a,tomato01,dandelion,candle01,lemon02,button01,blankImage,blankImage,blankImage,blankImage,blankImage,tombstone,,,,,,,,,,,,0,97,97,196,,,,,,,,,,,,,,,,,,,,,,,,,,,,,,,,,,,609.8202108000114,610.8318002999877,610.81505070001,611.3963564000151,611.3963564000151,None,612.8896339999919,None,left,0.7941766000003554,612.8896339999919,None,613.7010730000038,None,right,0.4538948000117671,613.7010730000038,None,,,,,,,,,,,,,,,,,,,,,,,PPT23,001,2022-07-01_14h29.26.291,ABstudy,2022.1.4,59.92236457578735,
AB,Lag5_T1P_T2P,5,P,P,5,10,4,5,15,Ipad,Did you see the Ipad?,0.12,0.016,JPG\,fork03c,toothbrush03b,cellphone,fan,ipad02,clock01a,ring01,eraser,sunglasses04,stapler06,violin,brownsugar,blueberry01,pear01,pencil01,blankImage,blankImage,ipad02,,,,,,,,,,,,0,98,98,150,,,,,,,,,,,,,,,,,,,,,,,,,,,,,,,,,,,614.1904325000069,615.2027889000019,615.186043499998,615.7624807000102,615.7624807000102,None,617.6276039000077,None,left,0.607339599984698,617.6276039000077,None,618.2561363000132,None,left,0.2827953999803867,618.2561363000132,None,,,,,,,,,,,,,,,,,,,,,,,PPT23,001,2022-07-01_14h29.26.291,ABstudy,2022.1.4,59.92236457578735,
AB,Lag1_T1A_T2P,1,A,P,6,7,5,3,10,Jellyfish,Did you see the Jellyfish?,0.12,0.016,JPG\,thermometer02b,avocado01,scissors01,tennisball01b,medal02b,banana01,stapler01,cigarette,potato02b,pineapple01a,blankImage,blankImage,blankImage,blankImage,blankImage,blankImage,blankImage,firehydrant,,,,,,,,,,,,0,99,99,255,,,,,,,,,,,,,,,,,,,,,,,,,,,,,,,,,,,618.5586286000034,619.5738123999909,619.5405447999947,620.1749645000091,620.1749645000091,None,621.3699919999926,None,right,0.9851022000075318,621.3699919999926,None,622.37682830001,None,right,0.3541272000002209,622.37682830001,None,,,,,,,,,,,,,,,,,,,,,,,PPT23,001,2022-07-01_14h29.26.291,ABstudy,2022.1.4,59.92236457578735,
AB,Lag5_T1A_T2P,5,A,P,8,13,7,4,17,wrench,Did you see the wrench?,0.12,0.016,JPG\,clock01a,grape01,plate01b,key01,screwdriver04b,feather03a,pineapple01a,iron01b,toothbrush03b,comb02a,broom01,toaster01,stapler05,garlic01a,match,ashtray01,blankImage,seal,,,,,,,,,,,,0,100,100,272,,,,,,,,,,,,,,,,,,,,,,,,,,,,,,,,,,,622.7648343000037,623.7779189000139,623.7612319999898,624.3496147000114,624.3496147000114,None,626.3000495999877,None,right,0.9181276999879628,626.3000495999877,None,627.2478633999999,None,left,0.2903987000172492,627.2478633999999,None,,,,,,,,,,,,,,,,,,,,,,,PPT23,001,2022-07-01_14h29.26.291,ABstudy,2022.1.4,59.92236457578735,
AB,Lag1_T1P_T2A,1,P,A,5,6,4,4,10,paper airplane,Did you see the paper airplane?,0.12,0.016,JPG\,thermometer02b,avocado01,scissors01,tennisball01b,paperairplane,banana01,strawberry,cigarette,potato02b,pineapple01a,blankImage,blankImage,blankImage,blankImage,blankImage,blankImage,blankImage,paperairplane,,,,,,,,,,,,0,101,101,191,,,,,,,,,,,,,,,,,,,,,,,,,,,,,,,,,,,627.5690369000076,628.5825262000144,628.5659460999887,629.1485447000014,629.1485447000014,None,630.3820293000026,None,left,0.6685246000124607,630.3820293000026,None,631.06901929999,None,right,0.30182950000744313,631.06901929999,None,,,,,,,,,,,,,,,,,,,,,,,PPT23,001,2022-07-01_14h29.26.291,ABstudy,2022.1.4,59.92236457578735,
AB,Lag1_T1P_T2P,1,P,P,5,6,4,5,11,Basketball,Did you see the Basketball?,0.12,0.016,JPG\,pencil01,microscope,banana01,computerkeyboard02,basketball01,stapler04b,scissors01,sock01a,book01b,onion,dice05a,blankImage,blankImage,blankImage,blankImage,blankImage,blankImage,basketball01,,,,,,,,,,,,0,102,102,34,,,,,,,,,,,,,,,,,,,,,,,,,,,,,,,,,,,631.4573395999905,632.4697259000095,632.4531291000021,633.0231239999994,633.0231239999994,None,634.345000900008,None,left,0.7934077999962028,634.345000900008,None,635.155740599992,None,left,0.4144121000135783,635.155740599992,None,,,,,,,,,,,,,,,,,,,,,,,PPT23,001,2022-07-01_14h29.26.291,ABstudy,2022.1.4,59.92236457578735,
AB,Lag5_T1A_T2P,5,A,P,8,13,7,5,18,fish,Did you see the fish?,0.12,0.016,JPG\,scissors01,grape01,mushroom01,toiletpaper01a,greenolive,pizza,cigarette,ashtray01,carrot01,pineapple01a,foosballtable,lipstick02a,stapler04b,tambourine02,potato02b,violin,blankImage,chimney,,,,,,,,,,,,0,103,103,283,,,,,,,,,,,,,,,,,,,,,,,,,,,,,,,,,,,635.5924823000096,636.6072697000054,636.5739150000154,637.145684099989,637.145684099989,None,639.1719717000087,None,right,0.6388842999876942,639.1719717000087,None,639.8299082999874,None,right,0.3493351000070106,639.8299082999874,None,,,,,,,,,,,,,,,,,,,,,,,PPT23,001,2022-07-01_14h29.26.291,ABstudy,2022.1.4,59.92236457578735,
AB,Lag5_T1P_T2P,5,P,P,5,10,4,5,15,penguin,Did you see the penguin?,0.12,0.016,JPG\,watermelon01,cigarette,pintofbeer,cymbal,penguin,feather03a,cherry01,broom01,battery02b,stapler05,baseball01a,iron01b,garlic01a,computerkeyboard02,pig,blankImage,blankImage,penguin,,,,,,,,,,,,0,104,104,137,,,,,,,,,,,,,,,,,,,,,,,,,,,,,,,,,,,640.2225158000074,641.2294865000003,641.2139870999963,641.8839755000081,641.8003070999985,None,643.5360909000156,None,left,0.6347273999999743,643.5360909000156,None,644.1980701000139,None,right,0.29387659998610616,644.1980701000139,None,,,,,,,,,,,,,,,,,,,,,,,PPT23,001,2022-07-01_14h29.26.291,ABstudy,2022.1.4,59.92236457578735,
AB,Lag1_T1P_T2A,1,P,A,6,7,5,4,11,bird,Did you see the bird?,0.12,0.016,JPG\,foosballtable,candy,envelope03a,microscope,pencil01,cedarwaxwing,scissors01,watermelon01,grape01,dandelion,pineapple01a,blankImage,blankImage,blankImage,blankImage,blankImage,blankImage,cedarwaxwing,,,,,,,,,,,,0,105,105,182,,,,,,,,,,,,,,,,,,,,,,,,,,,,,,,,,,,644.5173109000025,645.5327429999888,645.4994038000004,645.9998926999979,645.9998926999979,None,647.4505444999959,None,left,1.5758958000224084,647.4505444999959,None,649.0533389000047,None,right,0.34991610000724904,649.0533389000047,None,,,,,,,,,,,,,,,,,,,,,,,PPT23,001,2022-07-01_14h29.26.291,ABstudy,2022.1.4,59.92236457578735,
AB,Lag1_T1P_T2P,1,P,P,5,6,4,5,11,beaver,Did you see the beaver?,0.12,0.016,JPG\,belt02a,sunglasses04,computerkeyboard02,cherry01,beaver,stapler03a,watch02a,dice05a,blueberry01,spoon01,match,blankImage,blankImage,blankImage,blankImage,blankImage,blankImage,beaver,,,,,,,,,,,,0,106,106,55,,,,,,,,,,,,,,,,,,,,,,,,,,,,,,,,,,,649.426012699987,650.4379116999917,650.4211359999899,651.0015331000031,651.0015331000031,None,652.342011700006,None,left,0.7084391000098549,652.342011700006,None,653.0880717000109,None,right,0.3462858000129927,653.0880717000109,None,,,,,,,,,,,,,,,,,,,,,,,PPT23,001,2022-07-01_14h29.26.291,ABstudy,2022.1.4,59.92236457578735,
AB,Lag5_T1P_T2A,5,P,A,5,10,4,4,14,rocket,Did you see the rocket?,0.12,0.016,JPG\,fan,tomato01,candy,screwdriver04b,spacerocket,cd,thermometer02b,apple07,button01,plate01b,brownsugar,lighter01,clock01a,envelope03a,blankImage,blankImage,blankImage,spacerocket,,,,,,,,,,,,0,107,107,226,,,,,,,,,,,,,,,,,,,,,,,,,,,,,,,,,,,653.520250600006,654.5251130000106,654.5083855999983,655.0933978999965,655.0933978999965,None,656.7208478999964,None,right,0.6816965000180062,656.7208478999964,None,657.4283194000018,None,right,0.31039070000406355,657.4283194000018,None,,,,,,,,,,,,,,,,,,,,,,,PPT23,001,2022-07-01_14h29.26.291,ABstudy,2022.1.4,59.92236457578735,
AB,Lag5_T1P_T2P,5,P,P,5,10,4,3,13,Sushi,Did you see the Sushi?,0.12,0.016,JPG\,carrot01,greenolive,fork03c,chain01,makiroll,watermelon01,tableknife02,printer02,comb02a,stapler03b,orange,rice,fan,blankImage,blankImage,blankImage,blankImage,makiroll,,,,,,,,,,,,0,108,108,135,,,,,,,,,,,,,,,,,,,,,,,,,,,,,,,,,,,657.7645260000136,658.7795564999979,658.7462922999985,659.3452270000125,659.3452270000125,None,660.9594652999949,None,left,0.4752186000114307,660.9594652999949,None,661.4656079999986,None,left,0.2724467000225559,661.4656079999986,None,,,,,,,,,,,,,,,,,,,,,,,PPT23,001,2022-07-01_14h29.26.291,ABstudy,2022.1.4,59.92236457578735,
AB,Lag1_T1P_T2A,1,P,A,5,6,4,4,10,bird,Did you see the bird?,0.12,0.016,JPG\,toaster01,scarf,toiletpaper01a,calculator01,swallow,sewingmachine01a,fan,teabag,strawberry,balloon01b,blankImage,blankImage,blankImage,blankImage,blankImage,blankImage,blankImage,swallow,,,,,,,,,,,,0,109,109,195,,,,,,,,,,,,,,,,,,,,,,,,,,,,,,,,,,,661.7681202999956,662.767545700015,662.7519635999925,663.3489786999999,663.3489786999999,None,664.5601047000091,None,left,0.7864740999939386,664.5601047000091,None,665.3703528000042,None,right,0.20930619997670874,665.3703528000042,None,,,,,,,,,,,,,,,,,,,,,,,PPT23,001,2022-07-01_14h29.26.291,ABstudy,2022.1.4,59.92236457578735,
AB,Lag1_T1P_T2A,1,P,A,7,8,6,5,13,Well,Did you see the Well?,0.12,0.016,JPG\,leaf02a,apple07,cd,pineapple01a,envelope03a,paintbrush01,well,acorn,rice,feather03a,lemon02,balloon01b,avocado01,blankImage,blankImage,blankImage,blankImage,well,,,,,,,,,,,,0,110,110,178,,,,,,,,,,,,,,,,,,,,,,,,,,,,,,,,,,,665.6082437000005,666.6202513999888,666.6035697000043,667.1865108000056,667.1865108000056,None,668.8474495999981,None,left,0.6517129999992903,668.8474495999981,None,669.5244217000145,None,right,0.5902107000001706,669.5244217000145,None,,,,,,,,,,,,,,,,,,,,,,,PPT23,001,2022-07-01_14h29.26.291,ABstudy,2022.1.4,59.92236457578735,
AB,Lag5_T1P_T2P,5,P,P,5,10,4,5,15,Safe,Did you see the Safe?,0.12,0.016,JPG\,candle01,shirt02,brick,orange,safe,toothbrush03b,pizza,thermometer02b,book01b,stapler01,sewingmachine01a,toaster01,candy,cymbal,potato02b,blankImage,blankImage,safe,,,,,,,,,,,,0,111,111,159,,,,,,,,,,,,,,,,,,,,,,,,,,,,,,,,,,,670.1428750999912,671.1582512999885,671.1249177000136,671.6963989000069,671.6963989000069,None,673.5754419000004,None,left,0.6431175000034273,673.5754419000004,None,674.2458456000022,None,left,0.31764260001364164,674.2458456000022,None,,,,,,,,,,,,,,,,,,,,,,,PPT23,001,2022-07-01_14h29.26.291,ABstudy,2022.1.4,59.92236457578735,
AB,Lag1_T1P_T2A,1,P,A,5,6,4,5,11,Electric toothbrush,Did you see the Electric toothbrush?,0.12,0.016,JPG\,carrot01,greenolive,fork03c,chain01,electrictoothbrush01c,watermelon01,tableknife02,printer02,comb02a,toaster01,orange,blankImage,blankImage,blankImage,blankImage,blankImage,blankImage,electrictoothbrush01c,,,,,,,,,,,,0,112,112,186,,,,,,,,,,,,,,,,,,,,,,,,,,,,,,,,,,,674.6042828999925,675.6130354999914,675.5963234000083,676.1891590000014,676.1891590000014,None,677.5181460999884,None,left,1.452216400008183,677.5181460999884,None,679.0001147000003,None,right,0.2901867000036873,679.0001147000003,None,,,,,,,,,,,,,,,,,,,,,,,PPT23,001,2022-07-01_14h29.26.291,ABstudy,2022.1.4,59.92236457578735,
AB,Lag1_T1A_T2P,1,A,P,5,6,4,3,9,Stool,Did you see the Stool?,0.12,0.016,JPG\,cherry01,cymbal,envelope03a,foosballtable,shirt02,stapler01,sewingmachine01a,candle08b,battery02b,blankImage,blankImage,blankImage,blankImage,blankImage,blankImage,blankImage,blankImage,hulahoop,,,,,,,,,,,,0,113,113,236,,,,,,,,,,,,,,,,,,,,,,,,,,,,,,,,,,,679.3223107999947,680.3339495999971,680.3171885999909,680.8956638000091,680.8956638000091,None,682.0200997999927,None,right,0.703054899990093,682.0200997999927,None,682.7534417000134,None,left,0.32906369998818263,682.7534417000134,None,,,,,,,,,,,,,,,,,,,,,,,PPT23,001,2022-07-01_14h29.26.291,ABstudy,2022.1.4,59.92236457578735,
AB,Lag5_T1P_T2P,5,P,P,5,10,4,3,13,bathtub,Did you see the bathtub?,0.12,0.016,JPG\,belt02a,sunglasses04,computerkeyboard02,cherry01,bathtub,eraser,watch02a,dice05a,blueberry01,stapler04b,match,leaf02a,iron01b,blankImage,blankImage,blankImage,blankImage,bathtub,,,,,,,,,,,,0,114,114,103,,,,,,,,,,,,,,,,,,,,,,,,,,,,,,,,,,,683.1097553000145,684.1213874999958,684.1046328000084,684.6962884000095,684.6962884000095,None,686.2296792000125,None,left,0.8213699999905657,686.2296792000125,None,687.0753721999936,None,right,0.3759373000066262,687.0753721999936,None,,,,,,,,,,,,,,,,,,,,,,,PPT23,001,2022-07-01_14h29.26.291,ABstudy,2022.1.4,59.92236457578735,
AB,Lag1_T1P_T2P,1,P,P,6,7,5,4,11,American football,Did you see the American football?,0.12,0.016,JPG\,toaster01,garlic01a,faucet,fan,comb02a,football,stapler06,watch02a,onion,blueberry01,toiletpaper01a,blankImage,blankImage,blankImage,blankImage,blankImage,blankImage,football,,,,,,,,,,,,0,115,115,12,,,,,,,,,,,,,,,,,,,,,,,,,,,,,,,,,,,687.483553099999,688.4920467000047,688.4753592000052,689.07267709999,689.07267709999,None,690.383493900008,None,left,0.6748231000092346,690.383493900008,None,691.0780980999989,None,left,0.2441333000024315,691.0780980999989,None,,,,,,,,,,,,,,,,,,,,,,,PPT23,001,2022-07-01_14h29.26.291,ABstudy,2022.1.4,59.92236457578735,
AB,Lag5_T1P_T2P,5,P,P,6,11,5,5,16,Parking meter,Did you see the Parking meter?,0.12,0.016,JPG\,dice05a,watch02a,pig,lighter01,button01,parkingmeter,paintbrush01,microscope,plate01b,pen04b,stapler03b,weight04a,carrot01,shirt02,globe,garlic01a,blankImage,parkingmeter,,,,,,,,,,,,0,116,116,172,,,,,,,,,,,,,,,,,,,,,,,,,,,,,,,,,,,691.3945399000077,692.39626400001,692.3795463000133,692.9719803000044,692.9719803000044,None,694.8751401999907,None,right,0.615781300002709,694.8751401999907,None,695.5158568999905,None,left,0.3434533000108786,695.5158568999905,None,,,,,,,,,,,,,,,,,,,,,,,PPT23,001,2022-07-01_14h29.26.291,ABstudy,2022.1.4,59.92236457578735,
AB,Lag5_T1P_T2P,5,P,P,5,10,4,5,15,rake,Did you see the rake?,0.12,0.016,JPG\,scissors01,grape01,mushroom01,toiletpaper01a,leafrake,pizza,cigarette,ashtray01,carrot01,stapler03b,foosballtable,lipstick02a,teabag,acorn,potato02b,blankImage,blankImage,leafrake,,,,,,,,,,,,0,117,117,92,,,,,,,,,,,,,,,,,,,,,,,,,,,,,,,,,,,695.8851443000021,696.9005918999901,696.8671895000152,697.4364020999928,697.4364020999928,None,699.3716166999948,None,left,0.9987337000202388,699.3716166999948,None,700.3877907000133,None,left,0.29564270001719706,700.3877907000133,None,,,,,,,,,,,,,,,,,,,,,,,PPT23,001,2022-07-01_14h29.26.291,ABstudy,2022.1.4,59.92236457578735,
AB,Lag1_T1P_T2P,1,P,P,7,8,6,5,13,dream catcher,Did you see the dream catcher?,0.12,0.016,JPG\,clock01a,cellphone,toaster01,toothbrush03b,cauliflower01,microscope,dreamcatcher,stapler05,scarf,clock04,sponge01,iron01b,watch02a,blankImage,blankImage,blankImage,blankImage,dreamcatcher,,,,,,,,,,,,0,118,118,81,,,,,,,,,,,,,,,,,,,,,,,,,,,,,,,,,,,700.7105499999889,701.7222616999934,701.7055401999969,702.2899663000135,702.2899663000135,None,703.8533194999909,None,left,0.6129362999927253,703.8533194999909,None,704.4919407000125,None,right,0.3346987000259105,704.4919407000125,None,,,,,,,,,,,,,,,,,,,,,,,PPT23,001,2022-07-01_14h29.26.291,ABstudy,2022.1.4,59.92236457578735,
AB,Lag1_T1P_T2P,1,P,P,5,6,4,3,9,elephant,Did you see the elephant?,0.12,0.016,JPG\,celery,brownsugar,key01,sunglasses04,arugula,stapler04b,dice05a,tennisball01b,scarf,blankImage,blankImage,blankImage,blankImage,blankImage,blankImage,blankImage,blankImage,arugula,,,,,,,,,,,,0,119,119,54,,,,,,,,,,,,,,,,,,,,,,,,,,,,,,,,,,,704.8646074999997,705.8763397000148,705.8596288000117,706.4597927000141,706.4597927000141,None,707.5926621000108,None,right,0.5388945000013337,707.5926621000108,None,708.1621574999881,None,left,0.27238320000469685,708.1621574999881,None,,,,,,,,,,,,,,,,,,,,,,,PPT23,001,2022-07-01_14h29.26.291,ABstudy,2022.1.4,59.92236457578735,
AB,Lag5_T1P_T2P,5,P,P,8,13,7,5,18,hand,Did you see the hand?,0.12,0.016,JPG\,foosballtable,candy,envelope03a,microscope,pencil01,leaf02a,scissors01,hand01b,grape01,dandelion,pineapple01a,hammer01,stapler03a,thermometer02b,ring01,sewingmachine01a,blankImage,hand01b,,,,,,,,,,,,0,120,120,131,,,,,,,,,,,,,,,,,,,,,,,,,,,,,,,,,,,708.4643490999879,709.4797999000002,709.4464480000024,709.9471461999929,709.9471461999929,None,711.9751357999921,None,left,0.5548137000005227,711.9751357999921,None,712.5504555999942,None,left,0.21184840000933036,712.5504555999942,None,,,,,,,,,,,,,,,,,,,,,,,PPT23,001,2022-07-01_14h29.26.291,ABstudy,2022.1.4,59.92236457578735,
AB,Lag1_T1P_T2P,1,P,P,6,7,5,4,11,cash register,Did you see the cash register?,0.12,0.016,JPG\,leaf02a,apple07,cd,pineapple01a,envelope03a,cashregister01,stapler03b,8ball,rice,feather03a,lemon02,blankImage,blankImage,blankImage,blankImage,blankImage,blankImage,cashregister01,,,,,,,,,,,,0,121,121,79,,,,,,,,,,,,,,,,,,,,,,,,,,,,,,,,,,,712.7853067000106,713.8007204000023,713.7673557999951,714.399503099994,714.399503099994,None,715.7080065000046,None,left,0.5264731000061147,715.7080065000046,None,716.2537249999878,None,left,0.19692389998817816,716.2537249999878,None,,,,,,,,,,,,,,,,,,,,,,,PPT23,001,2022-07-01_14h29.26.291,ABstudy,2022.1.4,59.92236457578735,
AB,Lag5_T1P_T2P,5,P,P,6,11,5,4,15,boxing glove,Did you see the boxing glove?,0.12,0.016,JPG\,button01,celery,birthdaycandle,apple07,avocado01,boxingglove01,dice05a,teabag,clock01a,feather03a,stapler06,scarf,orange,battery02b,thermometer02b,blankImage,blankImage,boxingglove01,,,,,,,,,,,,0,122,122,165,,,,,,,,,,,,,,,,,,,,,,,,,,,,,,,,,,,716.4776528000075,717.4878974999883,717.4712333999923,718.0574598000094,718.0574598000094,None,719.8595532999898,None,left,0.41510300000663847,719.8595532999898,None,720.3071461000072,None,left,0.17663650002214126,720.3071461000072,None,,,,,,,,,,,,,,,,,,,,,,,PPT23,001,2022-07-01_14h29.26.291,ABstudy,2022.1.4,59.92236457578735,
AB,Lag1_T1P_T2P,1,P,P,7,8,6,4,12,skunk,Did you see the skunk?,0.12,0.016,JPG\,fan,tomato01,candy,screwdriver04b,alligator,cd,skunk,stapler03b,button01,plate01b,brownsugar,lighter01,blankImage,blankImage,blankImage,blankImage,blankImage,skunk,,,,,,,,,,,,0,123,123,48,,,,,,,,,,,,,,,,,,,,,,,,,,,,,,,,,,,720.5096233999939,721.5252489999984,721.4918326000043,722.0790782000113,722.0790782000113,None,723.5552505000087,None,left,0.5425830000021961,723.5552505000087,None,724.1284714000067,None,left,0.21023860000423156,724.1284714000067,None,,,,,,,,,,,,,,,,,,,,,,,PPT23,001,2022-07-01_14h29.26.291,ABstudy,2022.1.4,59.92236457578735,
AB,Lag5_T1P_T2P,5,P,P,5,10,4,3,13,lollipop,Did you see the lollipop?,0.12,0.016,JPG\,brownsugar,candle01,match,printer02,lollipop04,balloon01b,belt02a,potato02b,computerkeyboard02,stapler03a,rice,mushroom01,pencil01,blankImage,blankImage,blankImage,blankImage,lollipop04,,,,,,,,,,,,0,124,124,112,,,,,,,,,,,,,,,,,,,,,,,,,,,,,,,,,,,724.3694664000068,725.3789464000147,725.3624878000119,725.8662803999905,725.8662803999905,None,727.5350312000082,None,left,0.4914115999999922,727.5350312000082,None,728.0626258999982,None,left,0.20421240001451224,728.0626258999982,None,,,,,,,,,,,,,,,,,,,,,,,PPT23,001,2022-07-01_14h29.26.291,ABstudy,2022.1.4,59.92236457578735,
AB,Lag5_T1A_T2P,5,A,P,5,10,4,3,13,flower,Did you see the flower?,0.12,0.016,JPG\,cucumber,ring01,lipstick02a,microscope,violin,garlic01a,celery,lighter01,cherry01,stapler03a,belt02a,key01,binoculars01b,blankImage,blankImage,blankImage,blankImage,christmastree,,,,,,,,,,,,0,125,125,284,,,,,,,,,,,,,,,,,,,,,,,,,,,,,,,,,,,728.3110052999982,729.3160230999929,729.299346499989,729.8699815,729.8699815,None,731.4387221999932,None,right,1.8517208000121173,731.4387221999932,None,733.3201818999951,None,right,1.042409999994561,733.3201818999951,None,,,,,,,,,,,,,,,,,,,,,,,PPT23,001,2022-07-01_14h29.26.291,ABstudy,2022.1.4,59.92236457578735,
AB,Lag5_T1A_T2P,5,A,P,7,12,6,3,15,hockey puck,Did you see the hockey puck?,0.12,0.016,JPG\,toiletpaper01a,lipstick02a,potato02b,speaker04,globe,strawberry,carrot01,plate01b,sock01a,candle08b,pen04b,stapler04b,foosballtable,brick,pear01,blankImage,blankImage,frisbee,,,,,,,,,,,,0,126,126,260,,,,,,,,,,,,,,,,,,,,,,,,,,,,,,,,,,,734.3914020000084,735.4062047000043,735.3905461000104,736.0693727000034,735.9884155000036,None,737.8262739999918,None,right,0.7119932000059634,737.8262739999918,None,738.5590599999996,None,right,0.29956300000776537,738.5590599999996,None,,,,,,,,,,,,,,,,,,,,,,,PPT23,001,2022-07-01_14h29.26.291,ABstudy,2022.1.4,59.92236457578735,
AB,Lag5_T1P_T2P,5,P,P,5,10,4,3,13,Jellyfish,Did you see the Jellyfish?,0.12,0.016,JPG\,printer02,envelope03a,potato02b,calculator01,jellyfish,cigarette,ashtray01,pig,broom01,stapler06,candle08b,battery02b,strawberry,blankImage,blankImage,blankImage,blankImage,jellyfish,,,,,,,,,,,,0,127,127,91,,,,,,,,,,,,,,,,,,,,,,,,,,,,,,,,,,,738.8818868999952,739.8935249999922,739.8767999999982,740.4713642999995,740.4713642999995,None,742.0482319000002,None,left,0.5142552000179421,742.0482319000002,None,742.5800407000061,None,left,0.24578320002183318,742.5800407000061,None,,,,,,,,,,,,,,,,,,,,,,,PPT23,001,2022-07-01_14h29.26.291,ABstudy,2022.1.4,59.92236457578735,
AB,Lag5_T1P_T2P,5,P,P,6,11,5,3,14,shower head,Did you see the shower head?,0.12,0.016,JPG\,belt02a,measuringcup01,spoon01,chain01,greenolive,showerhead01,computerkeyboard02,onion,fan,strawberry,stapler01,broom01,binoculars01b,ashtray01,blankImage,blankImage,blankImage,showerhead01,,,,,,,,,,,,0,128,128,98,,,,,,,,,,,,,,,,,,,,,,,,,,,,,,,,,,,742.8535667000106,743.86434249999,743.8474457999982,744.43677629999,744.43677629999,None,746.1083556000085,None,left,0.46148810000158846,746.1083556000085,None,746.6014957000152,None,left,0.21714139997493476,746.6014957000152,None,,,,,,,,,,,,,,,,,,,,,,,PPT23,001,2022-07-01_14h29.26.291,ABstudy,2022.1.4,59.92236457578735,
AB,Lag1_T1P_T2P,1,P,P,7,8,6,5,13,school bus,Did you see the school bus?,0.12,0.016,JPG\,aceofdiamond,banana01,scissors01,pig,shirt02,leaf02a,schoolbus,stapler05,fork03c,tableknife02,balloon01b,match,toothbrush03b,blankImage,blankImage,blankImage,blankImage,schoolbus,,,,,,,,,,,,0,129,129,24,,,,,,,,,,,,,,,,,,,,,,,,,,,,,,,,,,,746.8574315999867,747.8681641000148,747.8514431999938,748.468552300008,748.468552300008,None,750.015648200002,None,left,0.6820168000122067,750.015648200002,None,750.7210191999911,None,right,0.29724349998286925,750.7210191999911,None,,,,,,,,,,,,,,,,,,,,,,,PPT23,001,2022-07-01_14h29.26.291,ABstudy,2022.1.4,59.92236457578735,
AB,Lag1_T1P_T2P,1,P,P,6,7,5,3,10,jelly beans,Did you see the jelly beans?,0.12,0.016,JPG\,lipstick02a,cucumber,candle08b,printer02,grape01,jellybean,stapler01,lighter01,belt02a,balloon01b,blankImage,blankImage,blankImage,blankImage,blankImage,blankImage,blankImage,jellybean,,,,,,,,,,,,0,130,130,15,,,,,,,,,,,,,,,,,,,,,,,,,,,,,,,,,,,751.0421867000114,752.0555355999968,752.038813799998,752.6098270000075,752.6098270000075,None,753.8525789999985,None,left,0.8933664000069257,753.8525789999985,None,754.7753548999899,None,right,1.4104751000122633,754.7753548999899,None,,,,,,,,,,,,,,,,,,,,,,,PPT23,001,2022-07-01_14h29.26.291,ABstudy,2022.1.4,59.92236457578735,
AB,Lag5_T1A_T2P,5,A,P,6,11,5,3,14,keys,Did you see the keys?,0.12,0.016,JPG\,pencil01,microscope,banana01,computerkeyboard02,celery,cellphone,scissors01,sock01a,book01b,onion,stapler03a,binoculars01b,baseball01a,iron01b,blankImage,blankImage,blankImage,treadmill,,,,,,,,,,,,0,131,131,275,,,,,,,,,,,,,,,,,,,,,,,,,,,,,,,,,,,756.21422970001,757.2275500000105,757.2109839000041,757.7962744999968,757.7962744999968,None,759.4971445999981,None,right,0.6734006000042427,759.4971445999981,None,760.1973433000094,None,left,0.22122929999022745,760.1973433000094,None,,,,,,,,,,,,,,,,,,,,,,,PPT23,001,2022-07-01_14h29.26.291,ABstudy,2022.1.4,59.92236457578735,
AB,Lag1_T1P_T2P,1,P,P,8,9,7,5,14,lawn mower,Did you see the lawn mower?,0.12,0.016,JPG\,battery02b,sunglasses04,pear01,tennisball01b,clock01a,speaker04,binoculars01b,lawnmower,stapler05,pineapple01a,avocado01,grape01,blueberry01,violin,blankImage,blankImage,blankImage,lawnmower,,,,,,,,,,,,0,132,132,46,,,,,,,,,,,,,,,,,,,,,,,,,,,,,,,,,,,760.4533979000116,761.4650522999873,761.4483322000015,762.0467813000141,762.0467813000141,None,763.7803921999875,None,left,0.5898509000253398,763.7803921999875,None,764.4011716000095,None,left,0.2249016000132542,764.4011716000095,None,,,,,,,,,,,,,,,,,,,,,,,PPT23,001,2022-07-01_14h29.26.291,ABstudy,2022.1.4,59.92236457578735,
AB,Lag5_T1P_T2P,5,P,P,8,13,7,4,17,surf board,Did you see the surf board?,0.12,0.016,JPG\,candy,brownsugar,dice05a,cd,sock01a,blueberry01,button01,surfboard,feather03a,grape01,dandelion,scissors01,stapler03b,candle08b,book01b,globe,blankImage,surfboard,,,,,,,,,,,,0,133,133,142,,,,,,,,,,,,,,,,,,,,,,,,,,,,,,,,,,,764.6555088000023,765.6690743000072,765.6356497000088,766.2102669999877,766.2102669999877,None,768.1833258999977,None,left,0.6750780000002123,768.1833258999977,None,768.8888976000017,None,right,0.7214147000049707,768.8888976000017,None,,,,,,,,,,,,,,,,,,,,,,,PPT23,001,2022-07-01_14h29.26.291,ABstudy,2022.1.4,59.92236457578735,
AB,Lag5_T1P_T2A,5,P,A,8,13,7,4,17,Tarantula,Did you see the Tarantula?,0.12,0.016,JPG\,binoculars01b,speaker04,sandal,envelope03a,plate01b,comb02a,battery02b,tarantula,measuringcup01,key01,medal02b,lamp04a,tennisball01b,pizza,cigarette,sunglasses04,blankImage,tarantula,,,,,,,,,,,,0,134,134,201,,,,,,,,,,,,,,,,,,,,,,,,,,,,,,,,,,,769.6783594000153,770.6913883000088,770.6756871000107,771.2707174000097,771.2707174000097,None,773.1853105000046,None,left,0.5529586000193376,773.1853105000046,None,773.76193410001,None,right,0.5045393999898806,773.76193410001,None,,,,,,,,,,,,,,,,,,,,,,,PPT23,001,2022-07-01_14h29.26.291,ABstudy,2022.1.4,59.92236457578735,
AB,Lag1_T1A_T2P,1,A,P,7,8,6,3,11,Fox,Did you see the Fox?,0.12,0.016,JPG\,toaster01,chain01,sponge01,baseball01a,carrot01,belt02a,book01b,stapler03b,grape01,brick,celery,blankImage,blankImage,blankImage,blankImage,blankImage,blankImage,fingerprint,,,,,,,,,,,,0,135,135,234,,,,,,,,,,,,,,,,,,,,,,,,,,,,,,,,,,,774.2998511999904,775.3122419000138,775.2955930999888,775.8884352000023,775.8884352000023,None,777.275549300015,None,right,0.8065038000058848,777.275549300015,None,778.1148017999949,None,right,0.2642012000142131,778.1148017999949,None,,,,,,,,,,,,,,,,,,,,,,,PPT23,001,2022-07-01_14h29.26.291,ABstudy,2022.1.4,59.92236457578735,
AB,Lag1_T1P_T2P,1,P,P,7,8,6,5,13,horse,Did you see the horse?,0.12,0.016,JPG\,watermelon01,pencil01,microscope,blueberry01,computerkeyboard02,lamp04a,horse,stapler03b,sock01a,key01,binoculars01b,cauliflower01,ashtray01,blankImage,blankImage,blankImage,blankImage,horse,,,,,,,,,,,,0,136,136,3,,,,,,,,,,,,,,,,,,,,,,,,,,,,,,,,,,,778.400655800011,779.4160885000019,779.3826767000137,779.9718721999961,779.9718721999961,None,781.5925477000128,None,left,0.46605620000627823,781.5925477000128,None,782.0854281999927,None,left,0.21411450000596233,782.0854281999927,None,,,,,,,,,,,,,,,,,,,,,,,PPT23,001,2022-07-01_14h29.26.291,ABstudy,2022.1.4,59.92236457578735,
