TrialType,CondType,Lag,T1_PA,T2_PA,T1Loc,T2Loc,PreDistractor,PostDistractor,TotalImg,cueWord,T1cue,StimLength,isi,PicFolder,Img1,Img2,Img3,Img4,Img5,Img6,Img7,Img8,Img9,Img10,Img11,Img12,Img13,Img14,Img15,Img16,Img17,T1_Identity,ImageType,T1PA,T2PA,Picture,Image,FullPathName,FilePath,Practice_Trials.thisRepN,Practice_Trials.thisTrialN,Practice_Trials.thisN,Practice_Trials.thisIndex,trials.thisRepN,trials.thisTrialN,trials.thisN,trials.thisIndex,trials_2.thisRepN,trials_2.thisTrialN,trials_2.thisN,trials_2.thisIndex,Practice_Ins.started,Practice_Ins.stopped,End_Prac_Ins.keys,End_Prac_Ins.rt,End_Prac_Ins.started,End_Prac_Ins.stopped,text_2.started,text_2.stopped,Fixation_Cross_2.started,Fixation_Cross_2.stopped,Rapid_Image_Present_2.started,Rapid_Image_Present_2.stopped,key_resp.keys,key_resp.rt,key_resp.started,key_resp.stopped,T1Response_2.started,T1Response_2.stopped,T2Response_2.started,T2Response_2.stopped,key_resp_4.keys,key_resp_4.rt,key_resp_4.started,key_resp_4.stopped,text.started,text.stopped,End_Instructions.keys,End_Instructions.rt,End_Instructions.started,End_Instructions.stopped,text_5.started,text_5.stopped,FC.started,FC.stopped,Rapid_Image_Present.started,Rapid_Image_Present.stopped,T1Response.started,T1Response.stopped,key_resp_2.keys,key_resp_2.rt,key_resp_2.started,key_resp_2.stopped,T2Response.started,T2Response.stopped,key_resp_3.keys,key_resp_3.rt,key_resp_3.started,key_resp_3.stopped,text_6.started,text_6.stopped,Fin_ins.keys,Fin_ins.rt,Fin_ins.started,Fin_ins.stopped,MemTest.started,MemTest.stopped,MemResponse.keys,MemResponse.rt,MemResponse.started,MemResponse.stopped,Display.started,Display.stopped,text_7.started,text_7.stopped,endOfExperiment.started,endOfExperiment.stopped,key_resp_5.keys,key_resp_5.rt,key_resp_5.started,key_resp_5.stopped,participant,session,date,expName,psychopyVersion,frameRate,
,,,,,,,,,,,,,,,,,,,,,,,,,,,,,,,,,,,,,,,,,,,,,,,,,,,,24.636445799958892,None,space,52.09218440001132,24.636445799958892,None,,,,,,,,,,,,,,,,,,,,,,,,,,,,,,,,,,,,,,,,,,,,,,,,,,,,,,,,,,,,,,,,,PPT26,001,2022-07-04_12h57.51.341,ABstudy,2022.1.4,60.01817350157759,
AB_Prac,Lag1_T1P_T2P,1,P,P,8,9,7,5,14,Tennis racket,Did you see the Tennis racket?,0.5,0.016,JPG\,coconut,computermouse06,croissant01,deodorant02a,pillow01a,peanut01,boot02b,tennisracket,stapler03b,crayon,eggplant,marker01a,plant01,radish01,blankImage,blankImage,blankImage,tennisracket,,,,,,,,0,0,0,0,,,,,,,,,,,,,,,76.82004409999354,77.82010979996994,77.80350699997507,78.47235109994654,78.47235109994654,None,right,1.9886433000210673,85.4840577999712,None,85.4840577999712,None,87.49672359996475,None,left,2.0639800999779254,87.49672359996475,None,,,,,,,,,,,,,,,,,,,,,,,,,,,,,,,,,,,,,,,,,,,,,,,PPT26,001,2022-07-04_12h57.51.341,ABstudy,2022.1.4,60.01817350157759,
AB_Prac,Lag1_T1P_T2P,1,P,P,6,7,5,5,12,triangle,Did you see the triangle?,0.5,0.016,JPG\,ginger,mousetrap,plum01,slipper01b,dropper01,triangle,stapler04b,pants,raspberry01,rope03,scale01a,vase01,blankImage,blankImage,blankImage,blankImage,blankImage,triangle,,,,,,,,0,1,1,1,,,,,,,,,,,,,,,89.58677449997049,90.59955439995974,90.58289049996529,91.18436199997086,91.18436199997086,None,left,1.9384601999772713,97.23025599995162,None,97.23025599995162,None,99.19199739996111,None,left,0.8639912999933586,99.19199739996111,None,,,,,,,,,,,,,,,,,,,,,,,,,,,,,,,,,,,,,,,,,,,,,,,PPT26,001,2022-07-04_12h57.51.341,ABstudy,2022.1.4,60.01817350157759,
AB_Prac,Lag5_T1A_T2A,5,A,A,6,11,5,5,16,castle,Did you see the castle?,0.5,0.016,JPG\,tape02a,englishmuffin,flask,ladle02a,monitor,peach01,keychain,squeegee01b,telephone01b,whisk,walkman,syringe02,baguette01,coaster,box01a,coffeepot03a,blankImage,None,,,,,,,,0,2,2,11,,,,,,,,,,,,,,,100.07790839998052,101.09333639999386,101.05995199998142,101.65672479994828,101.65672479994828,None,right,1.000868100032676,109.655541599961,None,109.655541599961,None,110.68662439996842,None,right,0.658000199997332,110.68662439996842,None,,,,,,,,,,,,,,,,,,,,,,,,,,,,,,,,,,,,,,,,,,,,,,,PPT26,001,2022-07-04_12h57.51.341,ABstudy,2022.1.4,60.01817350157759,
AB_Prac,Lag1_T1P_T2A,1,P,A,5,6,4,5,11,Webcam,Did you see the Webcam?,0.5,0.016,JPG\,pictureframe04,binder03b,straw,adjustablewrench01b,webcam,cane,hairdryer02a,icepack,kitchenscale01a,lifejacket,piggybank,blankImage,blankImage,blankImage,blankImage,blankImage,blankImage,webcam,,,,,,,,0,3,3,6,,,,,,,,,,,,,,,111.4792824999895,112.48811149998801,112.47141479997663,113.06347919994732,113.06347919994732,None,left,0.9947924999869429,118.50961449998431,None,118.50961449998431,None,119.52829279995058,None,right,0.7198000000207685,119.52829279995058,None,,,,,,,,,,,,,,,,,,,,,,,,,,,,,,,,,,,,,,,,,,,,,,,PPT26,001,2022-07-04_12h57.51.341,ABstudy,2022.1.4,60.01817350157759,
AB_Prac,Lag5_T1P_T2A,5,P,A,6,11,5,5,16,bread,Did you see the bread?,0.5,0.016,JPG\,cleaver01,clipboard,dustpan,hikingshoe01,notebook03a,baguette01,playingcard,pliers02b,styrofoamcup,rollingpin01a,swimgoggles,wineglass01,fryingpan02a,safetypin,syringe01,thimble,blankImage,baguette01,,,,,,,,0,4,4,8,,,,,,,,,,,,,,,120.39358409994747,121.39706119999755,121.38161119999131,121.95484929997474,121.95484929997474,None,left,3.1557361999875866,129.89234829996713,None,129.89234829996713,None,133.07553999999072,None,right,1.3487688999739476,133.07553999999072,None,,,,,,,,,,,,,,,,,,,,,,,,,,,,,,,,,,,,,,,,,,,,,,,PPT26,001,2022-07-04_12h57.51.341,ABstudy,2022.1.4,60.01817350157759,
AB_Prac,Lag5_T1P_T2A,5,P,A,6,11,5,5,16,Wheat,Did you see the Wheat?,0.5,0.016,JPG\,bottleopener01,dentalfloss03b,cooler01,icecreamcone01a,paperclip01b,wheat,pencilsharpener02a,plasticbasket01a,toycar04,apricot,hairclip02,rock01a,honeydewmelon,antenna,blackberry,cardboardbox,blankImage,wheat,,,,,,,,0,5,5,7,,,,,,,,,,,,,,,134.4472539999988,135.46103589999257,135.4442477999837,136.03003589995205,136.03003589995205,None,left,0.7465289999963716,144.03884399996605,None,144.03884399996605,None,144.80418929998996,None,right,0.48424039996461943,144.80418929998996,None,,,,,,,,,,,,,,,,,,,,,,,,,,,,,,,,,,,,,,,,,,,,,,,PPT26,001,2022-07-04_12h57.51.341,ABstudy,2022.1.4,60.01817350157759,
AB_Prac,Lag5_T1P_T2P,5,P,P,7,12,6,3,15,vacuum,Did you see the vacuum?,0.5,0.016,JPG\,fork07b,lightbulb01,manshoe,saw02b,shoelace,soap03a,vacuumcleaner01,floortile01,necklace,doll,cabbage,stapler03a,hanger02a,laptop01a,nailpolish03b,blankImage,blankImage,vacuumcleaner01,,,,,,,,0,6,6,2,,,,,,,,,,,,,,,145.32663829997182,146.33857139997417,146.32203789998312,146.90840969997225,146.90840969997225,None,left,0.784190500038676,154.46405869995942,None,154.46405869995942,None,155.28074719995493,None,left,0.5115860000369139,155.28074719995493,None,,,,,,,,,,,,,,,,,,,,,,,,,,,,,,,,,,,,,,,,,,,,,,,PPT26,001,2022-07-04_12h57.51.341,ABstudy,2022.1.4,60.01817350157759,
AB_Prac,Lag5_T1A_T2P,5,A,P,6,11,5,3,14,dog,Did you see the dog?,0.5,0.016,JPG\,bucket01a,doorlock,cookiecutter,fireextinguisher01,gluestick,highlighter02b,sportbag,spraybottle01,suitcase,thread02,stapler05,walnut01c,icecubetray01a,vikingmask01b,blankImage,blankImage,blankImage,None,,,,,,,,0,7,7,9,,,,,,,,,,,,,,,155.8174980999902,156.83242819999577,156.79903679998824,157.45143969997298,157.45143969997298,None,right,1.3252841000212356,164.4510212999885,None,164.4510212999885,None,165.80822049995186,None,left,0.6008072000113316,165.80822049995186,None,,,,,,,,,,,,,,,,,,,,,,,,,,,,,,,,,,,,,,,,,,,,,,,PPT26,001,2022-07-04_12h57.51.341,ABstudy,2022.1.4,60.01817350157759,
AB_Prac,Lag1_T1P_T2A,1,P,A,8,9,7,5,14,flower,Did you see the flower?,0.5,0.016,JPG\,razor01,axe01,binder03b,bowl01,kettle01,lettuce,lime,plasticflower01b,mitten04,pencilcase01,plunger02,strawbasket01,toothpick02,wallet02a,blankImage,blankImage,blankImage,plasticflower01b,,,,,,,,0,8,8,5,,,,,,,,,,,,,,,166.53620529995533,167.54336469998816,167.52775429998292,168.14527259999886,168.14527259999886,None,left,1.0794442999758758,175.0413561000023,None,175.0413561000023,None,176.15165249997517,None,right,0.7279616000014357,176.15165249997517,None,,,,,,,,,,,,,,,,,,,,,,,,,,,,,,,,,,,,,,,,,,,,,,,PPT26,001,2022-07-04_12h57.51.341,ABstudy,2022.1.4,60.01817350157759,
AB_Prac,Lag5_T1P_T2P,5,P,P,5,10,4,5,15,Vulture,Did you see the Vulture?,0.5,0.016,JPG\,shorts01,toast,ramekin01,bib,vulture,cracker02,date,glasses01a,hat03b,stapler01,measuringtape01,nail,pill,drum01,starfish01,blankImage,blankImage,vulture,,,,,,,,0,9,9,3,,,,,,,,,,,,,,,176.9125900999643,177.92001439997694,177.90322629996808,178.50041259999853,178.50041259999853,None,right,2.102397500013467,186.01053779997164,None,186.01053779997164,None,188.13029309996637,None,left,0.8294759999844246,188.13029309996637,None,,,,,,,,,,,,,,,,,,,,,,,,,,,,,,,,,,,,,,,,,,,,,,,PPT26,001,2022-07-04_12h57.51.341,ABstudy,2022.1.4,60.01817350157759,
AB_Prac,Lag1_T1A_T2A,1,A,A,8,9,7,3,12,Moose,Did you see the Moose?,0.5,0.016,JPG\,clothespin03b,corkscrew03a,drillbit03a,fusilli03a,needlenosepliers01,perfume01a,pistachio,scrubbingbrush05b,spatula03,toothpastetube,hinge,toydinosaur,blankImage,blankImage,blankImage,blankImage,blankImage,None,,,,,,,,0,10,10,10,,,,,,,,,,,,,,,188.9837423999561,189.9989404999651,189.96531569998479,190.53895619994728,190.53895619994728,None,right,1.1019522999995388,196.5944658999797,None,196.5944658999797,None,197.72316069999943,None,right,0.43721690005622804,197.72316069999943,None,,,,,,,,,,,,,,,,,,,,,,,,,,,,,,,,,,,,,,,,,,,,,,,PPT26,001,2022-07-04_12h57.51.341,ABstudy,2022.1.4,60.01817350157759,
AB_Prac,Lag5_T1P_T2P,5,P,P,5,10,4,5,15,washing machine,Did you see the washing machine?,0.5,0.016,JPG\,waterbottle03,wheel01,flashlight02b,zucchini01,washingmachine,headphones02b,nutcracker01,paintroller01,paperclip03,stapler06,ribbon04,electricrazor,bottleofredwine01,pitabread,pot02a,blankImage,blankImage,washingmachine,,,,,,,,0,11,11,4,,,,,,,,,,,,,,,198.19513690000167,199.20787069998914,199.19122809998225,199.7708338999655,199.7708338999655,None,right,0.6915350999915972,207.37289040000178,None,207.37289040000178,None,208.08504369994625,None,left,0.619119499984663,208.08504369994625,None,,,,,,,,,,,,,,,,,,,,,,,,,,,,,,,,,,,,,,,,,,,,,,,PPT26,001,2022-07-04_12h57.51.341,ABstudy,2022.1.4,60.01817350157759,
,,,,,,,,,,,,,,,,,,,,,,,,,,,,,,,,,,,,,,,,,,,,,,,,,,,,,,,,,,,,,,,,,,,,,,,,,,,,208.73449689999688,None,space,21.633593800012022,208.73449689999688,None,,,,,,,,,,,,,,,,,,,,,,,,,,,,,,,,,,,,,,,,,PPT26,001,2022-07-04_12h57.51.341,ABstudy,2022.1.4,60.01817350157759,
AB,Lag1_T1P_T2P,1,P,P,8,9,7,3,12,apron,Did you see the apron?,0.12,0.016,JPG\,avocado01,tambourine02,match,cauliflower01,paintbrush01,clock01a,pig,apron,stapler03a,cellphone,watch02a,pear01,blankImage,blankImage,blankImage,blankImage,blankImage,apron,,,,,,,,,,,,0,0,0,32,,,,,,,,,,,,,,,,,,,,,,,,,,,,,,,,,,,231.05589309998322,232.05703119997634,232.04034879995743,232.6557899999898,232.6557899999898,None,234.16717069997685,None,right,2.193195800005924,234.16717069997685,None,236.37887489999412,None,left,0.5885524000041187,236.37887489999412,None,,,,,,,,,,,,,,,,,,,,,,,PPT26,001,2022-07-04_12h57.51.341,ABstudy,2022.1.4,60.01817350157759,
AB,Lag1_T1P_T2P,1,P,P,7,8,6,5,13,dream catcher,Did you see the dream catcher?,0.12,0.016,JPG\,clock01a,cellphone,toaster01,toothbrush03b,cauliflower01,microscope,dreamcatcher,stapler05,scarf,clock04,sponge01,iron01b,watch02a,blankImage,blankImage,blankImage,blankImage,dreamcatcher,,,,,,,,,,,,0,1,1,81,,,,,,,,,,,,,,,,,,,,,,,,,,,,,,,,,,,236.99582719994942,237.9963472999516,237.979698799958,238.56648829998448,238.56648829998448,None,240.1782434999477,None,left,1.0145070999860764,240.1782434999477,None,241.21647379995557,None,right,0.8631920000188984,241.21647379995557,None,,,,,,,,,,,,,,,,,,,,,,,PPT26,001,2022-07-04_12h57.51.341,ABstudy,2022.1.4,60.01817350157759,
AB,Lag1_T1P_T2P,1,P,P,8,9,7,4,13,Hula hoop,Did you see the Hula hoop?,0.12,0.016,JPG\,brownsugar,candle01,match,printer02,broom01,balloon01b,belt02a,hulahoop,stapler04b,feather03a,rice,mushroom01,pencil01,blankImage,blankImage,blankImage,blankImage,hulahoop,,,,,,,,,,,,0,2,2,64,,,,,,,,,,,,,,,,,,,,,,,,,,,,,,,,,,,242.11351309996098,243.11819869995816,243.10153769998578,243.60497179999948,243.60497179999948,None,245.26688039995497,None,left,1.0534837000304833,245.26688039995497,None,246.33810239995364,None,left,0.7501032000291161,246.33810239995364,None,,,,,,,,,,,,,,,,,,,,,,,PPT26,001,2022-07-04_12h57.51.341,ABstudy,2022.1.4,60.01817350157759,
AB,Lag1_T1P_T2P,1,P,P,7,8,6,5,13,horse,Did you see the horse?,0.12,0.016,JPG\,watermelon01,pencil01,microscope,blueberry01,computerkeyboard02,lamp04a,horse,stapler03b,sock01a,key01,binoculars01b,cauliflower01,ashtray01,blankImage,blankImage,blankImage,blankImage,horse,,,,,,,,,,,,0,3,3,3,,,,,,,,,,,,,,,,,,,,,,,,,,,,,,,,,,,247.10979550000047,248.12322179996409,248.10656929999823,248.69833349995315,248.69833349995315,None,250.27030399994692,None,left,0.9615238000405952,250.27030399994692,None,251.25980759999948,None,left,0.32417390000773594,251.25980759999948,None,,,,,,,,,,,,,,,,,,,,,,,PPT26,001,2022-07-04_12h57.51.341,ABstudy,2022.1.4,60.01817350157759,
AB,Lag1_T1P_T2P,1,P,P,7,8,6,5,13,disco ball,Did you see the disco ball?,0.12,0.016,JPG\,candle01,paintbrush01,scissors01,fan,microscope,toothbrush03b,discoball,stapler03b,teabag,pencil01,lemon02,ashtray01,shirt02,blankImage,blankImage,blankImage,blankImage,discoball,,,,,,,,,,,,0,4,4,60,,,,,,,,,,,,,,,,,,,,,,,,,,,,,,,,,,,251.6147877999465,252.62778849998722,252.61106789996848,253.1644846999552,253.1644846999552,None,254.8328769999789,None,left,0.40737969998735934,254.8328769999789,None,255.2651931999717,None,left,0.2623586999834515,255.2651931999717,None,,,,,,,,,,,,,,,,,,,,,,,PPT26,001,2022-07-04_12h57.51.341,ABstudy,2022.1.4,60.01817350157759,
AB,Lag1_T1A_T2P,1,A,P,8,9,7,3,12,porcupine,Did you see the porcupine?,0.12,0.016,JPG\,celery,orange,scissors01,balloon01b,avocado01,printer02,mushroom01,sewingmachine01a,stapler01,dice05a,ashtray01,fan,blankImage,blankImage,blankImage,blankImage,blankImage,drumstick,,,,,,,,,,,,0,5,5,233,,,,,,,,,,,,,,,,,,,,,,,,,,,,,,,,,,,255.55323769996176,256.5649919999996,256.5483688999666,257.128127999953,257.128127999953,None,258.6118793999776,None,right,1.1323570999666117,258.6118793999776,None,259.7683247999521,None,left,0.42299689998617396,259.7683247999521,None,,,,,,,,,,,,,,,,,,,,,,,PPT26,001,2022-07-04_12h57.51.341,ABstudy,2022.1.4,60.01817350157759,
AB,Lag5_T1A_T2P,5,A,P,7,12,6,4,16,church,Did you see the church?,0.12,0.016,JPG\,printer02,leaf02a,cauliflower01,sock01a,brownsugar,paintbrush01,pig,orange,belt02a,shirt02,key01,stapler06,cigarette,scissors01,envelope03a,blueberry01,blankImage,ant,,,,,,,,,,,,0,6,6,279,,,,,,,,,,,,,,,,,,,,,,,,,,,,,,,,,,,260.22211309999693,261.2362286999705,261.21965389995603,261.87067679996835,261.78929809998954,None,263.76147329999367,None,right,1.1578654000186361,263.76147329999367,None,264.94078569998965,None,left,0.42741110001225024,264.94078569998965,None,,,,,,,,,,,,,,,,,,,,,,,PPT26,001,2022-07-04_12h57.51.341,ABstudy,2022.1.4,60.01817350157759,
AB,Lag5_T1P_T2P,5,P,P,6,11,5,4,15,shower,Did you see the shower?,0.12,0.016,JPG\,dice05a,watch02a,pig,lighter01,button01,shower,paintbrush01,microscope,plate01b,pen04b,stapler05,weight04a,carrot01,shirt02,globe,blankImage,blankImage,shower,,,,,,,,,,,,0,7,7,121,,,,,,,,,,,,,,,,,,,,,,,,,,,,,,,,,,,265.39597089996096,266.40820139995776,266.3914062999538,266.9707490999717,266.9707490999717,None,268.81352979998337,None,right,0.8980505999643356,268.81352979998337,None,269.72821589995874,None,right,0.32743519998621196,269.72821589995874,None,,,,,,,,,,,,,,,,,,,,,,,PPT26,001,2022-07-04_12h57.51.341,ABstudy,2022.1.4,60.01817350157759,
AB,Lag1_T1P_T2P,1,P,P,8,9,7,4,13,crab,Did you see the crab?,0.12,0.016,JPG\,candle01,fork03c,plate01b,violin,computerkeyboard02,candy,calculator01,crab01,stapler04b,sock01a,teabag,banana01,cd,blankImage,blankImage,blankImage,blankImage,crab01,,,,,,,,,,,,0,8,8,37,,,,,,,,,,,,,,,,,,,,,,,,,,,,,,,,,,,270.08095559995854,271.0958602000028,271.0625035999692,271.65275660000043,271.65275660000043,None,273.23135029996047,None,left,1.9928504999843426,273.23135029996047,None,275.25028339994606,None,right,0.5100886000436731,275.25028339994606,None,,,,,,,,,,,,,,,,,,,,,,,PPT26,001,2022-07-04_12h57.51.341,ABstudy,2022.1.4,60.01817350157759,
AB,Lag5_T1P_T2A,5,P,A,6,11,5,3,14,Balcony,Did you see the Balcony?,0.12,0.016,JPG\,tomato01,pen04b,shirt02,carrot01,lamp04a,balcony02,pizza,avocado01,sewingmachine01a,apple07,iron01b,book01b,chain01,sock01a,blankImage,blankImage,blankImage,balcony02,,,,,,,,,,,,0,9,9,207,,,,,,,,,,,,,,,,,,,,,,,,,,,,,,,,,,,275.7940328999539,276.80168279999634,276.785198699974,277.4010076999548,277.4010076999548,None,279.04234849999193,None,right,0.9175904999719933,279.04234849999193,None,279.988521399966,None,right,0.3314117999980226,279.988521399966,None,,,,,,,,,,,,,,,,,,,,,,,PPT26,001,2022-07-04_12h57.51.341,ABstudy,2022.1.4,60.01817350157759,
AB,Lag1_T1P_T2P,1,P,P,6,7,5,3,10,jelly beans,Did you see the jelly beans?,0.12,0.016,JPG\,lipstick02a,cucumber,candle08b,printer02,grape01,jellybean,stapler01,lighter01,belt02a,balloon01b,blankImage,blankImage,blankImage,blankImage,blankImage,blankImage,blankImage,jellybean,,,,,,,,,,,,0,10,10,15,,,,,,,,,,,,,,,,,,,,,,,,,,,,,,,,,,,280.3477744999691,281.35670069995103,281.3410826999461,281.93645119998837,281.93645119998837,None,283.15001559996745,None,left,0.5227092000422999,283.15001559996745,None,283.6929039999959,None,left,0.44281279999995604,283.6929039999959,None,,,,,,,,,,,,,,,,,,,,,,,PPT26,001,2022-07-04_12h57.51.341,ABstudy,2022.1.4,60.01817350157759,
AB,Lag5_T1P_T2A,5,P,A,7,12,6,5,17,shoulder,Did you see the shoulder?,0.12,0.016,JPG\,battery02b,sunglasses04,pear01,tennisball01b,clock01a,speaker04,shoulder,spoon01,alligator,pineapple01a,avocado01,grape01,blueberry01,violin,strawberry,sock01a,blankImage,shoulder,,,,,,,,,,,,0,11,11,224,,,,,,,,,,,,,,,,,,,,,,,,,,,,,,,,,,,284.16484919999493,285.1771090999828,285.16127799998503,285.7668526999769,285.7668526999769,None,287.65900499996496,None,left,1.12486819998594,287.65900499996496,None,288.8138549999567,None,right,1.3063064999878407,288.8138549999567,None,,,,,,,,,,,,,,,,,,,,,,,PPT26,001,2022-07-04_12h57.51.341,ABstudy,2022.1.4,60.01817350157759,
AB,Lag1_T1P_T2P,1,P,P,6,7,5,5,12,owl,Did you see the owl?,0.12,0.016,JPG\,paintbrush01,eraser,medal02b,hammer01,speaker04,greathornowl,stapler01,comb02a,plate01b,clock01a,button01,globe,blankImage,blankImage,blankImage,blankImage,blankImage,greathornowl,,,,,,,,,,,,0,12,12,1,,,,,,,,,,,,,,,,,,,,,,,,,,,,,,,,,,,290.15277699998114,291.1660235999734,291.14938429999165,291.74571279995143,291.74571279995143,None,293.2563175999676,None,left,0.9671044999849983,293.2563175999676,None,294.25222959998064,None,right,0.3481076000025496,294.25222959998064,None,,,,,,,,,,,,,,,,,,,,,,,PPT26,001,2022-07-04_12h57.51.341,ABstudy,2022.1.4,60.01817350157759,
AB,Lag5_T1P_T2A,5,P,A,7,12,6,3,15,helmet,Did you see the helmet?,0.12,0.016,JPG\,fork03c,belt02a,grape01,computerkeyboard02,lemon02,printer02,skihelmet01,toiletpaper01a,toaster01,lipstick02a,book01b,blueberry01,spoon01,apple07,avocado01,blankImage,blankImage,skihelmet01,,,,,,,,,,,,0,13,13,225,,,,,,,,,,,,,,,,,,,,,,,,,,,,,,,,,,,294.62157819996355,295.6370061999769,295.6037119999528,296.17411029996583,296.17411029996583,None,298.06332959997235,None,left,0.704334200010635,298.06332959997235,None,298.8044141999562,None,right,2.123423899989575,298.8044141999562,None,,,,,,,,,,,,,,,,,,,,,,,PPT26,001,2022-07-04_12h57.51.341,ABstudy,2022.1.4,60.01817350157759,
AB,Lag1_T1P_T2P,1,P,P,7,8,6,4,12,rooster,Did you see the rooster?,0.12,0.016,JPG\,pizza,strawberry,potato02b,speaker04,battery02b,iron01b,rooster,stapler03b,globe,banana01,medal02b,baseball01a,blankImage,blankImage,blankImage,blankImage,blankImage,rooster,,,,,,,,,,,,0,14,14,69,,,,,,,,,,,,,,,,,,,,,,,,,,,,,,,,,,,300.96121699997457,301.97683479997795,301.94328129995847,302.53777809999883,302.53777809999883,None,304.04992239997955,None,left,1.0384603000129573,304.04992239997955,None,305.1130392999621,None,right,1.0388213999685831,305.1130392999621,None,,,,,,,,,,,,,,,,,,,,,,,PPT26,001,2022-07-04_12h57.51.341,ABstudy,2022.1.4,60.01817350157759,
AB,Lag1_T1P_T2P,1,P,P,8,9,7,3,12,mail box,Did you see the mail box?,0.12,0.016,JPG\,paintbrush01,dice05a,watermelon01,broccoli01a,hammer01,leaf02a,match,mailbox01,stapler05,fan,lipstick02a,grape01,blankImage,blankImage,blankImage,blankImage,blankImage,mailbox01,,,,,,,,,,,,0,15,15,20,,,,,,,,,,,,,,,,,,,,,,,,,,,,,,,,,,,306.19058899994707,307.1984494999633,307.1818237999687,307.7554311999702,307.7554311999702,None,309.28164519998245,None,right,0.8377266000024974,309.28164519998245,None,310.1515193999512,None,right,0.48038950003683567,310.1515193999512,None,,,,,,,,,,,,,,,,,,,,,,,PPT26,001,2022-07-04_12h57.51.341,ABstudy,2022.1.4,60.01817350157759,
AB,Lag5_T1P_T2P,5,P,P,8,13,7,3,16,banjo,Did you see the banjo?,0.12,0.016,JPG\,celery,brownsugar,key01,sunglasses04,leaf02a,toothbrush03b,dice05a,banjo,scarf,globe,paintbrush01,scissors01,stapler03a,battery02b,feather03a,cymbal,blankImage,banjo,,,,,,,,,,,,0,16,16,102,,,,,,,,,,,,,,,,,,,,,,,,,,,,,,,,,,,310.6548571999883,311.66982959996676,311.63633849995676,312.2239017999964,312.2239017999964,None,314.0953405999462,None,left,0.42391670000506565,314.0953405999462,None,314.5395291999448,None,left,0.24371710000559688,314.5395291999448,None,,,,,,,,,,,,,,,,,,,,,,,PPT26,001,2022-07-04_12h57.51.341,ABstudy,2022.1.4,60.01817350157759,
AB,Lag5_T1A_T2P,5,A,P,5,10,4,5,15,Sushi,Did you see the Sushi?,0.12,0.016,JPG\,pineapple01a,leaf02a,grape01,toiletpaper01a,match,tennisball01b,spoon01,chain01,pig,stapler04b,ring01,lemon02,dice05a,pizza,potato02b,blankImage,blankImage,crown,,,,,,,,,,,,0,17,17,285,,,,,,,,,,,,,,,,,,,,,,,,,,,,,,,,,,,314.81470139999874,315.8238771999604,315.80719859997043,316.40040779998526,316.40040779998526,None,318.2159449000028,None,right,1.0403029000153765,318.2159449000028,None,319.27752649999456,None,left,0.37003510002978146,319.27752649999456,None,,,,,,,,,,,,,,,,,,,,,,,PPT26,001,2022-07-04_12h57.51.341,ABstudy,2022.1.4,60.01817350157759,
AB,Lag1_T1P_T2P,1,P,P,7,8,6,3,11,compass,Did you see the compass?,0.12,0.016,JPG\,brick,plate01b,pen04b,toaster01,screwdriver04b,candle01,magneticcompass,stapler03a,pig,ring01,orange,blankImage,blankImage,blankImage,blankImage,blankImage,blankImage,magneticcompass,,,,,,,,,,,,0,18,18,66,,,,,,,,,,,,,,,,,,,,,,,,,,,,,,,,,,,319.7304366999888,320.7459682999761,320.730294399953,321.3903111999971,321.3172442999785,None,322.5824520000024,None,right,3.129244400013704,322.5824520000024,None,325.7480072999606,None,left,1.3631892999983393,325.7480072999606,None,,,,,,,,,,,,,,,,,,,,,,,PPT26,001,2022-07-04_12h57.51.341,ABstudy,2022.1.4,60.01817350157759,
AB,Lag5_T1P_T2P,5,P,P,6,11,5,5,16,table,Did you see the table?,0.12,0.016,JPG\,birthdaycandle,mushroom01,strawberry,match,cherry01,table01,hammer01,thermometer02b,sock01a,ring01,stapler06,banana01,toiletpaper01a,key01,sponge01,teabag,blankImage,table01,,,,,,,,,,,,0,19,19,144,,,,,,,,,,,,,,,,,,,,,,,,,,,,,,,,,,,327.1372819999815,328.15272139996523,328.1193009999697,328.62183179997373,328.62183179997373,None,330.7285351999453,None,left,0.47934450005413964,330.7285351999453,None,331.224573399988,None,left,0.33495859999675304,331.224573399988,None,,,,,,,,,,,,,,,,,,,,,,,PPT26,001,2022-07-04_12h57.51.341,ABstudy,2022.1.4,60.01817350157759,
AB,Lag1_T1P_T2P,1,P,P,8,9,7,3,12,cactus,Did you see the cactus?,0.12,0.016,JPG\,tennisball01b,paintbrush01,medal02b,apple07,speaker04,iron01b,avocado01,cactus,stapler03b,toiletpaper01a,watermelon01,candle01,blankImage,blankImage,blankImage,blankImage,blankImage,cactus,,,,,,,,,,,,0,20,20,58,,,,,,,,,,,,,,,,,,,,,,,,,,,,,,,,,,,331.5916594999726,332.60710219998145,332.57367809995776,333.1665174999507,333.1665174999507,None,334.65126549999695,None,left,1.0282061000471003,334.65126549999695,None,335.71045479999157,None,right,1.0651797999744304,335.71045479999157,None,,,,,,,,,,,,,,,,,,,,,,,PPT26,001,2022-07-04_12h57.51.341,ABstudy,2022.1.4,60.01817350157759,
AB,Lag1_T1P_T2P,1,P,P,8,9,7,3,12,snow globe,Did you see the Snow globe?,0.12,0.016,JPG\,eraser,measuringcup01,chain01,birthdaycandle,ring01,rice,8ball,stapler04b,stapler01,celery,microscope,sunglasses04,blankImage,blankImage,blankImage,blankImage,blankImage,snowglobe,,,,,,,,,,,,0,21,21,56,,,,,,,,,,,,,,,,,,,,,,,,,,,,,,,,,,,336.8008764999686,337.81241079996107,337.79577009996865,338.3860141999903,338.3860141999903,None,339.8991968999617,None,right,1.1093632000265643,339.8991968999617,None,341.0325496000005,None,left,0.37613009999040514,341.0325496000005,None,,,,,,,,,,,,,,,,,,,,,,,PPT26,001,2022-07-04_12h57.51.341,ABstudy,2022.1.4,60.01817350157759,
AB,Lag5_T1P_T2P,5,P,P,6,11,5,5,16,scooter,Did you see the scooter?,0.12,0.016,JPG\,thermometer02b,candle08b,comb02a,toothbrush03b,brick,scooter,key01,pineapple01a,candy,birthdaycandle,stapler04b,canoftennisballs,teabag,medal02b,balloon01b,banana01,blankImage,scooter,,,,,,,,,,,,0,22,22,118,,,,,,,,,,,,,,,,,,,,,,,,,,,,,,,,,,,341.4363240999519,342.4504460999742,342.43372629996156,343.0828353999532,343.0068228999735,None,344.9646148000029,None,left,0.4749288000166416,344.9646148000029,None,345.4699362999527,None,left,0.3775492999702692,345.4699362999527,None,,,,,,,,,,,,,,,,,,,,,,,PPT26,001,2022-07-04_12h57.51.341,ABstudy,2022.1.4,60.01817350157759,
AB,Lag1_T1P_T2P,1,P,P,6,7,5,3,10,spider web,Did you see the spider web?,0.12,0.016,JPG\,toaster01,chain01,sponge01,baseball01a,carrot01,spiderweb,stapler03b,iron01b,grape01,brick,blankImage,blankImage,blankImage,blankImage,blankImage,blankImage,blankImage,spiderweb,,,,,,,,,,,,0,23,23,72,,,,,,,,,,,,,,,,,,,,,,,,,,,,,,,,,,,345.8747944999486,346.8882638999494,346.87133840000024,347.4572350999806,347.4572350999806,None,348.7358696999727,None,left,0.7595709000015631,348.7358696999727,None,349.52384409995284,None,left,0.347539099981077,349.52384409995284,None,,,,,,,,,,,,,,,,,,,,,,,PPT26,001,2022-07-04_12h57.51.341,ABstudy,2022.1.4,60.01817350157759,
AB,Lag1_T1P_T2P,1,P,P,6,7,5,5,12,Snowboard,Did you see the Snowboard?,0.12,0.016,JPG\,belt02a,measuringcup01,spoon01,chain01,greenolive,snowboard,stapler01,onion,fan,strawberry,candle01,broom01,blankImage,blankImage,blankImage,blankImage,blankImage,snowboard,,,,,,,,,,,,0,24,24,49,,,,,,,,,,,,,,,,,,,,,,,,,,,,,,,,,,,349.8944367999793,350.9087598999613,350.87533539999276,351.46940010000253,351.46940010000253,None,352.91529729997274,None,left,3.845387400011532,352.91529729997274,None,356.7815857999958,None,right,1.2657260000123642,356.7815857999958,None,,,,,,,,,,,,,,,,,,,,,,,PPT26,001,2022-07-04_12h57.51.341,ABstudy,2022.1.4,60.01817350157759,
AB,Lag5_T1P_T2P,5,P,P,5,10,4,4,14,duck,Did you see the duck?,0.12,0.016,JPG\,celery,pencil01,fan,foosballtable,duck01,shirt02,potato02b,fork03c,button01,stapler03a,baseball01a,printer02,cauliflower01,dandelion,blankImage,blankImage,blankImage,duck01,,,,,,,,,,,,0,25,25,130,,,,,,,,,,,,,,,,,,,,,,,,,,,,,,,,,,,358.0685392000014,359.08378939999966,359.0505348999868,359.6374633999658,359.6374633999658,None,361.25743099994725,None,left,0.8386596000054851,361.25743099994725,None,362.1198447999777,None,right,0.4230898999958299,362.1198447999777,None,,,,,,,,,,,,,,,,,,,,,,,PPT26,001,2022-07-04_12h57.51.341,ABstudy,2022.1.4,60.01817350157759,
AB,Lag1_T1P_T2P,1,P,P,5,6,4,5,11,shark,Did you see the shark?,0.12,0.016,JPG\,cucumber,sponge01,alligator,pear01,greatwhiteshark,stapler06,clock04,battery02b,fork03c,binoculars01b,mushroom01,blankImage,blankImage,blankImage,blankImage,blankImage,blankImage,greatwhiteshark,,,,,,,,,,,,0,26,26,84,,,,,,,,,,,,,,,,,,,,,,,,,,,,,,,,,,,362.57264839997515,363.5879215999739,363.55456289998256,364.14638799999375,364.14638799999375,None,365.5329856000026,None,left,1.4344473999808542,365.5329856000026,None,366.9925965999719,None,right,0.8629578000400215,366.9925965999719,None,,,,,,,,,,,,,,,,,,,,,,,PPT26,001,2022-07-04_12h57.51.341,ABstudy,2022.1.4,60.01817350157759,
AB,Lag1_T1A_T2P,1,A,P,5,6,4,3,9,microphone,Did you see the microphone?,0.12,0.016,JPG\,hammer01,sponge01,toaster01,cherry01,feather03a,stapler06,measuringcup01,pencil01,tennisball01b,blankImage,blankImage,blankImage,blankImage,blankImage,blankImage,blankImage,blankImage,cactus,,,,,,,,,,,,0,27,27,230,,,,,,,,,,,,,,,,,,,,,,,,,,,,,,,,,,,367.8781856999849,368.89361599995755,368.8601112999604,369.438545299985,369.438545299985,None,370.5445704999729,None,right,1.4787165999878198,370.5445704999729,None,372.046683499997,None,left,0.4883397999801673,372.046683499997,None,,,,,,,,,,,,,,,,,,,,,,,PPT26,001,2022-07-04_12h57.51.341,ABstudy,2022.1.4,60.01817350157759,
AB,Lag5_T1P_T2P,5,P,P,8,13,7,3,16,church,Did you see the church?,0.12,0.016,JPG\,clock01a,cellphone,toaster01,toothbrush03b,cauliflower01,microscope,comb02a,church,scarf,clock04,sponge01,iron01b,stapler06,celery,ring01,ashtray01,blankImage,church,,,,,,,,,,,,0,28,28,129,,,,,,,,,,,,,,,,,,,,,,,,,,,,,,,,,,,372.56772039999487,373.5814839999657,373.5648905999842,374.14184659998864,374.14184659998864,None,376.07947129994864,None,left,0.5435354000073858,376.07947129994864,None,376.65154729998903,None,left,0.3953748000203632,376.65154729998903,None,,,,,,,,,,,,,,,,,,,,,,,PPT26,001,2022-07-04_12h57.51.341,ABstudy,2022.1.4,60.01817350157759,
AB,Lag5_T1A_T2P,5,A,P,6,11,5,3,14,Kiwi,Did you see the Kiwi?,0.12,0.016,JPG\,paintbrush01,dice05a,watermelon01,broccoli01a,hammer01,leaf02a,match,tennisball01b,lemon02,fan,stapler06,grape01,envelope03a,sponge01,blankImage,blankImage,blankImage,granolabar01,,,,,,,,,,,,0,29,29,261,,,,,,,,,,,,,,,,,,,,,,,,,,,,,,,,,,,377.07982189999893,378.08626650000224,378.07056819996797,378.6661187999998,378.6661187999998,None,380.35679869999876,None,right,1.2506558999884874,380.35679869999876,None,381.63949169998523,None,left,0.6963146000052802,381.63949169998523,None,,,,,,,,,,,,,,,,,,,,,,,PPT26,001,2022-07-04_12h57.51.341,ABstudy,2022.1.4,60.01817350157759,
AB,Lag1_T1P_T2P,1,P,P,7,8,6,5,13,school bus,Did you see the school bus?,0.12,0.016,JPG\,aceofdiamond,banana01,scissors01,pig,shirt02,leaf02a,schoolbus,stapler05,fork03c,tableknife02,balloon01b,match,toothbrush03b,blankImage,blankImage,blankImage,blankImage,schoolbus,,,,,,,,,,,,0,30,30,24,,,,,,,,,,,,,,,,,,,,,,,,,,,,,,,,,,,382.3624646999524,383.37433099996997,383.35768019995885,383.95728829997825,383.95728829997825,None,385.541699399997,None,left,0.6177372999954969,385.541699399997,None,386.1789655999746,None,left,0.26030560000799596,386.1789655999746,None,,,,,,,,,,,,,,,,,,,,,,,PPT26,001,2022-07-04_12h57.51.341,ABstudy,2022.1.4,60.01817350157759,
AB,Lag1_T1P_T2P,1,P,P,6,7,5,5,12,snowman,Did you see the snowman?,0.12,0.016,JPG\,comb02a,watch02a,scissors01,dice05a,tableknife02,snowman,stapler03a,printer02,dandelion,spoon01,ashtray01,battery02b,blankImage,blankImage,blankImage,blankImage,blankImage,snowman,,,,,,,,,,,,0,31,31,4,,,,,,,,,,,,,,,,,,,,,,,,,,,,,,,,,,,386.4727522999747,387.4782387999585,387.46151409996673,388.03592789999675,388.03592789999675,None,389.4910004999838,None,left,1.1401543999672867,389.4910004999838,None,390.6481968999724,None,right,0.3827801000443287,390.6481968999724,None,,,,,,,,,,,,,,,,,,,,,,,PPT26,001,2022-07-04_12h57.51.341,ABstudy,2022.1.4,60.01817350157759,
AB,Lag5_T1P_T2A,5,P,A,7,12,6,5,17,flower,Did you see the flower?,0.12,0.016,JPG\,cellphone,tomato01,comb02a,candy,celery,cucumber,craneflower,fan,feather03a,pen04b,lemon02,blueberry01,plate01b,cherry01,baseball01a,candle08b,blankImage,craneflower,,,,,,,,,,,,0,32,32,211,,,,,,,,,,,,,,,,,,,,,,,,,,,,,,,,,,,391.0508880999987,392.05025479994947,392.0345458999509,392.63475699996343,392.63475699996343,None,394.55975399998715,None,left,0.9448484999593347,394.55975399998715,None,395.5366492999601,None,right,0.3345957000274211,395.5366492999601,None,,,,,,,,,,,,,,,,,,,,,,,PPT26,001,2022-07-04_12h57.51.341,ABstudy,2022.1.4,60.01817350157759,
AB,Lag5_T1A_T2A,5,A,A,5,10,4,5,15,sword,Did you see the sword?,0.12,0.016,JPG\,pencil01,broccoli01a,button01,sponge01,watermelon01,lipstick02a,comb02a,fan,lighter01,sock01a,spoon01,blueberry01,belt02a,onion,grape01,blankImage,blankImage,parachute,,,,,,,,,,,,0,33,33,298,,,,,,,,,,,,,,,,,,,,,,,,,,,,,,,,,,,395.9633570999722,396.97135369997704,396.95458329998655,397.65016049996484,397.57284999999683,None,399.3164523000014,None,right,0.7710751000558957,399.3164523000014,None,400.11074639996514,None,right,0.5048160000005737,400.11074639996514,None,,,,,,,,,,,,,,,,,,,,,,,PPT26,001,2022-07-04_12h57.51.341,ABstudy,2022.1.4,60.01817350157759,
AB,Lag1_T1P_T2A,1,P,A,5,6,4,4,10,paper airplane,Did you see the paper airplane?,0.12,0.016,JPG\,thermometer02b,avocado01,scissors01,tennisball01b,paperairplane,banana01,strawberry,cigarette,potato02b,pineapple01a,blankImage,blankImage,blankImage,blankImage,blankImage,blankImage,blankImage,paperairplane,,,,,,,,,,,,0,34,34,191,,,,,,,,,,,,,,,,,,,,,,,,,,,,,,,,,,,400.65105519996723,401.65978789998917,401.644152999972,402.25602149998304,402.25602149998304,None,403.45555479999166,None,right,0.7756187999621034,403.45555479999166,None,404.26379649998853,None,right,0.47137090004980564,404.26379649998853,None,,,,,,,,,,,,,,,,,,,,,,,PPT26,001,2022-07-04_12h57.51.341,ABstudy,2022.1.4,60.01817350157759,
AB,Lag1_T1P_T2P,1,P,P,7,8,6,4,12,skunk,Did you see the skunk?,0.12,0.016,JPG\,fan,tomato01,candy,screwdriver04b,alligator,cd,skunk,stapler03b,button01,plate01b,brownsugar,lighter01,blankImage,blankImage,blankImage,blankImage,blankImage,skunk,,,,,,,,,,,,0,35,35,48,,,,,,,,,,,,,,,,,,,,,,,,,,,,,,,,,,,404.76615029998356,405.7801446999656,405.76343289995566,406.42111649998697,406.33952249999857,None,407.80927299999166,None,left,0.5593384999665432,407.80927299999166,None,408.3994193999679,None,left,0.21630009997170419,408.3994193999679,None,,,,,,,,,,,,,,,,,,,,,,,PPT26,001,2022-07-04_12h57.51.341,ABstudy,2022.1.4,60.01817350157759,
AB,Lag1_T1P_T2P,1,P,P,6,7,5,3,10,elephant,Did you see the elephant?,0.12,0.016,JPG\,clock01a,grape01,plate01b,key01,screwdriver04b,africanelephant,stapler03b,iron01b,toothbrush03b,comb02a,blankImage,blankImage,blankImage,blankImage,blankImage,blankImage,blankImage,africanelephant,,,,,,,,,,,,0,36,36,31,,,,,,,,,,,,,,,,,,,,,,,,,,,,,,,,,,,408.638515300001,409.6507440999849,409.63422629999695,410.2387117999606,410.2387117999606,None,411.45568289997755,None,left,0.839691800007131,411.45568289997755,None,412.3195344999549,None,right,0.2074768000165932,412.3195344999549,None,,,,,,,,,,,,,,,,,,,,,,,PPT26,001,2022-07-04_12h57.51.341,ABstudy,2022.1.4,60.01817350157759,
AB,Lag5_T1P_T2A,5,P,A,5,10,4,4,14,Ship in a bottle,Did you see the Ship in a bottle?,0.12,0.016,JPG\,sewingmachine01a,thermometer02b,sponge01,eraser,shipinabottle,fork03c,pizza,violin,belt02a,medal02b,pineapple01a,tennisball01b,dandelion,cauliflower01,blankImage,blankImage,blankImage,shipinabottle,,,,,,,,,,,,0,37,37,208,,,,,,,,,,,,,,,,,,,,,,,,,,,,,,,,,,,412.55842099996516,413.5712112999754,413.5546576999477,414.15629309997894,414.15629309997894,None,415.8487904999638,None,left,0.8628197999787517,415.8487904999638,None,416.7413484999561,None,right,0.346026899991557,416.7413484999561,None,,,,,,,,,,,,,,,,,,,,,,,PPT26,001,2022-07-04_12h57.51.341,ABstudy,2022.1.4,60.01817350157759,
AB,Lag1_T1A_T2P,1,A,P,5,6,4,5,11,rake,Did you see the rake?,0.12,0.016,JPG\,candy,brownsugar,dice05a,cd,sock01a,stapler01,button01,potato02b,feather03a,grape01,dandelion,blankImage,blankImage,blankImage,blankImage,blankImage,blankImage,greatwhiteshark,,,,,,,,,,,,0,38,38,256,,,,,,,,,,,,,,,,,,,,,,,,,,,,,,,,,,,417.11376569996355,418.12541429995326,418.1087506999611,418.682759599993,418.682759599993,None,420.0164326999802,None,right,1.3670160000328906,420.0164326999802,None,421.41218689997913,None,right,0.4831298000062816,421.41218689997913,None,,,,,,,,,,,,,,,,,,,,,,,PPT26,001,2022-07-04_12h57.51.341,ABstudy,2022.1.4,60.01817350157759,
AB,Lag1_T1P_T2P,1,P,P,7,8,6,5,13,arrow,Did you see the arrow?,0.12,0.016,JPG\,pencil01,broccoli01a,button01,sponge01,watermelon01,lipstick02a,arrow02,stapler04b,lighter01,sock01a,spoon01,blueberry01,belt02a,blankImage,blankImage,blankImage,blankImage,arrow02,,,,,,,,,,,,0,39,39,76,,,,,,,,,,,,,,,,,,,,,,,,,,,,,,,,,,,421.91568429995095,422.93041309999535,422.8970307999989,423.4783828999498,423.4783828999498,None,425.1031044999836,None,left,0.7040783999837004,425.1031044999836,None,425.83604079997167,None,left,0.6749586999649182,425.83604079997167,None,,,,,,,,,,,,,,,,,,,,,,,PPT26,001,2022-07-04_12h57.51.341,ABstudy,2022.1.4,60.01817350157759,
AB,Lag5_T1P_T2P,5,P,P,6,11,5,5,16,sword,Did you see the sword?,0.12,0.016,JPG\,chain01,speaker04,avocado01,watermelon01,scarf,sword01,lamp04a,fork03c,toaster01,slipper03b,stapler03a,cucumber,teabag,ashtray01,computerkeyboard02,book01b,blankImage,sword01,,,,,,,,,,,,0,40,40,143,,,,,,,,,,,,,,,,,,,,,,,,,,,,,,,,,,,426.53700699994806,427.55168589996174,427.51828969997587,428.09511719999136,428.09511719999136,None,430.0506394999684,None,left,1.2921609000186436,430.0506394999684,None,431.37212929996895,None,right,0.39526400004979223,431.37212929996895,None,,,,,,,,,,,,,,,,,,,,,,,PPT26,001,2022-07-04_12h57.51.341,ABstudy,2022.1.4,60.01817350157759,
AB,Lag1_T1P_T2A,1,P,A,7,8,6,3,11,Armadillo,Did you see the Armadillo?,0.12,0.016,JPG\,clock01a,cellphone,toaster01,toothbrush03b,cauliflower01,microscope,armadillo,paintbrush01,scarf,clock04,sponge01,blankImage,blankImage,blankImage,blankImage,blankImage,blankImage,armadillo,,,,,,,,,,,,0,41,41,180,,,,,,,,,,,,,,,,,,,,,,,,,,,,,,,,,,,431.79584149998846,432.8068428999977,432.79021519998787,433.37334709998686,433.37334709998686,None,434.71687509998446,None,left,1.0102243999717757,434.71687509998446,None,435.7597854999476,None,right,0.6318771000369452,435.7597854999476,None,,,,,,,,,,,,,,,,,,,,,,,PPT26,001,2022-07-04_12h57.51.341,ABstudy,2022.1.4,60.01817350157759,
AB,Lag5_T1P_T2P,5,P,P,7,12,6,5,17,Badminton Racket,Did you see the Badminton Racket?,0.12,0.016,JPG\,paintbrush01,dice05a,watermelon01,broccoli01a,hammer01,leaf02a,badmintonracket,tennisball01b,lemon02,fan,lipstick02a,stapler04b,envelope03a,sponge01,foosballtable,orange,blankImage,badmintonracket,,,,,,,,,,,,0,42,42,163,,,,,,,,,,,,,,,,,,,,,,,,,,,,,,,,,,,436.41550479998114,437.42808969999896,437.4113887999556,437.98557019996224,437.98557019996224,None,439.95165559998713,None,left,0.4154355000355281,439.95165559998713,None,440.39765209995676,None,left,0.585234500002116,440.39765209995676,None,,,,,,,,,,,,,,,,,,,,,,,PPT26,001,2022-07-04_12h57.51.341,ABstudy,2022.1.4,60.01817350157759,
AB,Lag1_T1A_T2P,1,A,P,7,8,6,3,11,lion,Did you see the lion?,0.12,0.016,JPG\,sock01a,spoon01,alligator,comb02a,printer02,medal02b,lamp04a,stapler01,greenolive,computerkeyboard02,cauliflower01,blankImage,blankImage,blankImage,blankImage,blankImage,blankImage,bullet,,,,,,,,,,,,0,43,43,229,,,,,,,,,,,,,,,,,,,,,,,,,,,,,,,,,,,441.0172709999606,442.03272949997336,441.9993740999489,442.58516379998764,442.58516379998764,None,443.93140239996137,None,right,1.0354156999965198,443.93140239996137,None,444.98601339996094,None,left,0.5807365999789909,444.98601339996094,None,,,,,,,,,,,,,,,,,,,,,,,PPT26,001,2022-07-04_12h57.51.341,ABstudy,2022.1.4,60.01817350157759,
AB,Lag1_T1P_T2A,1,P,A,8,9,7,5,14,Fridge,Did you see the Fridge?,0.12,0.016,JPG\,cherry01,cymbal,envelope03a,foosballtable,shirt02,cellphone,sewingmachine01a,fridge,battery02b,apple07,pencil01,screwdriver04b,strawberry,sunglasses04,blankImage,blankImage,blankImage,fridge,,,,,,,,,,,,0,44,44,173,,,,,,,,,,,,,,,,,,,,,,,,,,,,,,,,,,,445.5952280999627,446.60411989997374,446.587309799972,447.18018409999786,447.18018409999786,None,448.84009219997097,None,right,0.7436675999779254,448.84009219997097,None,449.60757769999327,None,right,3.1754038000362925,449.60757769999327,None,,,,,,,,,,,,,,,,,,,,,,,PPT26,001,2022-07-04_12h57.51.341,ABstudy,2022.1.4,60.01817350157759,
AB,Lag1_T1P_T2P,1,P,P,7,8,6,3,11,swing,Did you see the swing?,0.12,0.016,JPG\,sewingmachine01a,thermometer02b,sponge01,eraser,broccoli01a,fork03c,swing,stapler03b,belt02a,medal02b,pineapple01a,blankImage,blankImage,blankImage,blankImage,blankImage,blankImage,swing,,,,,,,,,,,,0,45,45,30,,,,,,,,,,,,,,,,,,,,,,,,,,,,,,,,,,,452.814999299997,453.82793859997764,453.81122609996237,454.40671249997104,454.40671249997104,None,455.71664719999535,None,left,0.7233248999691568,455.71664719999535,None,456.4637885999982,None,right,0.44718489999650046,456.4637885999982,None,,,,,,,,,,,,,,,,,,,,,,,PPT26,001,2022-07-04_12h57.51.341,ABstudy,2022.1.4,60.01817350157759,
AB,Lag1_T1P_T2A,1,P,A,6,7,5,4,11,bird,Did you see the bird?,0.12,0.016,JPG\,foosballtable,candy,envelope03a,microscope,pencil01,cedarwaxwing,scissors01,watermelon01,grape01,dandelion,pineapple01a,blankImage,blankImage,blankImage,blankImage,blankImage,blankImage,cedarwaxwing,,,,,,,,,,,,0,46,46,182,,,,,,,,,,,,,,,,,,,,,,,,,,,,,,,,,,,456.93315689999145,457.9485855999519,457.91519609995885,458.41657639999175,458.41657639999175,None,459.8307375999866,None,left,0.9762601999682374,459.8307375999866,None,460.83508509997046,None,right,0.8294861000031233,460.83508509997046,None,,,,,,,,,,,,,,,,,,,,,,,PPT26,001,2022-07-04_12h57.51.341,ABstudy,2022.1.4,60.01817350157759,
AB,Lag5_T1P_T2P,5,P,P,7,12,6,4,16,window,Did you see the window?,0.12,0.016,JPG\,cigarette,pig,banana01,strawberry,clock01a,plate01b,dormer,blueberry01,battery02b,pineapple01a,chain01,stapler01,candy,pen04b,teabag,birthdaycandle,blankImage,dormer,,,,,,,,,,,,0,47,47,170,,,,,,,,,,,,,,,,,,,,,,,,,,,,,,,,,,,461.691517499974,462.7034886999754,462.6866450999514,463.33859399997164,463.33859399997164,None,465.1691776999505,None,left,0.4134615000220947,465.1691776999505,None,465.6065211999812,None,left,0.3600832999800332,465.6065211999812,None,,,,,,,,,,,,,,,,,,,,,,,PPT26,001,2022-07-04_12h57.51.341,ABstudy,2022.1.4,60.01817350157759,
AB,Lag1_T1P_T2P,1,P,P,6,7,5,3,10,handcuffs,Did you see the handcuffs?,0.12,0.016,JPG\,sewingmachine01a,scarf,carrot01,book01b,eraser,handcuffs,stapler05,lipstick02a,printer02,garlic01a,blankImage,blankImage,blankImage,blankImage,blankImage,blankImage,blankImage,handcuffs,,,,,,,,,,,,0,48,48,2,,,,,,,,,,,,,,,,,,,,,,,,,,,,,,,,,,,465.99415259994566,467.00778049998917,466.99114499997813,467.57060909998836,467.57060909998836,None,468.7761315999669,None,left,0.6149384999880567,468.7761315999669,None,469.4128132999758,None,left,0.3463906000251882,469.4128132999758,None,,,,,,,,,,,,,,,,,,,,,,,PPT26,001,2022-07-04_12h57.51.341,ABstudy,2022.1.4,60.01817350157759,
AB,Lag5_T1A_T2P,5,A,P,8,13,7,5,18,lollipop,Did you see the lollipop?,0.12,0.016,JPG\,watermelon01,banana01,ring01,pencil01,tomato01,speaker04,cucumber,thermometer02b,key01,foosballtable,violin,spoon01,stapler04b,dice05a,pen04b,mushroom01,blankImage,jeans01,,,,,,,,,,,,0,49,49,262,,,,,,,,,,,,,,,,,,,,,,,,,,,,,,,,,,,469.7872992999619,470.7946993999649,470.7780244000023,471.36569739994593,471.36569739994593,None,473.3411782999756,None,left,0.5055693000322208,473.3411782999756,None,473.86480969999684,None,left,0.6537352000013925,473.86480969999684,None,,,,,,,,,,,,,,,,,,,,,,,PPT26,001,2022-07-04_12h57.51.341,ABstudy,2022.1.4,60.01817350157759,
AB,Lag1_T1P_T2P,1,P,P,8,9,7,4,13,ladder,Did you see the ladder?,0.12,0.016,JPG\,cigarette,fork03c,greenolive,broccoli01a,avocado01,tennisball01b,balloon01b,ladder,stapler03b,fan,clock01a,strawberry,envelope03a,blankImage,blankImage,blankImage,blankImage,ladder,,,,,,,,,,,,0,50,50,45,,,,,,,,,,,,,,,,,,,,,,,,,,,,,,,,,,,474.5523425999563,475.56626489997143,475.54976689995965,476.12619260000065,476.12619260000065,None,477.7569185999455,None,left,0.9701786999939941,477.7569185999455,None,478.7534316999954,None,right,0.509815700002946,478.7534316999954,None,,,,,,,,,,,,,,,,,,,,,,,PPT26,001,2022-07-04_12h57.51.341,ABstudy,2022.1.4,60.01817350157759,
AB,Lag1_T1A_T2P,1,A,P,8,9,7,4,13,Christmas tree,Did you see the Christmas tree?,0.12,0.016,JPG\,broom01,globe,cellphone,tableknife02,cauliflower01,scissors01,ring01,alligator,stapler03a,toaster01,cigarette,grape01,microscope,blankImage,blankImage,blankImage,blankImage,windmill,,,,,,,,,,,,0,51,51,247,,,,,,,,,,,,,,,,,,,,,,,,,,,,,,,,,,,479.2966250999598,480.3045942999888,480.2877638999489,480.8614349999698,480.8614349999698,None,482.5179808999528,None,right,2.0566669999971054,482.5179808999528,None,484.59216949995607,None,left,0.7602822000044398,484.59216949995607,None,,,,,,,,,,,,,,,,,,,,,,,PPT26,001,2022-07-04_12h57.51.341,ABstudy,2022.1.4,60.01817350157759,
AB,Lag1_T1P_T2P,1,P,P,8,9,7,3,12,bridge,Did you see the bridge?,0.12,0.016,JPG\,speaker04,sewingmachine01a,eraser,violin,globe,belt02a,sunglasses04,bridge,stapler01,greenolive,alligator,pear01,blankImage,blankImage,blankImage,blankImage,blankImage,bridge,,,,,,,,,,,,0,52,52,78,,,,,,,,,,,,,,,,,,,,,,,,,,,,,,,,,,,485.3801742999931,486.3935508999857,486.37684979999904,486.962528199947,486.962528199947,None,488.45127189997584,None,right,1.484014899993781,488.45127189997584,None,489.96419499994954,None,left,1.1943765000323765,489.96419499994954,None,,,,,,,,,,,,,,,,,,,,,,,PPT26,001,2022-07-04_12h57.51.341,ABstudy,2022.1.4,60.01817350157759,
AB,Lag5_T1A_T2P,5,A,P,5,10,4,4,14,duck,Did you see the duck?,0.12,0.016,JPG\,brick,eraser,cucumber,ashtray01,thermometer02b,binoculars01b,lipstick02a,screwdriver04b,grape01,stapler04b,battery02b,iron01b,dice05a,avocado01,blankImage,blankImage,blankImage,barrel01,,,,,,,,,,,,0,53,53,280,,,,,,,,,,,,,,,,,,,,,,,,,,,,,,,,,,,491.18539179995423,492.1994955999544,492.1660551999812,492.7520723999478,492.7520723999478,None,494.4811657999526,None,right,1.30173340003239,494.4811657999526,None,495.8028916999465,None,right,0.4690935999969952,495.8028916999465,None,,,,,,,,,,,,,,,,,,,,,,,PPT26,001,2022-07-04_12h57.51.341,ABstudy,2022.1.4,60.01817350157759,
AB,Lag5_T1P_T2P,5,P,P,7,12,6,5,17,flamingo,Did you see the flamingo?,0.12,0.016,JPG\,pig,belt02a,rice,screwdriver04b,candle01,apple07,flamingo,pear01,feather03a,match,thermometer02b,stapler06,lemon02,violin,medal02b,pineapple01a,blankImage,flamingo,,,,,,,,,,,,0,54,54,153,,,,,,,,,,,,,,,,,,,,,,,,,,,,,,,,,,,496.3056371999555,497.32107349997386,497.2876767999842,497.7904114999692,497.7904114999692,None,499.82149939995725,None,right,1.5374414999969304,499.82149939995725,None,501.37567019998096,None,left,0.8952601999626495,501.37567019998096,None,,,,,,,,,,,,,,,,,,,,,,,PPT26,001,2022-07-04_12h57.51.341,ABstudy,2022.1.4,60.01817350157759,
AB,Lag5_T1A_T2P,5,A,P,5,10,4,3,13,License Plate,Did you see the License Plate?,0.12,0.016,JPG\,tomato01,pen04b,shirt02,carrot01,lamp04a,key01,pizza,avocado01,sewingmachine01a,stapler06,iron01b,book01b,chain01,blankImage,blankImage,blankImage,blankImage,porcupine,,,,,,,,,,,,0,55,55,270,,,,,,,,,,,,,,,,,,,,,,,,,,,,,,,,,,,502.3039989999961,503.310648499988,503.2773746000021,503.881352700002,503.881352700002,None,505.48329859995283,None,right,2.788079000019934,505.48329859995283,None,508.29900909995195,None,left,1.9317195999901742,508.29900909995195,None,,,,,,,,,,,,,,,,,,,,,,,PPT26,001,2022-07-04_12h57.51.341,ABstudy,2022.1.4,60.01817350157759,
AB,Lag1_T1P_T2P,1,P,P,5,6,4,5,11,beaver,Did you see the beaver?,0.12,0.016,JPG\,belt02a,sunglasses04,computerkeyboard02,cherry01,beaver,stapler03a,watch02a,dice05a,blueberry01,spoon01,match,blankImage,blankImage,blankImage,blankImage,blankImage,blankImage,beaver,,,,,,,,,,,,0,56,56,55,,,,,,,,,,,,,,,,,,,,,,,,,,,,,,,,,,,510.25476589996833,511.26863619999494,511.2517649999936,511.8397988999495,511.8397988999495,None,513.1523308999604,None,left,1.68667289998848,513.1523308999604,None,514.8695558999898,None,right,0.833417100016959,514.8695558999898,None,,,,,,,,,,,,,,,,,,,,,,,PPT26,001,2022-07-04_12h57.51.341,ABstudy,2022.1.4,60.01817350157759,
AB,Lag1_T1P_T2P,1,P,P,6,7,5,4,11,cash register,Did you see the cash register?,0.12,0.016,JPG\,leaf02a,apple07,cd,pineapple01a,envelope03a,cashregister01,stapler03b,8ball,rice,feather03a,lemon02,blankImage,blankImage,blankImage,blankImage,blankImage,blankImage,cashregister01,,,,,,,,,,,,0,57,57,79,,,,,,,,,,,,,,,,,,,,,,,,,,,,,,,,,,,515.7345604999573,516.7402783999569,516.723580299993,517.3016668999917,517.3016668999917,None,518.7469171999837,None,left,1.1164235000032932,518.7469171999837,None,519.8935239999555,None,left,0.33767359994817525,519.8935239999555,None,,,,,,,,,,,,,,,,,,,,,,,PPT26,001,2022-07-04_12h57.51.341,ABstudy,2022.1.4,60.01817350157759,
AB,Lag1_T1P_T2P,1,P,P,8,9,7,3,12,Eiffel tower,Did you see the Eiffel tower?,0.12,0.016,JPG\,celery,tennisball01b,calculator01,pear01,screw02,orange,button01,eiffeltower,stapler03b,apple07,iron01b,brownsugar,blankImage,blankImage,blankImage,blankImage,blankImage,eiffeltower,,,,,,,,,,,,0,58,58,40,,,,,,,,,,,,,,,,,,,,,,,,,,,,,,,,,,,520.2677916999673,521.2785248999717,521.2619186999509,521.8969611999928,521.8969611999928,None,523.215352899977,None,left,0.9196818000054918,523.215352899977,None,524.1648762999685,None,left,0.2981706000282429,524.1648762999685,None,,,,,,,,,,,,,,,,,,,,,,,PPT26,001,2022-07-04_12h57.51.341,ABstudy,2022.1.4,60.01817350157759,
AB,Lag1_T1A_T2P,1,A,P,5,6,4,3,9,Crown,Did you see the Crown?,0.12,0.016,JPG\,leaf02a,pear01,measuringcup01,cigarette,fan,stapler04b,teabag,tableknife02,ring01,blankImage,blankImage,blankImage,blankImage,blankImage,blankImage,blankImage,blankImage,arrow02,,,,,,,,,,,,0,59,59,248,,,,,,,,,,,,,,,,,,,,,,,,,,,,,,,,,,,524.4875885999645,525.4995082999812,525.4827852000017,526.0550523999846,526.0550523999846,None,527.1675040999544,None,right,5.639957000035793,527.1675040999544,None,532.83997609996,None,left,2.0223692000145093,532.83997609996,None,,,,,,,,,,,,,,,,,,,,,,,PPT26,001,2022-07-04_12h57.51.341,ABstudy,2022.1.4,60.01817350157759,
AB,Lag1_T1P_T2P,1,P,P,8,9,7,3,12,zebra,Did you see the zebra?,0.12,0.016,JPG\,apple07,toiletpaper01a,pizza,dandelion,greenolive,eraser,microscope,zebra,stapler03b,lipstick02a,balloon01b,sandal,blankImage,blankImage,blankImage,blankImage,blankImage,zebra,,,,,,,,,,,,0,60,60,28,,,,,,,,,,,,,,,,,,,,,,,,,,,,,,,,,,,534.9000412999885,535.9098311999696,535.8928077999735,536.4732512999908,536.4732512999908,None,537.9729128999752,None,left,1.0832167000044137,537.9729128999752,None,539.0798251999659,None,left,0.2314943000092171,539.0798251999659,None,,,,,,,,,,,,,,,,,,,,,,,PPT26,001,2022-07-04_12h57.51.341,ABstudy,2022.1.4,60.01817350157759,
AB,Lag1_T1P_T2P,1,P,P,7,8,6,3,11,Daddy Long Legs,Did you see the Daddy Long Legs?,0.12,0.016,JPG\,lighter01,hammer01,spoon01,chain01,cymbal,sponge01,daddylonglegs,stapler03b,pig,watermelon01,cauliflower01,blankImage,blankImage,blankImage,blankImage,blankImage,blankImage,daddylonglegs,,,,,,,,,,,,0,61,61,86,,,,,,,,,,,,,,,,,,,,,,,,,,,,,,,,,,,539.3320920999977,540.3477148999809,540.314351399953,540.8841831999598,540.8841831999598,None,542.2518155999715,None,left,1.9395360999624245,542.2518155999715,None,544.2186467999709,None,left,1.1484390000114217,544.2186467999709,None,,,,,,,,,,,,,,,,,,,,,,,PPT26,001,2022-07-04_12h57.51.341,ABstudy,2022.1.4,60.01817350157759,
AB,Lag1_T1P_T2P,1,P,P,5,6,4,5,11,candy cane,Did you see the candy cane?,0.12,0.016,JPG\,shirt02,match,screw02,foosballtable,candycane01a,stapler04b,sewingmachine01a,watch02a,button01,comb02a,dice05a,blankImage,blankImage,blankImage,blankImage,blankImage,blankImage,candycane01a,,,,,,,,,,,,0,62,62,9,,,,,,,,,,,,,,,,,,,,,,,,,,,,,,,,,,,545.3923038999783,546.4032702999539,546.3870986999827,546.9711342999944,546.9711342999944,None,548.371582199994,None,left,0.7642329000518657,548.371582199994,None,549.1588604999706,None,left,0.40013260004343465,549.1588604999706,None,,,,,,,,,,,,,,,,,,,,,,,PPT26,001,2022-07-04_12h57.51.341,ABstudy,2022.1.4,60.01817350157759,
AB,Lag5_T1P_T2P,5,P,P,5,10,4,3,13,Jellyfish,Did you see the Jellyfish?,0.12,0.016,JPG\,printer02,envelope03a,potato02b,calculator01,jellyfish,cigarette,ashtray01,pig,broom01,stapler06,candle08b,battery02b,strawberry,blankImage,blankImage,blankImage,blankImage,jellyfish,,,,,,,,,,,,0,63,63,91,,,,,,,,,,,,,,,,,,,,,,,,,,,,,,,,,,,549.6419730999623,550.6410946999677,550.6245173999923,551.2397079999791,551.2397079999791,None,552.7735051999916,None,left,0.9696432000491768,552.7735051999916,None,553.7617189000011,None,left,1.5253095999942161,553.7617189000011,None,,,,,,,,,,,,,,,,,,,,,,,PPT26,001,2022-07-04_12h57.51.341,ABstudy,2022.1.4,60.01817350157759,
AB,Lag1_T1P_T2P,1,P,P,8,9,7,5,14,bullet,Did you see the bullet?,0.12,0.016,JPG\,measuringcup01,dice05a,greenolive,lipstick02a,feather03a,balloon01b,lighter01,bullet,stapler04b,plate01b,microscope,brick,thermometer02b,screw02,blankImage,blankImage,blankImage,bullet,,,,,,,,,,,,0,64,64,57,,,,,,,,,,,,,,,,,,,,,,,,,,,,,,,,,,,555.3174641999649,556.3301348999958,556.3134140999755,556.9136372999637,556.9136372999637,None,558.6258407999994,None,left,1.1172545000445098,558.6258407999994,None,559.766684799979,None,right,0.6244679000228643,559.766684799979,None,,,,,,,,,,,,,,,,,,,,,,,PPT26,001,2022-07-04_12h57.51.341,ABstudy,2022.1.4,60.01817350157759,
AB,Lag5_T1P_T2P,5,P,P,7,12,6,3,15,marble,Did you see the marble?,0.12,0.016,JPG\,cigarette,ashtray01,envelope03a,sandal,chain01,cucumber,marble,tomato01,dandelion,candle01,lemon02,stapler03b,potato02b,cymbal,clock01a,blankImage,blankImage,marble,,,,,,,,,,,,0,65,65,146,,,,,,,,,,,,,,,,,,,,,,,,,,,,,,,,,,,560.4194927999633,561.434942599968,561.4015913999756,561.9747356000007,561.9747356000007,None,563.8319757999852,None,left,0.462961399985943,563.8319757999852,None,564.3230687999749,None,left,0.46746649994747713,564.3230687999749,None,,,,,,,,,,,,,,,,,,,,,,,PPT26,001,2022-07-04_12h57.51.341,ABstudy,2022.1.4,60.01817350157759,
AB,Lag5_T1P_T2A,5,P,A,5,10,4,3,13,Totem Pole,Did you see the Totem Pole?,0.12,0.016,JPG\,canoftennisballs,banana01,scissors01,pig,totempole,leaf02a,pear01,sponge01,fork03c,tableknife02,balloon01b,match,toothbrush03b,blankImage,blankImage,blankImage,blankImage,totempole,,,,,,,,,,,,0,66,66,202,,,,,,,,,,,,,,,,,,,,,,,,,,,,,,,,,,,564.8274921999546,565.8394116999698,565.8228042999981,566.4112032999983,566.4112032999983,None,567.9952049999847,None,left,1.6996140999835916,567.9952049999847,None,569.7292350999778,None,right,0.46106369997141883,569.7292350999778,None,,,,,,,,,,,,,,,,,,,,,,,PPT26,001,2022-07-04_12h57.51.341,ABstudy,2022.1.4,60.01817350157759,
AB,Lag1_T1A_T2A,1,A,A,5,6,4,3,9,Pigeon,Did you see the Pigeon?,0.12,0.016,JPG\,candle01,paintbrush01,scissors01,fan,microscope,toothbrush03b,candle08b,watermelon01,teabag,blankImage,blankImage,blankImage,blankImage,blankImage,blankImage,blankImage,blankImage,floorlamp,,,,,,,,,,,,0,67,67,286,,,,,,,,,,,,,,,,,,,,,,,,,,,,,,,,,,,570.2125933999778,571.2280009999522,571.1946240999969,571.7581185000017,571.7581185000017,None,572.9035907999496,None,right,0.751077399996575,572.9035907999496,None,573.6808778999839,None,right,0.6858957000076771,573.6808778999839,None,,,,,,,,,,,,,,,,,,,,,,,PPT26,001,2022-07-04_12h57.51.341,ABstudy,2022.1.4,60.01817350157759,
AB,Lag1_T1A_T2A,1,A,A,8,9,7,4,13,Recycling bin,Did you see the Recycling bin?,0.12,0.016,JPG\,brick,plate01b,pen04b,toaster01,screwdriver04b,candle01,envelope03a,feather03a,pig,ring01,orange,clock01a,lighter01,blankImage,blankImage,blankImage,blankImage,bumpercar,,,,,,,,,,,,0,68,68,292,,,,,,,,,,,,,,,,,,,,,,,,,,,,,,,,,,,574.3972699999576,575.3984122999827,575.3816164999735,575.9545755999861,575.9545755999861,None,577.5843385999906,None,right,0.7505701000336558,577.5843385999906,None,578.3515241999994,None,right,1.1027607000432909,578.3515241999994,None,,,,,,,,,,,,,,,,,,,,,,,PPT26,001,2022-07-04_12h57.51.341,ABstudy,2022.1.4,60.01817350157759,
AB,Lag1_T1A_T2P,1,A,P,8,9,7,4,13,nose,Did you see the nose?,0.12,0.016,JPG\,pizza,strawberry,potato02b,speaker04,battery02b,iron01b,dice05a,cellphone,stapler06,banana01,medal02b,baseball01a,toaster01,blankImage,blankImage,blankImage,blankImage,cow,,,,,,,,,,,,0,69,69,231,,,,,,,,,,,,,,,,,,,,,,,,,,,,,,,,,,,579.4858097999822,580.4871656999458,580.4700409999932,581.0505536999553,581.0505536999553,None,582.6633248999715,None,right,1.2233254999737255,582.6633248999715,None,583.9067117999657,None,left,0.22773250000318512,583.9067117999657,None,,,,,,,,,,,,,,,,,,,,,,,PPT26,001,2022-07-04_12h57.51.341,ABstudy,2022.1.4,60.01817350157759,
AB,Lag1_T1A_T2A,1,A,A,8,9,7,3,12,popcorn,Did you see the popcorn?,0.12,0.016,JPG\,brownsugar,candle01,match,printer02,broom01,balloon01b,belt02a,potato02b,computerkeyboard02,feather03a,rice,mushroom01,blankImage,blankImage,blankImage,blankImage,blankImage,banjo,,,,,,,,,,,,0,70,70,290,,,,,,,,,,,,,,,,,,,,,,,,,,,,,,,,,,,584.1569863999612,585.1588728999486,585.141978599946,585.641885399993,585.641885399993,None,587.247092799982,None,right,1.2875314999837428,587.247092799982,None,588.5614143999992,None,right,0.772601000033319,588.5614143999992,None,,,,,,,,,,,,,,,,,,,,,,,PPT26,001,2022-07-04_12h57.51.341,ABstudy,2022.1.4,60.01817350157759,
AB,Lag5_T1A_T2P,5,A,P,7,12,6,3,15,hockey puck,Did you see the hockey puck?,0.12,0.016,JPG\,toiletpaper01a,lipstick02a,potato02b,speaker04,globe,strawberry,carrot01,plate01b,sock01a,candle08b,pen04b,stapler04b,foosballtable,brick,pear01,blankImage,blankImage,frisbee,,,,,,,,,,,,0,71,71,260,,,,,,,,,,,,,,,,,,,,,,,,,,,,,,,,,,,589.3621775999782,590.3632395999739,590.3473731999984,590.9207706999732,590.9207706999732,None,592.7574355999823,None,right,1.0973546000313945,592.7574355999823,None,593.8833384999889,None,right,0.38769639999372885,593.8833384999889,None,,,,,,,,,,,,,,,,,,,,,,,PPT26,001,2022-07-04_12h57.51.341,ABstudy,2022.1.4,60.01817350157759,
AB,Lag1_T1P_T2A,1,P,A,7,8,6,3,11,walkie talkie,Did you see the walkie talkie?,0.12,0.016,JPG\,teabag,envelope03a,cellphone,apple07,cauliflower01,orange,walkietalkie,book01b,hammer01,feather03a,toaster01,blankImage,blankImage,blankImage,blankImage,blankImage,blankImage,walkietalkie,,,,,,,,,,,,0,72,72,197,,,,,,,,,,,,,,,,,,,,,,,,,,,,,,,,,,,594.3039658999769,595.3186663999804,595.2852580999606,595.8633929999778,595.8633929999778,None,597.2601386999595,None,left,0.7379740999895148,597.2601386999595,None,598.021721499972,None,right,0.5373283000080846,598.021721499972,None,,,,,,,,,,,,,,,,,,,,,,,PPT26,001,2022-07-04_12h57.51.341,ABstudy,2022.1.4,60.01817350157759,
AB,Lag1_T1P_T2P,1,P,P,6,7,5,4,11,American football,Did you see the American football?,0.12,0.016,JPG\,toaster01,garlic01a,faucet,fan,comb02a,football,stapler06,watch02a,onion,blueberry01,toiletpaper01a,blankImage,blankImage,blankImage,blankImage,blankImage,blankImage,football,,,,,,,,,,,,0,73,73,12,,,,,,,,,,,,,,,,,,,,,,,,,,,,,,,,,,,598.5947928999667,599.6064210999757,599.5898288000026,600.1841839999543,600.1841839999543,None,601.4917369999457,None,left,0.6684504000004381,601.4917369999457,None,602.1921542999917,None,left,0.8067441000021063,602.1921542999917,None,,,,,,,,,,,,,,,,,,,,,,,PPT26,001,2022-07-04_12h57.51.341,ABstudy,2022.1.4,60.01817350157759,
AB,Lag5_T1P_T2P,5,P,P,6,11,5,4,15,boxing glove,Did you see the boxing glove?,0.12,0.016,JPG\,button01,celery,birthdaycandle,apple07,avocado01,boxingglove01,dice05a,teabag,clock01a,feather03a,stapler06,scarf,orange,battery02b,thermometer02b,blankImage,blankImage,boxingglove01,,,,,,,,,,,,0,74,74,165,,,,,,,,,,,,,,,,,,,,,,,,,,,,,,,,,,,603.032980799966,604.0442947999691,604.0275521999574,604.6004951999639,604.6004951999639,None,606.4451031999779,None,left,0.39326589996926486,606.4451031999779,None,606.8637844999903,None,left,0.33559689996764064,606.8637844999903,None,,,,,,,,,,,,,,,,,,,,,,,PPT26,001,2022-07-04_12h57.51.341,ABstudy,2022.1.4,60.01817350157759,
AB,Lag5_T1A_T2P,5,A,P,7,12,6,3,15,Car,Did you see the Car?,0.12,0.016,JPG\,lighter01,hammer01,spoon01,chain01,cymbal,sponge01,lipstick02a,alligator,pig,watermelon01,cauliflower01,stapler03b,broccoli01a,tableknife02,tennisball01b,blankImage,blankImage,wallclock,,,,,,,,,,,,0,75,75,277,,,,,,,,,,,,,,,,,,,,,,,,,,,,,,,,,,,607.2354234999511,608.2484988999786,608.2317585999845,608.7978398999549,608.7978398999549,None,610.6161851999932,None,right,1.3180148999672383,610.6161851999932,None,611.9546827999875,None,right,0.9165779000031762,611.9546827999875,None,,,,,,,,,,,,,,,,,,,,,,,PPT26,001,2022-07-04_12h57.51.341,ABstudy,2022.1.4,60.01817350157759,
AB,Lag1_T1P_T2P,1,P,P,5,6,4,5,11,Basketball,Did you see the Basketball?,0.12,0.016,JPG\,pencil01,microscope,banana01,computerkeyboard02,basketball01,stapler04b,scissors01,sock01a,book01b,onion,dice05a,blankImage,blankImage,blankImage,blankImage,blankImage,blankImage,basketball01,,,,,,,,,,,,0,76,76,34,,,,,,,,,,,,,,,,,,,,,,,,,,,,,,,,,,,612.9662793999887,613.9706927999505,613.9540365999565,614.5353181999526,614.5353181999526,None,615.8291401999886,None,left,1.5291518000303768,615.8291401999886,None,617.390597599966,None,left,1.2795745999901555,617.390597599966,None,,,,,,,,,,,,,,,,,,,,,,,PPT26,001,2022-07-04_12h57.51.341,ABstudy,2022.1.4,60.01817350157759,
AB,Lag5_T1P_T2P,5,P,P,7,12,6,5,17,Pigeon,Did you see the Pigeon?,0.12,0.016,JPG\,strawberry,leaf02a,clock04,candle01,avocado01,paintbrush01,pigeon,brownsugar,ring01,lemon02,fork03c,stapler01,cauliflower01,tableknife02,tennisball01b,thermometer02b,blankImage,pigeon,,,,,,,,,,,,0,77,77,151,,,,,,,,,,,,,,,,,,,,,,,,,,,,,,,,,,,618.6942106999923,619.7095730999717,619.6762115999591,620.2649051999906,620.2649051999906,None,622.2630867999978,None,left,0.45524649997241795,622.2630867999978,None,622.7462919999962,None,left,0.2933432999998331,622.7462919999962,None,,,,,,,,,,,,,,,,,,,,,,,PPT26,001,2022-07-04_12h57.51.341,ABstudy,2022.1.4,60.01817350157759,
AB,Lag5_T1P_T2P,5,P,P,8,13,7,4,17,trumpet,Did you see the trumpet?,0.12,0.016,JPG\,toaster01,scarf,toiletpaper01a,calculator01,violin,sewingmachine01a,fan,trumpet,strawberry,balloon01b,brownsugar,eraser,stapler01,rice,ring01,shirt02,blankImage,trumpet,,,,,,,,,,,,0,78,78,145,,,,,,,,,,,,,,,,,,,,,,,,,,,,,,,,,,,623.0676698999596,624.0808151999954,624.0640361999976,624.6580722999643,624.6580722999643,None,626.5598118999624,None,left,0.7422187000047415,626.5598118999624,None,627.3340814999538,None,left,0.7368507999926805,627.3340814999538,None,,,,,,,,,,,,,,,,,,,,,,,PPT26,001,2022-07-04_12h57.51.341,ABstudy,2022.1.4,60.01817350157759,
AB,Lag1_T1P_T2P,1,P,P,7,8,6,3,11,Moose,Did you see the Moose?,0.12,0.016,JPG\,sock01a,spoon01,alligator,comb02a,printer02,medal02b,moose,stapler03a,greenolive,computerkeyboard02,cauliflower01,blankImage,blankImage,blankImage,blankImage,blankImage,blankImage,moose,,,,,,,,,,,,0,79,79,67,,,,,,,,,,,,,,,,,,,,,,,,,,,,,,,,,,,628.1061408999958,629.1192405999755,629.1025980999693,629.6792762999539,629.6792762999539,None,631.0810472999583,None,left,1.1422627000138164,631.0810472999583,None,632.2554384999676,None,right,0.30295560002559796,632.2554384999676,None,,,,,,,,,,,,,,,,,,,,,,,PPT26,001,2022-07-04_12h57.51.341,ABstudy,2022.1.4,60.01817350157759,
AB,Lag5_T1P_T2P,5,P,P,8,13,7,3,16,parachute,Did you see the parachute?,0.12,0.016,JPG\,brick,plate01b,pen04b,toaster01,screwdriver04b,candle01,envelope03a,parachute,pig,ring01,orange,clock01a,stapler03b,calculator01,mushroom01,chain01,blankImage,parachute,,,,,,,,,,,,0,80,80,114,,,,,,,,,,,,,,,,,,,,,,,,,,,,,,,,,,,632.5918341999641,633.6070056999451,633.5737369999988,634.151049499982,634.151049499982,None,636.1242585,None,left,0.41792189999250695,636.1242585,None,636.5600850999472,None,left,0.43109199998434633,636.5600850999472,None,,,,,,,,,,,,,,,,,,,,,,,PPT26,001,2022-07-04_12h57.51.341,ABstudy,2022.1.4,60.01817350157759,
AB,Lag5_T1P_T2A,5,P,A,6,11,5,5,16,World map,Did you see the World map?,0.12,0.016,JPG\,cigarette,pig,banana01,strawberry,clock01a,worldmap,spoon01,blueberry01,battery02b,pineapple01a,chain01,paintbrush01,candy,pen04b,teabag,birthdaycandle,blankImage,worldmap,,,,,,,,,,,,0,81,81,205,,,,,,,,,,,,,,,,,,,,,,,,,,,,,,,,,,,637.0161955999793,638.0280296999845,638.0112755000009,638.5985991999623,638.5985991999623,None,640.4475726999808,None,left,1.1358197999652475,640.4475726999808,None,641.614831999992,None,right,0.42344390001380816,641.614831999992,None,,,,,,,,,,,,,,,,,,,,,,,PPT26,001,2022-07-04_12h57.51.341,ABstudy,2022.1.4,60.01817350157759,
AB,Lag1_T1P_T2A,1,P,A,5,6,4,5,11,Sailboat,Did you see the Sailboat?,0.12,0.016,JPG\,chain01,speaker04,avocado01,watermelon01,sailboat,comb02a,lamp04a,fork03c,toaster01,slipper03b,scissors01,blankImage,blankImage,blankImage,blankImage,blankImage,blankImage,sailboat,,,,,,,,,,,,0,82,82,193,,,,,,,,,,,,,,,,,,,,,,,,,,,,,,,,,,,642.0683258999488,643.0831247000024,643.049518099986,643.6388140999479,643.6388140999479,None,645.0145260999561,None,left,1.2396104999934323,645.0145260999561,None,646.2861592999543,None,right,0.37693959998432547,646.2861592999543,None,,,,,,,,,,,,,,,,,,,,,,,PPT26,001,2022-07-04_12h57.51.341,ABstudy,2022.1.4,60.01817350157759,
AB,Lag5_T1P_T2P,5,P,P,6,11,5,4,15,punching bag,Did you see the punching bag?,0.12,0.016,JPG\,foosballtable,cigarette,pen04b,birthdaycandle,hammer01,punchingbag,binoculars01b,chain01,potato02b,cauliflower01,stapler04b,ashtray01,scarf,cellphone,calculator01,blankImage,blankImage,punchingbag,,,,,,,,,,,,0,83,83,156,,,,,,,,,,,,,,,,,,,,,,,,,,,,,,,,,,,646.6900124999811,647.7041703999857,647.6874796999618,648.1902588999947,648.1739855999476,None,650.1211563999532,None,left,2.3889769000234082,650.1211563999532,None,652.5427271999652,None,right,0.47954839997692034,652.5427271999652,None,,,,,,,,,,,,,,,,,,,,,,,PPT26,001,2022-07-04_12h57.51.341,ABstudy,2022.1.4,60.01817350157759,
AB,Lag1_T1P_T2A,1,P,A,7,8,6,3,11,Snowshoe,Did you see the Snowshoe?,0.12,0.016,JPG\,birthdaycandle,mushroom01,strawberry,match,cherry01,eraser,snowshoe,thermometer02b,sock01a,ring01,feather03a,blankImage,blankImage,blankImage,blankImage,blankImage,blankImage,snowshoe,,,,,,,,,,,,0,84,84,194,,,,,,,,,,,,,,,,,,,,,,,,,,,,,,,,,,,653.0877326999907,654.0940349999582,654.0773243999574,654.5913576000021,654.5913576000021,None,655.928729599982,None,right,1.4782781999674626,655.928729599982,None,657.4308875999996,None,right,0.29593150003347546,657.4308875999996,None,,,,,,,,,,,,,,,,,,,,,,,PPT26,001,2022-07-04_12h57.51.341,ABstudy,2022.1.4,60.01817350157759,
AB,Lag5_T1A_T2P,5,A,P,5,10,4,5,15,Eye patch,Did you see the Eye patch?,0.12,0.016,JPG\,scissors01,balloon01b,eraser,feather03a,banana01,candle01,measuringcup01,calculator01,thermometer02b,stapler03b,pear01,carrot01,globe,baseball01a,leaf02a,blankImage,blankImage,cross01,,,,,,,,,,,,0,85,85,258,,,,,,,,,,,,,,,,,,,,,,,,,,,,,,,,,,,657.7537624999532,658.765310799994,658.7486210999778,659.3286605999456,659.3286605999456,None,661.2063268999918,None,right,1.5759423999697901,661.2063268999918,None,662.8025187999592,None,right,0.42772550001973286,662.8025187999592,None,,,,,,,,,,,,,,,,,,,,,,,PPT26,001,2022-07-04_12h57.51.341,ABstudy,2022.1.4,60.01817350157759,
AB,Lag5_T1P_T2P,5,P,P,8,13,7,5,18,skis,Did you see the skis?,0.12,0.016,JPG\,tennisball01b,paintbrush01,medal02b,apple07,speaker04,iron01b,avocado01,downhillski,belt02a,toiletpaper01a,watermelon01,candle01,stapler01,cymbal,ashtray01,screwdriver04b,blankImage,downhillski,,,,,,,,,,,,0,86,86,106,,,,,,,,,,,,,,,,,,,,,,,,,,,,,,,,,,,663.255177199957,664.2706453999854,664.2371967999497,664.8363851999748,664.8363851999748,None,666.8096540999832,None,left,0.8206768999807537,666.8096540999832,None,667.6583280999912,None,right,0.3478064000373706,667.6583280999912,None,,,,,,,,,,,,,,,,,,,,,,,PPT26,001,2022-07-04_12h57.51.341,ABstudy,2022.1.4,60.01817350157759,
AB,Lag5_T1P_T2P,5,P,P,5,10,4,5,15,Eye,Did you see the Eye?,0.12,0.016,JPG\,apple07,toiletpaper01a,pizza,dandelion,eye,eraser,microscope,violin,orange,stapler01,balloon01b,sandal,lighter01,fan,book01b,blankImage,blankImage,eye,,,,,,,,,,,,0,87,87,171,,,,,,,,,,,,,,,,,,,,,,,,,,,,,,,,,,,668.0309246999677,669.0423988999682,669.0256353999721,669.6366543999757,669.6366543999757,None,671.4210451999679,None,left,0.7533488000044599,671.4210451999679,None,672.1952657999936,None,right,1.5469721999834292,672.1952657999936,None,,,,,,,,,,,,,,,,,,,,,,,PPT26,001,2022-07-04_12h57.51.341,ABstudy,2022.1.4,60.01817350157759,
AB,Lag1_T1P_T2P,1,P,P,5,6,4,3,9,hockey stick,Did you see the hockey stick?,0.12,0.016,JPG\,violin,pizza,toothbrush03b,pineapple01a,hockeystick,stapler03b,candy,dandelion,clock04,blankImage,blankImage,blankImage,blankImage,blankImage,blankImage,blankImage,blankImage,hockeystick,,,,,,,,,,,,0,88,88,63,,,,,,,,,,,,,,,,,,,,,,,,,,,,,,,,,,,673.7661402999656,674.7813532999717,674.7481098999851,675.3323625999619,675.3323625999619,None,676.5155654999544,None,left,3.3312327000312507,676.5155654999544,None,679.8702038999763,None,right,0.528381799987983,679.8702038999763,None,,,,,,,,,,,,,,,,,,,,,,,PPT26,001,2022-07-04_12h57.51.341,ABstudy,2022.1.4,60.01817350157759,
AB,Lag5_T1P_T2P,5,P,P,7,12,6,5,17,elbow,Did you see the elbow?,0.12,0.016,JPG\,candle01,fork03c,plate01b,violin,computerkeyboard02,candy,elbow,paintbrush01,cherry01,sock01a,teabag,stapler01,cd,lighter01,book01b,tennisball01b,blankImage,elbow,,,,,,,,,,,,0,89,89,87,,,,,,,,,,,,,,,,,,,,,,,,,,,,,,,,,,,680.4227296999888,681.4376574999769,681.4048268999904,681.9823786999914,681.9823786999914,None,683.9724438999547,None,left,0.50617800001055,683.9724438999547,None,684.5100478999666,None,left,0.40057830000296235,684.5100478999666,None,,,,,,,,,,,,,,,,,,,,,,,PPT26,001,2022-07-04_12h57.51.341,ABstudy,2022.1.4,60.01817350157759,
AB,Lag5_T1P_T2P,5,P,P,6,11,5,3,14,shower head,Did you see the shower head?,0.12,0.016,JPG\,belt02a,measuringcup01,spoon01,chain01,greenolive,showerhead01,computerkeyboard02,onion,fan,strawberry,stapler01,broom01,binoculars01b,ashtray01,blankImage,blankImage,blankImage,showerhead01,,,,,,,,,,,,0,90,90,98,,,,,,,,,,,,,,,,,,,,,,,,,,,,,,,,,,,684.9451807999867,685.9595163999475,685.943926899985,686.5262589999475,686.5262589999475,None,688.246459499991,None,right,1.6157306000241078,688.246459499991,None,689.8798351999721,None,left,0.30269749998115003,689.8798351999721,None,,,,,,,,,,,,,,,,,,,,,,,PPT26,001,2022-07-04_12h57.51.341,ABstudy,2022.1.4,60.01817350157759,
AB,Lag1_T1P_T2P,1,P,P,6,7,5,3,10,windmill,Did you see the windmill?,0.12,0.016,JPG\,pizza,printer02,medal02b,spoon01,grape01,windmill,stapler04b,watermelon01,celery,battery02b,blankImage,blankImage,blankImage,blankImage,blankImage,blankImage,blankImage,windmill,,,,,,,,,,,,0,91,91,75,,,,,,,,,,,,,,,,,,,,,,,,,,,,,,,,,,,690.2185271999915,691.2309875999927,691.2145629999577,691.8010893999599,691.8010893999599,None,693.0181829999783,None,left,3.3078356999903917,693.0181829999783,None,696.3525712999981,None,right,0.5171936000115238,696.3525712999981,None,,,,,,,,,,,,,,,,,,,,,,,PPT26,001,2022-07-04_12h57.51.341,ABstudy,2022.1.4,60.01817350157759,
AB,Lag5_T1A_T2A,5,A,A,5,10,4,5,15,window,Did you see the window?,0.12,0.016,JPG\,leaf02a,apple07,cd,pineapple01a,envelope03a,paintbrush01,pig,canoftennisballs,rice,feather03a,lemon02,balloon01b,avocado01,calculator01,watermelon01,blankImage,blankImage,saxophone,,,,,,,,,,,,0,92,92,301,,,,,,,,,,,,,,,,,,,,,,,,,,,,,,,,,,,696.8889246999752,697.9041338999523,697.8707745999563,698.4878587999847,698.4878587999847,None,700.3238842999563,None,right,1.0748032000265084,700.3238842999563,None,701.4242298000026,None,right,0.6545628999592736,701.4242298000026,None,,,,,,,,,,,,,,,,,,,,,,,PPT26,001,2022-07-04_12h57.51.341,ABstudy,2022.1.4,60.01817350157759,
AB,Lag1_T1P_T2P,1,P,P,8,9,7,4,13,bowling ball,Did you see the bowling ball?,0.12,0.016,JPG\,dandelion,pineapple01a,broom01,pen04b,sock01a,sandal,foosballtable,bowlingball,stapler01,toothbrush03b,celery,candle08b,tennisball01b,blankImage,blankImage,blankImage,blankImage,bowlingball,,,,,,,,,,,,0,93,93,7,,,,,,,,,,,,,,,,,,,,,,,,,,,,,,,,,,,702.1148705999949,703.1268897999544,703.111338799994,703.6132239999715,703.6132239999715,None,705.2906988999457,None,left,1.028019100020174,705.2906988999457,None,706.346191199962,None,left,0.2355861000251025,706.346191199962,None,,,,,,,,,,,,,,,,,,,,,,,PPT26,001,2022-07-04_12h57.51.341,ABstudy,2022.1.4,60.01817350157759,
AB,Lag1_T1P_T2A,1,P,A,8,9,7,5,14,Parrot,Did you see the Parrot?,0.12,0.016,JPG\,candy,brownsugar,dice05a,cd,sock01a,blueberry01,button01,parrot01,feather03a,grape01,dandelion,scissors01,watch02a,candle08b,blankImage,blankImage,blankImage,parrot01,,,,,,,,,,,,0,94,94,192,,,,,,,,,,,,,,,,,,,,,,,,,,,,,,,,,,,706.6179573999834,707.6304350999999,707.6137942999485,708.2367424999829,708.2367424999829,None,709.9537845999585,None,left,3.468419399985578,709.9537845999585,None,713.4529776999843,None,right,0.6573559999815188,713.4529776999843,None,,,,,,,,,,,,,,,,,,,,,,,PPT26,001,2022-07-04_12h57.51.341,ABstudy,2022.1.4,60.01817350157759,
AB,Lag5_T1A_T2P,5,A,P,7,12,6,5,17,Rollerblade,Did you see the Rollerblade?,0.12,0.016,JPG\,binoculars01b,cymbal,pizza,candy,paintbrush01,sponge01,grape01,thermometer02b,speaker04,lemon02,lipstick02a,stapler03b,candle01,8ball,plate01b,pen04b,blankImage,lion,,,,,,,,,,,,0,95,95,266,,,,,,,,,,,,,,,,,,,,,,,,,,,,,,,,,,,714.1396482999553,715.1546433999902,715.1212931999471,715.708094200003,715.708094200003,None,717.6367174999905,None,right,1.2345894000027329,717.6367174999905,None,718.8945394999464,None,left,0.2877046999637969,718.8945394999464,None,,,,,,,,,,,,,,,,,,,,,,,PPT26,001,2022-07-04_12h57.51.341,ABstudy,2022.1.4,60.01817350157759,
AB,Lag5_T1P_T2P,5,P,P,6,11,5,3,14,wrench,Did you see the wrench?,0.12,0.016,JPG\,cherry01,cymbal,envelope03a,foosballtable,shirt02,stubbywrench01a,sewingmachine01a,candle08b,battery02b,apple07,stapler03b,screwdriver04b,strawberry,sunglasses04,blankImage,blankImage,blankImage,stubbywrench01a,,,,,,,,,,,,0,96,96,122,,,,,,,,,,,,,,,,,,,,,,,,,,,,,,,,,,,719.2199772999738,720.2269041999825,720.2113262999919,720.8062355999718,720.8062355999718,None,722.5113443000009,None,left,0.3835038000252098,722.5113443000009,None,722.9122892000014,None,left,0.26953380001941696,722.9122892000014,None,,,,,,,,,,,,,,,,,,,,,,,PPT26,001,2022-07-04_12h57.51.341,ABstudy,2022.1.4,60.01817350157759,
AB,Lag5_T1P_T2P,5,P,P,6,11,5,4,15,Witch hat,Did you see the Witch hat?,0.12,0.016,JPG\,pizza,watch02a,greenolive,cucumber,match,witchhat,scissors01,broom01,globe,cherry01,stapler03a,cigarette,microscope,cellphone,speaker04,blankImage,blankImage,witchhat,,,,,,,,,,,,0,97,97,101,,,,,,,,,,,,,,,,,,,,,,,,,,,,,,,,,,,723.2148912999546,724.230521599995,724.1971128999721,724.8032501999987,724.8032501999987,None,726.6408304999932,None,left,0.8691375000053085,726.6408304999932,None,727.5335397999734,None,right,0.4563612000201829,727.5335397999734,None,,,,,,,,,,,,,,,,,,,,,,,PPT26,001,2022-07-04_12h57.51.341,ABstudy,2022.1.4,60.01817350157759,
AB,Lag5_T1P_T2P,5,P,P,8,13,7,5,18,bed,Did you see the bed?,0.12,0.016,JPG\,pencil01,broccoli01a,button01,sponge01,watermelon01,lipstick02a,comb02a,bed,lighter01,sock01a,spoon01,blueberry01,stapler04b,onion,grape01,avocado01,blankImage,bed,,,,,,,,,,,,0,98,98,124,,,,,,,,,,,,,,,,,,,,,,,,,,,,,,,,,,,728.0196239999495,729.0350623999839,729.0017340999912,729.6165699999547,729.6165699999547,None,731.5455513999914,None,left,0.9241876999731176,731.5455513999914,None,732.489721699967,None,right,0.38887620001332834,732.489721699967,None,,,,,,,,,,,,,,,,,,,,,,,PPT26,001,2022-07-04_12h57.51.341,ABstudy,2022.1.4,60.01817350157759,
AB,Lag5_T1P_T2A,5,P,A,5,10,4,3,13,pin,Did you see the pin?,0.12,0.016,JPG\,candle01,fork03c,plate01b,violin,pin,candy,calculator01,paintbrush01,cherry01,sock01a,teabag,banana01,cd,blankImage,blankImage,blankImage,blankImage,pin,,,,,,,,,,,,0,99,99,215,,,,,,,,,,,,,,,,,,,,,,,,,,,,,,,,,,,732.9124755999655,733.9236237999867,733.9070041999803,734.4800726999529,734.4800726999529,None,736.0857022999553,None,right,0.9841558000189252,736.0857022999553,None,737.0934936999693,None,right,0.3125075999996625,737.0934936999693,None,,,,,,,,,,,,,,,,,,,,,,,PPT26,001,2022-07-04_12h57.51.341,ABstudy,2022.1.4,60.01817350157759,
AB,Lag1_T1P_T2A,1,P,A,8,9,7,5,14,Sausage,Did you see the Sausage?,0.12,0.016,JPG\,pencil01,broccoli01a,button01,sponge01,watermelon01,lipstick02a,comb02a,sausage,lighter01,sock01a,spoon01,blueberry01,belt02a,onion,blankImage,blankImage,blankImage,sausage,,,,,,,,,,,,0,100,100,175,,,,,,,,,,,,,,,,,,,,,,,,,,,,,,,,,,,737.4337579999701,738.4447415999603,738.4279138999991,739.0063719999744,739.0063719999744,None,740.6914108999772,None,left,1.6027254000073299,740.6914108999772,None,742.3150308999466,None,right,0.6271291999728419,742.3150308999466,None,,,,,,,,,,,,,,,,,,,,,,,PPT26,001,2022-07-04_12h57.51.341,ABstudy,2022.1.4,60.01817350157759,
AB,Lag5_T1P_T2P,5,P,P,8,13,7,5,18,sock,Did you see the sock?,0.12,0.016,JPG\,thermometer02b,avocado01,scissors01,tennisball01b,medal02b,banana01,strawberry,athleticsock,potato02b,pineapple01a,microscope,cymbal,stapler03b,celery,garlic01a,sunglasses04,blankImage,athleticsock,,,,,,,,,,,,0,101,101,141,,,,,,,,,,,,,,,,,,,,,,,,,,,,,,,,,,,742.967899899988,743.9833111999906,743.9499849999556,744.530605899985,744.530605899985,None,746.4975650999695,None,left,0.5561323000001721,746.4975650999695,None,747.0863947999896,None,left,0.3844768000417389,747.0863947999896,None,,,,,,,,,,,,,,,,,,,,,,,PPT26,001,2022-07-04_12h57.51.341,ABstudy,2022.1.4,60.01817350157759,
AB,Lag5_T1P_T2P,5,P,P,5,10,4,5,15,funnel,Did you see the funnel?,0.12,0.016,JPG\,pineapple01a,tennisball01b,computerkeyboard02,feather03a,funnel,acorn,violin,blueberry01,medal02b,stapler01,greenolive,screwdriver04b,potato02b,fork03c,cymbal,blankImage,blankImage,funnel,,,,,,,,,,,,0,102,102,109,,,,,,,,,,,,,,,,,,,,,,,,,,,,,,,,,,,747.5115338999894,748.5210001999512,748.5043117999448,749.0812752999482,749.0812752999482,None,750.8272763999994,None,left,0.41069640003843233,750.8272763999994,None,751.257341599965,None,left,0.3094073999673128,751.257341599965,None,,,,,,,,,,,,,,,,,,,,,,,PPT26,001,2022-07-04_12h57.51.341,ABstudy,2022.1.4,60.01817350157759,
AB,Lag5_T1A_T2P,5,A,P,5,10,4,5,15,shower,Did you see the shower?,0.12,0.016,JPG\,sewingmachine01a,thermometer02b,sponge01,eraser,broccoli01a,fork03c,pizza,violin,belt02a,stapler04b,pineapple01a,tennisball01b,dandelion,cauliflower01,lemon02,blankImage,blankImage,redfox,,,,,,,,,,,,0,103,103,271,,,,,,,,,,,,,,,,,,,,,,,,,,,,,,,,,,,751.5933618999552,752.6085572000011,752.5751690999605,753.1852822999936,753.1852822999936,None,755.0126795999822,None,right,0.9935051000211388,755.0126795999822,None,756.0430223000003,None,left,0.395577100047376,756.0430223000003,None,,,,,,,,,,,,,,,,,,,,,,,PPT26,001,2022-07-04_12h57.51.341,ABstudy,2022.1.4,60.01817350157759,
AB,Lag1_T1A_T2A,1,A,A,7,8,6,5,13,Poker chips,Did you see the Poker chips?,0.12,0.016,JPG\,violin,pizza,toothbrush03b,pineapple01a,banana01,ashtray01,candy,dandelion,clock04,sock01a,microscope,speaker04,calculator01,blankImage,blankImage,blankImage,blankImage,cigar,,,,,,,,,,,,0,104,104,289,,,,,,,,,,,,,,,,,,,,,,,,,,,,,,,,,,,756.5441736999783,757.5478343999712,757.5313010999816,758.1302137000021,758.1302137000021,None,759.6728917,None,right,0.9493397000478581,759.6728917,None,760.6529924999923,None,right,1.0815688000293449,760.6529924999923,None,,,,,,,,,,,,,,,,,,,,,,,PPT26,001,2022-07-04_12h57.51.341,ABstudy,2022.1.4,60.01817350157759,
AB,Lag1_T1P_T2P,1,P,P,7,8,6,4,12,Dog House,Did you see the Dog House?,0.12,0.016,JPG\,pineapple01a,leaf02a,grape01,toiletpaper01a,match,tennisball01b,doghouse,stapler03b,pig,measuringcup01,ring01,lemon02,blankImage,blankImage,blankImage,blankImage,blankImage,doghouse,,,,,,,,,,,,0,105,105,44,,,,,,,,,,,,,,,,,,,,,,,,,,,,,,,,,,,761.7644656999619,762.7685056999908,762.7518549999804,763.3287019999698,763.3287019999698,None,764.8816039999947,None,left,0.5003689999575727,764.8816039999947,None,765.4050278999493,None,left,0.25682860001688823,765.4050278999493,None,,,,,,,,,,,,,,,,,,,,,,,PPT26,001,2022-07-04_12h57.51.341,ABstudy,2022.1.4,60.01817350157759,
AB,Lag5_T1P_T2P,5,P,P,5,10,4,5,15,Ipad,Did you see the Ipad?,0.12,0.016,JPG\,fork03c,toothbrush03b,cellphone,fan,ipad02,clock01a,ring01,eraser,sunglasses04,stapler06,violin,brownsugar,blueberry01,pear01,pencil01,blankImage,blankImage,ipad02,,,,,,,,,,,,0,106,106,150,,,,,,,,,,,,,,,,,,,,,,,,,,,,,,,,,,,765.7034366999869,766.7065655999468,766.6910617999965,767.3389503999497,767.2676493999898,None,769.0855247,None,left,0.3680227000149898,769.0855247,None,769.4763161999872,None,left,0.16193030000431463,769.4763161999872,None,,,,,,,,,,,,,,,,,,,,,,,PPT26,001,2022-07-04_12h57.51.341,ABstudy,2022.1.4,60.01817350157759,
AB,Lag5_T1P_T2P,5,P,P,7,12,6,5,17,flower,Did you see the flower?,0.12,0.016,JPG\,leaf02a,pear01,measuringcup01,cigarette,fan,lemon02,lily,tableknife02,ring01,pencil01,cellphone,stapler01,carrot01,binoculars01b,sock01a,book01b,blankImage,lily,,,,,,,,,,,,0,107,107,134,,,,,,,,,,,,,,,,,,,,,,,,,,,,,,,,,,,769.6644579999847,770.6766865999671,770.6601152999792,771.2365045999759,771.2365045999759,None,773.1937032999704,None,left,0.48424269998213276,773.1937032999704,None,773.6987388999551,None,left,0.21138639998389408,773.6987388999551,None,,,,,,,,,,,,,,,,,,,,,,,PPT26,001,2022-07-04_12h57.51.341,ABstudy,2022.1.4,60.01817350157759,
AB,Lag1_T1P_T2P,1,P,P,7,8,6,3,11,Sand castle,Did you see the Sand castle?,0.12,0.016,JPG\,thermometer02b,candle08b,comb02a,toothbrush03b,brick,computerkeyboard02,sandcastle,stapler06,candy,birthdaycandle,clock04,blankImage,blankImage,blankImage,blankImage,blankImage,blankImage,sandcastle,,,,,,,,,,,,0,108,108,70,,,,,,,,,,,,,,,,,,,,,,,,,,,,,,,,,,,773.9339624999557,774.9475297999452,774.9307974999538,775.5293196999701,775.5293196999701,None,776.9058861999656,None,right,1.3007620999705978,776.9058861999656,None,778.2340293999878,None,left,0.20360599999548867,778.2340293999878,None,,,,,,,,,,,,,,,,,,,,,,,PPT26,001,2022-07-04_12h57.51.341,ABstudy,2022.1.4,60.01817350157759,
AB,Lag5_T1A_T2A,5,A,A,5,10,4,4,14,music sheet,Did you see the music sheet?,0.12,0.016,JPG\,celery,pencil01,fan,foosballtable,iron01b,shirt02,potato02b,fork03c,button01,pineapple01a,baseball01a,printer02,cauliflower01,dandelion,blankImage,blankImage,blankImage,licenseplate,,,,,,,,,,,,0,109,109,304,,,,,,,,,,,,,,,,,,,,,,,,,,,,,,,,,,,778.5176039999933,779.5206872999552,779.5038402999635,780.0938813999528,780.0938813999528,None,781.6548308999627,None,right,1.1433710000128485,781.6548308999627,None,782.8220020000008,None,right,0.664245399995707,782.8220020000008,None,,,,,,,,,,,,,,,,,,,,,,,PPT26,001,2022-07-04_12h57.51.341,ABstudy,2022.1.4,60.01817350157759,
AB,Lag5_T1P_T2P,5,P,P,5,10,4,3,13,Rabbit,Did you see the Rabbit?,0.12,0.016,JPG\,celery,tennisball01b,calculator01,pear01,jackrabbit,orange,button01,cellphone,onion,stapler06,iron01b,brownsugar,banana01,blankImage,blankImage,blankImage,blankImage,jackrabbit,,,,,,,,,,,,0,110,110,90,,,,,,,,,,,,,,,,,,,,,,,,,,,,,,,,,,,783.5090464999666,784.5236597999465,784.4903454000014,785.0738686999539,785.0738686999539,None,786.7346249999828,None,left,0.36850870004855096,786.7346249999828,None,787.1266784999752,None,left,0.15131469996413216,787.1266784999752,None,,,,,,,,,,,,,,,,,,,,,,,PPT26,001,2022-07-04_12h57.51.341,ABstudy,2022.1.4,60.01817350157759,
AB,Lag5_T1P_T2P,5,P,P,6,11,5,4,15,shovel,Did you see the shovel?,0.12,0.016,JPG\,carrot01,watch02a,clock04,microscope,toiletpaper01a,shovel01,alligator,ring01,brick,watermelon01,stapler03b,pencil01,measuringcup01,balloon01b,computerkeyboard02,blankImage,blankImage,shovel01,,,,,,,,,,,,0,111,111,139,,,,,,,,,,,,,,,,,,,,,,,,,,,,,,,,,,,787.3136239000014,788.3277070999611,788.3108762999764,788.8949914999539,788.8949914999539,None,790.6892820999492,None,left,0.3177347000455484,790.6892820999492,None,791.0304840999888,None,left,0.19946709997020662,791.0304840999888,None,,,,,,,,,,,,,,,,,,,,,,,PPT26,001,2022-07-04_12h57.51.341,ABstudy,2022.1.4,60.01817350157759,
AB,Lag5_T1P_T2P,5,P,P,8,13,7,4,17,lamp,Did you see the lamp?,0.12,0.016,JPG\,globe,broccoli01a,binoculars01b,iron01b,avocado01,dandelion,pineapple01a,floorlamp,fan,pizza,celery,blueberry01,stapler01,dice05a,watermelon01,candy,blankImage,floorlamp,,,,,,,,,,,,0,112,112,99,,,,,,,,,,,,,,,,,,,,,,,,,,,,,,,,,,,791.2526578999823,792.2648627999588,792.2481448999606,792.8413544999785,792.8413544999785,None,794.7658922999981,None,left,0.4237389999907464,794.7658922999981,None,795.2180203999742,None,left,0.21163840004010126,795.2180203999742,None,,,,,,,,,,,,,,,,,,,,,,,PPT26,001,2022-07-04_12h57.51.341,ABstudy,2022.1.4,60.01817350157759,
AB,Lag5_T1P_T2P,5,P,P,5,10,4,5,15,Bee,Did you see the Bee?,0.12,0.016,JPG\,fork03c,dandelion,dice05a,belt02a,honeybee,watch02a,key01,globe,eraser,stapler03a,greenolive,shirt02,candle08b,cigarette,garlic01a,blankImage,blankImage,honeybee,,,,,,,,,,,,0,113,113,149,,,,,,,,,,,,,,,,,,,,,,,,,,,,,,,,,,,795.4577516999561,796.4690793999471,796.452364399971,797.0268727999646,797.0268727999646,None,798.8300254999776,None,left,0.9523320000153035,798.8300254999776,None,799.8055222999537,None,right,0.20086240000091493,799.8055222999537,None,,,,,,,,,,,,,,,,,,,,,,,PPT26,001,2022-07-04_12h57.51.341,ABstudy,2022.1.4,60.01817350157759,
AB,Lag1_T1A_T2P,1,A,P,8,9,7,4,13,Toolbox,Did you see the Toolbox?,0.12,0.016,JPG\,pizza,printer02,medal02b,spoon01,grape01,lighter01,belt02a,watermelon01,stapler03b,battery02b,screw02,comb02a,cauliflower01,blankImage,blankImage,blankImage,blankImage,ladybug03,,,,,,,,,,,,0,114,114,237,,,,,,,,,,,,,,,,,,,,,,,,,,,,,,,,,,,800.0413944999455,801.0407035999815,801.0250785999815,801.63692119997,801.63692119997,None,803.2138477999833,None,right,0.9845325999776833,803.2138477999833,None,804.2269696999574,None,left,0.43632020003860816,804.2269696999574,None,,,,,,,,,,,,,,,,,,,,,,,PPT26,001,2022-07-04_12h57.51.341,ABstudy,2022.1.4,60.01817350157759,
AB,Lag5_T1P_T2A,5,P,A,6,11,5,3,14,toy truck,Did you see the toy truck?,0.12,0.016,JPG\,globe,belt02a,sponge01,violin,fork03c,bluecheese,clock01a,microscope,balloon01b,scarf,teabag,pen04b,brick,brownsugar,blankImage,blankImage,blankImage,bluecheese,,,,,,,,,,,,0,115,115,204,,,,,,,,,,,,,,,,,,,,,,,,,,,,,,,,,,,804.6978074999643,805.7116736999596,805.6948675999884,806.2918475999613,806.2918475999613,None,807.8814290000009,None,right,0.9321687000337988,807.8814290000009,None,808.831188799988,None,right,1.5343811000348069,808.831188799988,None,,,,,,,,,,,,,,,,,,,,,,,PPT26,001,2022-07-04_12h57.51.341,ABstudy,2022.1.4,60.01817350157759,
AB,Lag1_T1P_T2P,1,P,P,5,6,4,5,11,squirrel,Did you see the squirrel?,0.12,0.016,JPG\,pencil01,orange,clock01a,sponge01,squirrel,stapler05,lipstick02a,strawberry,book01b,mushroom01,envelope03a,blankImage,blankImage,blankImage,blankImage,blankImage,blankImage,squirrel,,,,,,,,,,,,0,116,116,5,,,,,,,,,,,,,,,,,,,,,,,,,,,,,,,,,,,810.4335518999724,811.4339142999961,811.4171918999637,812.0068789999932,812.0068789999932,None,813.3427517999662,None,left,0.5427081999951042,813.3427517999662,None,813.902881499962,None,left,0.2075102999806404,813.902881499962,None,,,,,,,,,,,,,,,,,,,,,,,PPT26,001,2022-07-04_12h57.51.341,ABstudy,2022.1.4,60.01817350157759,
AB,Lag1_T1P_T2P,1,P,P,5,6,4,3,9,Pumpkin,Did you see the Pumpkin?,0.12,0.016,JPG\,binoculars01b,speaker04,sandal,envelope03a,pumpkin,stapler03b,battery02b,chain01,measuringcup01,blankImage,blankImage,blankImage,blankImage,blankImage,blankImage,blankImage,blankImage,pumpkin,,,,,,,,,,,,0,117,117,23,,,,,,,,,,,,,,,,,,,,,,,,,,,,,,,,,,,814.1389612999628,815.1541166999959,815.120779799996,815.7464959999779,815.7464959999779,None,816.8066459999536,None,left,0.4717678999877535,816.8066459999536,None,817.3072100999998,None,left,0.18615670001599938,817.3072100999998,None,,,,,,,,,,,,,,,,,,,,,,,PPT26,001,2022-07-04_12h57.51.341,ABstudy,2022.1.4,60.01817350157759,
AB,Lag5_T1P_T2P,5,P,P,6,11,5,5,16,keys,Did you see the keys?,0.12,0.016,JPG\,toiletpaper01a,mushroom01,medal02b,sandal,rice,foldingchair,feather03a,pizza,candle08b,garlic01a,stapler01,belt02a,cigarette,violin,lemon02,fork03c,blankImage,foldingchair,,,,,,,,,,,,0,118,118,125,,,,,,,,,,,,,,,,,,,,,,,,,,,,,,,,,,,817.5656960999477,818.5748481999617,818.5591067999485,819.2319036999834,819.1523704999709,None,821.0124146000016,None,right,0.897158199979458,821.0124146000016,None,821.9279628999648,None,left,0.1975465000141412,821.9279628999648,None,,,,,,,,,,,,,,,,,,,,,,,PPT26,001,2022-07-04_12h57.51.341,ABstudy,2022.1.4,60.01817350157759,
AB,Lag1_T1A_T2A,1,A,A,6,7,5,5,12,Safe,Did you see the Safe?,0.12,0.016,JPG\,hammer01,sponge01,toaster01,cherry01,feather03a,mushroom01,measuringcup01,pencil01,tennisball01b,brick,clock04,medal02b,blankImage,blankImage,blankImage,blankImage,blankImage,downhillski,,,,,,,,,,,,0,119,119,294,,,,,,,,,,,,,,,,,,,,,,,,,,,,,,,,,,,822.1496501999791,823.1623365999549,823.14555929997,823.7216915999888,823.7216915999888,None,825.241089499963,None,right,0.9173848999780603,825.241089499963,None,826.1817557999748,None,right,0.7757870000205003,826.1817557999748,None,,,,,,,,,,,,,,,,,,,,,,,PPT26,001,2022-07-04_12h57.51.341,ABstudy,2022.1.4,60.01817350157759,
AB,Lag1_T1A_T2P,1,A,P,8,9,7,4,13,Fireplace,Did you see the Fireplace?,0.12,0.016,JPG\,scissors01,ashtray01,garlic01a,medal02b,cigarette,candle08b,leaf02a,envelope03a,stapler06,rice,toiletpaper01a,greenolive,cymbal,blankImage,blankImage,blankImage,blankImage,dartboard,,,,,,,,,,,,0,120,120,252,,,,,,,,,,,,,,,,,,,,,,,,,,,,,,,,,,,827.0539631999563,828.0672291999799,828.0504952999763,828.6421319999499,828.6421319999499,None,830.0579006999615,None,right,0.72402109997347,830.0579006999615,None,830.8061288999743,None,left,0.14413420000346377,830.8061288999743,None,,,,,,,,,,,,,,,,,,,,,,,PPT26,001,2022-07-04_12h57.51.341,ABstudy,2022.1.4,60.01817350157759,
AB,Lag1_T1P_T2A,1,P,A,5,6,4,5,11,Toaster oven,Did you see the Toaster oven?,0.12,0.016,JPG\,fork03c,toothbrush03b,cellphone,fan,toasteroven,clock01a,ring01,eraser,sunglasses04,thermometer02b,violin,blankImage,blankImage,blankImage,blankImage,blankImage,blankImage,toasteroven,,,,,,,,,,,,0,121,121,200,,,,,,,,,,,,,,,,,,,,,,,,,,,,,,,,,,,830.9818698999588,831.987367499969,831.9707233999507,832.6240007999586,832.6240007999586,None,833.9168592999922,None,right,1.3289432000019588,833.9168592999922,None,835.2741507999599,None,right,0.48355379997519776,835.2741507999599,None,,,,,,,,,,,,,,,,,,,,,,,PPT26,001,2022-07-04_12h57.51.341,ABstudy,2022.1.4,60.01817350157759,
AB,Lag1_T1P_T2P,1,P,P,5,6,4,5,11,football,Did you see the football?,0.12,0.016,JPG\,globe,belt02a,sponge01,violin,soccerball,stapler01,clock01a,microscope,balloon01b,scarf,teabag,blankImage,blankImage,blankImage,blankImage,blankImage,blankImage,soccerball,,,,,,,,,,,,0,122,122,26,,,,,,,,,,,,,,,,,,,,,,,,,,,,,,,,,,,835.7768990999903,836.7923747999594,836.7590438999468,837.3472599999513,837.3472599999513,None,838.7076757999603,None,left,0.9699205000069924,838.7076757999603,None,839.6952867999789,None,left,0.1904285000055097,839.6952867999789,None,,,,,,,,,,,,,,,,,,,,,,,PPT26,001,2022-07-04_12h57.51.341,ABstudy,2022.1.4,60.01817350157759,
AB,Lag1_T1P_T2P,1,P,P,6,7,5,3,10,cupcake,Did you see the cupcake?,0.12,0.016,JPG\,printer02,leaf02a,cauliflower01,sock01a,brownsugar,cupcake,stapler01,orange,belt02a,shirt02,blankImage,blankImage,blankImage,blankImage,blankImage,blankImage,blankImage,cupcake,,,,,,,,,,,,0,123,123,38,,,,,,,,,,,,,,,,,,,,,,,,,,,,,,,,,,,839.9156878999784,840.9138069999753,840.8981529999874,841.4980658999993,841.4980658999993,None,842.6909814999672,None,left,1.0667168000363745,842.6909814999672,None,843.7829877999611,None,right,0.4872279000119306,843.7829877999611,None,,,,,,,,,,,,,,,,,,,,,,,PPT26,001,2022-07-04_12h57.51.341,ABstudy,2022.1.4,60.01817350157759,
AB,Lag5_T1A_T2P,5,A,P,7,12,6,4,16,scooter,Did you see the scooter?,0.12,0.016,JPG\,cigarette,pig,banana01,strawberry,clock01a,plate01b,spoon01,blueberry01,battery02b,pineapple01a,chain01,stapler05,candy,pen04b,teabag,birthdaycandle,blankImage,1nose,,,,,,,,,,,,0,124,124,268,,,,,,,,,,,,,,,,,,,,,,,,,,,,,,,,,,,844.3036673999741,845.317922999966,845.3011342999525,845.8752069999464,845.8752069999464,None,847.7444159999723,None,right,0.8773831999860704,847.7444159999723,None,848.6543968999758,None,left,0.576819300011266,848.6543968999758,None,,,,,,,,,,,,,,,,,,,,,,,PPT26,001,2022-07-04_12h57.51.341,ABstudy,2022.1.4,60.01817350157759,
AB,Lag5_T1P_T2P,5,P,P,5,10,4,5,15,ear,Did you see the ear?,0.12,0.016,JPG\,fork03c,plate01b,toiletpaper01a,greenolive,ear,blueberry01,onion,calculator01,envelope03a,stapler06,book01b,pencil01,sewingmachine01a,brick,watermelon01,blankImage,blankImage,ear,,,,,,,,,,,,0,125,125,107,,,,,,,,,,,,,,,,,,,,,,,,,,,,,,,,,,,849.257862599974,850.272628799954,850.2391990999458,850.8186125999782,850.8186125999782,None,852.7243916000007,None,left,0.8178344000480138,852.7243916000007,None,853.5593210999505,None,left,0.2867742999806069,853.5593210999505,None,,,,,,,,,,,,,,,,,,,,,,,PPT26,001,2022-07-04_12h57.51.341,ABstudy,2022.1.4,60.01817350157759,
AB,Lag1_T1P_T2P,1,P,P,7,8,6,3,11,harmonica,Did you see the harmonica?,0.12,0.016,JPG\,cucumber,ring01,lipstick02a,microscope,violin,garlic01a,harmonica,stapler03b,cherry01,sewingmachine01a,belt02a,blankImage,blankImage,blankImage,blankImage,blankImage,blankImage,harmonica,,,,,,,,,,,,0,126,126,43,,,,,,,,,,,,,,,,,,,,,,,,,,,,,,,,,,,853.8789242999628,854.8940183999948,854.8606645999826,855.431863899983,855.431863899983,None,856.7901956999558,None,left,0.9113313000416383,856.7901956999558,None,857.7303906999878,None,left,0.22708109999075532,857.7303906999878,None,,,,,,,,,,,,,,,,,,,,,,,PPT26,001,2022-07-04_12h57.51.341,ABstudy,2022.1.4,60.01817350157759,
AB,Lag5_T1P_T2P,5,P,P,8,13,7,3,16,Chefs hat,Did you see the Chefs hat?,0.12,0.016,JPG\,rice,watermelon01,tableknife02,scarf,computerkeyboard02,cauliflower01,battery02b,chefshat,book01b,sandal,sponge01,microscope,stapler01,fork03c,thermometer02b,apple07,blankImage,chefshat,,,,,,,,,,,,0,127,127,128,,,,,,,,,,,,,,,,,,,,,,,,,,,,,,,,,,,857.9867048999877,858.9980529999593,858.9812351999572,859.5783123999718,859.5783123999718,None,861.5179782999912,None,right,0.8397693000151776,861.5179782999912,None,862.3848748999881,None,left,0.19715540000470355,862.3848748999881,None,,,,,,,,,,,,,,,,,,,,,,,PPT26,001,2022-07-04_12h57.51.341,ABstudy,2022.1.4,60.01817350157759,
AB,Lag5_T1P_T2P,5,P,P,6,11,5,4,15,fish,Did you see the fish?,0.12,0.016,JPG\,sock01a,spoon01,alligator,comb02a,printer02,rockbass,lamp04a,cymbal,greenolive,computerkeyboard02,stapler03a,scarf,teabag,watermelon01,battery02b,blankImage,blankImage,rockbass,,,,,,,,,,,,0,128,128,115,,,,,,,,,,,,,,,,,,,,,,,,,,,,,,,,,,,862.604780099995,863.6192340999842,863.5858131999848,864.1761232999852,864.1761232999852,None,865.9874427999603,None,left,0.45025699998950586,865.9874427999603,None,866.4551825999515,None,left,0.18208649998996407,866.4551825999515,None,,,,,,,,,,,,,,,,,,,,,,,PPT26,001,2022-07-04_12h57.51.341,ABstudy,2022.1.4,60.01817350157759,
AB,Lag1_T1P_T2A,1,P,A,6,7,5,5,12,Barn,Did you see the Barn?,0.12,0.016,JPG\,celery,pencil01,fan,foosballtable,iron01b,barn,potato02b,fork03c,button01,pineapple01a,baseball01a,printer02,blankImage,blankImage,blankImage,blankImage,blankImage,barn,,,,,,,,,,,,0,129,129,181,,,,,,,,,,,,,,,,,,,,,,,,,,,,,,,,,,,866.6581627999549,867.6731456999551,867.6397484999616,868.2517925999709,868.2517925999709,None,869.719336899987,None,right,0.9267214999999851,869.719336899987,None,870.6763639999554,None,right,0.4098426999989897,870.6763639999554,None,,,,,,,,,,,,,,,,,,,,,,,PPT26,001,2022-07-04_12h57.51.341,ABstudy,2022.1.4,60.01817350157759,
AB,Lag1_T1P_T2A,1,P,A,7,8,6,4,12,gate,Did you see the gate?,0.12,0.016,JPG\,pen04b,speaker04,lighter01,cherry01,pintofbeer,onion,entrancegate,toothbrush03b,broom01,sewingmachine01a,book01b,iron01b,blankImage,blankImage,blankImage,blankImage,blankImage,entrancegate,,,,,,,,,,,,0,130,130,187,,,,,,,,,,,,,,,,,,,,,,,,,,,,,,,,,,,871.1132846999681,872.1279985999572,872.0945463999524,872.708106999984,872.708106999984,None,874.1848868999514,None,left,0.9806899999966845,874.1848868999514,None,875.1974979999941,None,right,0.7521619999897666,875.1974979999941,None,,,,,,,,,,,,,,,,,,,,,,,PPT26,001,2022-07-04_12h57.51.341,ABstudy,2022.1.4,60.01817350157759,
AB,Lag1_T1P_T2A,1,P,A,5,6,4,4,10,bird,Did you see the bird?,0.12,0.016,JPG\,toaster01,scarf,toiletpaper01a,calculator01,swallow,sewingmachine01a,fan,teabag,strawberry,balloon01b,blankImage,blankImage,blankImage,blankImage,blankImage,blankImage,blankImage,swallow,,,,,,,,,,,,0,131,131,195,,,,,,,,,,,,,,,,,,,,,,,,,,,,,,,,,,,875.9840120999725,876.9992820999469,876.9658002999495,877.5629395999713,877.5629395999713,None,878.8265092999791,None,left,1.4445875999517739,878.8265092999791,None,880.3028224000009,None,right,0.3752809999859892,880.3028224000009,None,,,,,,,,,,,,,,,,,,,,,,,PPT26,001,2022-07-04_12h57.51.341,ABstudy,2022.1.4,60.01817350157759,
AB,Lag5_T1P_T2A,5,P,A,8,13,7,3,16,Shelves,Did you see the Shelves?,0.12,0.016,JPG\,pineapple01a,leaf02a,grape01,toiletpaper01a,match,tennisball01b,spoon01,shelves,pig,measuringcup01,ring01,lemon02,dice05a,pizza,potato02b,eraser,blankImage,shelves,,,,,,,,,,,,0,132,132,222,,,,,,,,,,,,,,,,,,,,,,,,,,,,,,,,,,,880.7095161999459,881.7207219999982,881.7041060999618,882.2994230999611,882.2994230999611,None,884.2671383999987,None,left,0.9940553999622352,884.2671383999987,None,885.2910504000029,None,right,1.1863161999499425,885.2910504000029,None,,,,,,,,,,,,,,,,,,,,,,,PPT26,001,2022-07-04_12h57.51.341,ABstudy,2022.1.4,60.01817350157759,
AB,Lag1_T1A_T2P,1,A,P,8,9,7,5,14,clock,Did you see the clock?,0.12,0.016,JPG\,speaker04,sewingmachine01a,eraser,violin,globe,belt02a,sunglasses04,cymbal,stapler01,greenolive,alligator,pear01,watch02a,screwdriver04b,blankImage,blankImage,blankImage,peacock,,,,,,,,,,,,0,133,133,240,,,,,,,,,,,,,,,,,,,,,,,,,,,,,,,,,,,886.511421299947,887.5263174999855,887.4929592999979,888.088183099986,888.088183099986,None,889.8074655999662,None,right,1.7582153999828734,889.8074655999662,None,891.5967763999943,None,left,0.32076049997704104,891.5967763999943,None,,,,,,,,,,,,,,,,,,,,,,,PPT26,001,2022-07-04_12h57.51.341,ABstudy,2022.1.4,60.01817350157759,
AB,Lag5_T1A_T2A,5,A,A,5,10,4,5,15,flower,Did you see the flower?,0.12,0.016,JPG\,clock01a,cellphone,toaster01,toothbrush03b,cauliflower01,microscope,comb02a,paintbrush01,scarf,clock04,sponge01,iron01b,watch02a,celery,ring01,blankImage,blankImage,stepladder,,,,,,,,,,,,0,134,134,303,,,,,,,,,,,,,,,,,,,,,,,,,,,,,,,,,,,891.9492916999734,892.9648039999884,892.931438999949,893.5105798000004,893.5105798000004,None,895.4262984999805,None,right,1.4523447999963537,895.4262984999805,None,896.902244799945,None,right,1.1677213000366464,896.902244799945,None,,,,,,,,,,,,,,,,,,,,,,,PPT26,001,2022-07-04_12h57.51.341,ABstudy,2022.1.4,60.01817350157759,
AB,Lag1_T1P_T2P,1,P,P,5,6,4,5,11,owl,Did you see the owl?,0.12,0.016,JPG\,cellphone,tomato01,comb02a,candy,barnowl,stapler03a,toaster01,fan,feather03a,pen04b,lemon02,blankImage,blankImage,blankImage,blankImage,blankImage,blankImage,barnowl,,,,,,,,,,,,0,135,135,33,,,,,,,,,,,,,,,,,,,,,,,,,,,,,,,,,,,898.0918401999515,899.10456539999,899.087811299949,899.671047699987,899.671047699987,None,901.0236902999459,None,left,1.173735999967903,901.0236902999459,None,902.2245718999766,None,right,0.5490615000016987,902.2245718999766,None,,,,,,,,,,,,,,,,,,,,,,,PPT26,001,2022-07-04_12h57.51.341,ABstudy,2022.1.4,60.01817350157759,
AB,Lag5_T1A_T2P,5,A,P,6,11,5,4,15,butterfly,Did you see the butterfly?,0.12,0.016,JPG\,comb02a,key01,medal02b,battery02b,lighter01,microscope,watermelon01,sandal,pig,cellphone,stapler06,calculator01,cymbal,clock04,cucumber,blankImage,blankImage,uprightpiano01,,,,,,,,,,,,0,136,136,276,,,,,,,,,,,,,,,,,,,,,,,,,,,,,,,,,,,902.7962637000019,903.8090953999781,903.7924634999945,904.3720733999508,904.3720733999508,None,906.2565093999729,None,right,1.7331696000183001,906.2565093999729,None,908.0136000999482,None,left,0.3761926000006497,908.0136000999482,None,,,,,,,,,,,,,,,,,,,,,,,PPT26,001,2022-07-04_12h57.51.341,ABstudy,2022.1.4,60.01817350157759,
AB,Lag1_T1A_T2P,1,A,P,5,6,4,3,9,barrel,Did you see the barrel?,0.12,0.016,JPG\,clock01a,cellphone,toaster01,toothbrush03b,cauliflower01,stapler01,comb02a,paintbrush01,scarf,blankImage,blankImage,blankImage,blankImage,blankImage,blankImage,blankImage,blankImage,sheep,,,,,,,,,,,,0,137,137,243,,,,,,,,,,,,,,,,,,,,,,,,,,,,,,,,,,,908.4155259999679,909.4149685999728,909.3982996999985,909.9994194000028,909.9994194000028,None,911.1103620999493,None,right,1.3115080000134185,911.1103620999493,None,912.4513391999644,None,right,0.5626256000250578,912.4513391999644,None,,,,,,,,,,,,,,,,,,,,,,,PPT26,001,2022-07-04_12h57.51.341,ABstudy,2022.1.4,60.01817350157759,
