TrialType,CondType,Lag,T1_PA,T2_PA,T1Loc,T2Loc,PreDistractor,PostDistractor,TotalImg,cueWord,T1cue,StimLength,isi,PicFolder,Img1,Img2,Img3,Img4,Img5,Img6,Img7,Img8,Img9,Img10,Img11,Img12,Img13,Img14,Img15,Img16,Img17,T1_Identity,ImageType,T1PA,T2PA,Picture,Image,FullPathName,FilePath,Practice_Trials.thisRepN,Practice_Trials.thisTrialN,Practice_Trials.thisN,Practice_Trials.thisIndex,trials.thisRepN,trials.thisTrialN,trials.thisN,trials.thisIndex,trials_2.thisRepN,trials_2.thisTrialN,trials_2.thisN,trials_2.thisIndex,Practice_Ins.started,Practice_Ins.stopped,End_Prac_Ins.keys,End_Prac_Ins.rt,End_Prac_Ins.started,End_Prac_Ins.stopped,text_2.started,text_2.stopped,Fixation_Cross_2.started,Fixation_Cross_2.stopped,Rapid_Image_Present_2.started,Rapid_Image_Present_2.stopped,key_resp.keys,key_resp.rt,key_resp.started,key_resp.stopped,T1Response_2.started,T1Response_2.stopped,T2Response_2.started,T2Response_2.stopped,key_resp_4.keys,key_resp_4.rt,key_resp_4.started,key_resp_4.stopped,text.started,text.stopped,End_Instructions.keys,End_Instructions.rt,End_Instructions.started,End_Instructions.stopped,text_5.started,text_5.stopped,FC.started,FC.stopped,Rapid_Image_Present.started,Rapid_Image_Present.stopped,T1Response.started,T1Response.stopped,key_resp_2.keys,key_resp_2.rt,key_resp_2.started,key_resp_2.stopped,T2Response.started,T2Response.stopped,key_resp_3.keys,key_resp_3.rt,key_resp_3.started,key_resp_3.stopped,text_6.started,text_6.stopped,Fin_ins.keys,Fin_ins.rt,Fin_ins.started,Fin_ins.stopped,MemTest.started,MemTest.stopped,MemResponse.keys,MemResponse.rt,MemResponse.started,MemResponse.stopped,Display.started,Display.stopped,text_7.started,text_7.stopped,endOfExperiment.started,endOfExperiment.stopped,key_resp_5.keys,key_resp_5.rt,key_resp_5.started,key_resp_5.stopped,participant,session,date,expName,psychopyVersion,frameRate,
,,,,,,,,,,,,,,,,,,,,,,,,,,,,,,,,,,,,,,,,,,,,,,,,,,,,14.818367400032002,None,space,41.97937389998697,14.818367400032002,None,,,,,,,,,,,,,,,,,,,,,,,,,,,,,,,,,,,,,,,,,,,,,,,,,,,,,,,,,,,,,,,,,PPT27,001,2022-07-04_13h57.02.679,ABstudy,2022.1.4,59.91748162979152,
AB_Prac,Lag1_T1A_T2A,1,A,A,8,9,7,3,12,Moose,Did you see the Moose?,0.5,0.016,JPG\,clothespin03b,corkscrew03a,drillbit03a,fusilli03a,needlenosepliers01,perfume01a,pistachio,scrubbingbrush05b,spatula03,toothpastetube,hinge,toydinosaur,blankImage,blankImage,blankImage,blankImage,blankImage,None,,,,,,,,0,0,0,10,,,,,,,,,,,,,,,56.88138249999611,57.89089790004073,57.85750460001873,58.472453300026245,58.472453300026245,None,right,1.066375299997162,64.53870490001282,None,64.53870490001282,None,65.63216800004011,None,right,0.9330111999879591,65.63216800004011,None,,,,,,,,,,,,,,,,,,,,,,,,,,,,,,,,,,,,,,,,,,,,,,,PPT27,001,2022-07-04_13h57.02.679,ABstudy,2022.1.4,59.91748162979152,
AB_Prac,Lag5_T1P_T2P,5,P,P,5,10,4,5,15,Vulture,Did you see the Vulture?,0.5,0.016,JPG\,shorts01,toast,ramekin01,bib,vulture,cracker02,date,glasses01a,hat03b,stapler01,measuringtape01,nail,pill,drum01,starfish01,blankImage,blankImage,vulture,,,,,,,,0,1,1,3,,,,,,,,,,,,,,,66.66672330000438,67.66718590003438,67.65045310003916,68.24103959999047,68.24103959999047,None,left,0.776071900036186,75.72633570001926,None,75.72633570001926,None,76.52584850002313,None,left,0.8638503000256605,76.52584850002313,None,,,,,,,,,,,,,,,,,,,,,,,,,,,,,,,,,,,,,,,,,,,,,,,PPT27,001,2022-07-04_13h57.02.679,ABstudy,2022.1.4,59.91748162979152,
AB_Prac,Lag1_T1P_T2P,1,P,P,8,9,7,5,14,Tennis racket,Did you see the Tennis racket?,0.5,0.016,JPG\,coconut,computermouse06,croissant01,deodorant02a,pillow01a,peanut01,boot02b,tennisracket,stapler03b,crayon,eggplant,marker01a,plant01,radish01,blankImage,blankImage,blankImage,tennisracket,,,,,,,,0,2,2,0,,,,,,,,,,,,,,,77.4216388000059,78.42789009999251,78.39447120000841,78.99161040002946,78.99161040002946,None,left,0.7472077000420541,86.09889550000662,None,86.09889550000662,None,86.86946499999613,None,left,0.47241739998571575,86.86946499999613,None,,,,,,,,,,,,,,,,,,,,,,,,,,,,,,,,,,,,,,,,,,,,,,,PPT27,001,2022-07-04_13h57.02.679,ABstudy,2022.1.4,59.91748162979152,
AB_Prac,Lag5_T1A_T2P,5,A,P,6,11,5,3,14,dog,Did you see the dog?,0.5,0.016,JPG\,bucket01a,doorlock,cookiecutter,fireextinguisher01,gluestick,highlighter02b,sportbag,spraybottle01,suitcase,thread02,stapler05,walnut01c,icecubetray01a,vikingmask01b,blankImage,blankImage,blankImage,None,,,,,,,,0,3,3,9,,,,,,,,,,,,,,,87.37406060000649,88.38770040002419,88.37102790002245,88.96129100001417,88.96129100001417,None,right,1.0929348999634385,95.9849010000471,None,95.9849010000471,None,97.0966744000325,None,left,0.5083237999933772,97.0966744000325,None,,,,,,,,,,,,,,,,,,,,,,,,,,,,,,,,,,,,,,,,,,,,,,,PPT27,001,2022-07-04_13h57.02.679,ABstudy,2022.1.4,59.91748162979152,
AB_Prac,Lag1_T1P_T2A,1,P,A,5,6,4,5,11,Webcam,Did you see the Webcam?,0.5,0.016,JPG\,pictureframe04,binder03b,straw,adjustablewrench01b,webcam,cane,hairdryer02a,icepack,kitchenscale01a,lifejacket,piggybank,blankImage,blankImage,blankImage,blankImage,blankImage,blankImage,webcam,,,,,,,,0,4,4,6,,,,,,,,,,,,,,,97.64584370004013,98.64799220004352,98.63150360004511,99.22365150001133,99.22365150001133,None,left,1.1113627000013366,104.77422540000407,None,104.77422540000407,None,105.90790109999944,None,right,0.633640700019896,105.90790109999944,None,,,,,,,,,,,,,,,,,,,,,,,,,,,,,,,,,,,,,,,,,,,,,,,PPT27,001,2022-07-04_13h57.02.679,ABstudy,2022.1.4,59.91748162979152,
AB_Prac,Lag1_T1P_T2P,1,P,P,6,7,5,5,12,triangle,Did you see the triangle?,0.5,0.016,JPG\,ginger,mousetrap,plum01,slipper01b,dropper01,triangle,stapler04b,pants,raspberry01,rope03,scale01a,vase01,blankImage,blankImage,blankImage,blankImage,blankImage,triangle,,,,,,,,0,5,5,1,,,,,,,,,,,,,,,106.58138440002222,107.59033630002523,107.57388260000153,108.1768335000379,108.1768335000379,None,left,0.6121582000050694,114.17033680004533,None,114.17033680004533,None,114.81655980000505,None,left,0.4531046000192873,114.81655980000505,None,,,,,,,,,,,,,,,,,,,,,,,,,,,,,,,,,,,,,,,,,,,,,,,PPT27,001,2022-07-04_13h57.02.679,ABstudy,2022.1.4,59.91748162979152,
AB_Prac,Lag5_T1P_T2P,5,P,P,7,12,6,3,15,vacuum,Did you see the vacuum?,0.5,0.016,JPG\,fork07b,lightbulb01,manshoe,saw02b,shoelace,soap03a,vacuumcleaner01,floortile01,necklace,doll,cabbage,stapler03a,hanger02a,laptop01a,nailpolish03b,blankImage,blankImage,vacuumcleaner01,,,,,,,,0,6,6,2,,,,,,,,,,,,,,,115.31135560001712,116.31552860001102,116.29880450002383,116.97904400003608,116.89980559999822,None,left,0.597586499992758,124.48755220003659,None,124.48755220003659,None,125.10812750004698,None,left,0.4894174000364728,125.10812750004698,None,,,,,,,,,,,,,,,,,,,,,,,,,,,,,,,,,,,,,,,,,,,,,,,PPT27,001,2022-07-04_13h57.02.679,ABstudy,2022.1.4,59.91748162979152,
AB_Prac,Lag5_T1P_T2A,5,P,A,6,11,5,5,16,bread,Did you see the bread?,0.5,0.016,JPG\,cleaver01,clipboard,dustpan,hikingshoe01,notebook03a,baguette01,playingcard,pliers02b,styrofoamcup,rollingpin01a,swimgoggles,wineglass01,fryingpan02a,safetypin,syringe01,thimble,blankImage,baguette01,,,,,,,,0,7,7,8,,,,,,,,,,,,,,,125.62871380004799,126.64258939999854,126.62587570003234,127.26268169999821,127.18970730004366,None,left,1.199520600028336,135.28609040001174,None,135.28609040001174,None,136.50285230000736,None,right,0.45477290003327653,136.50285230000736,None,,,,,,,,,,,,,,,,,,,,,,,,,,,,,,,,,,,,,,,,,,,,,,,PPT27,001,2022-07-04_13h57.02.679,ABstudy,2022.1.4,59.91748162979152,
AB_Prac,Lag5_T1P_T2A,5,P,A,6,11,5,5,16,Wheat,Did you see the Wheat?,0.5,0.016,JPG\,bottleopener01,dentalfloss03b,cooler01,icecreamcone01a,paperclip01b,wheat,pencilsharpener02a,plasticbasket01a,toycar04,apricot,hairclip02,rock01a,honeydewmelon,antenna,blackberry,cardboardbox,blankImage,wheat,,,,,,,,0,8,8,7,,,,,,,,,,,,,,,136.9897772000404,138.00391309999395,137.9871814000071,138.63468090002425,138.5578424000414,None,left,0.9672031999798492,146.59908610000275,None,146.59908610000275,None,147.5971021000296,None,right,0.5685146999894641,147.5971021000296,None,,,,,,,,,,,,,,,,,,,,,,,,,,,,,,,,,,,,,,,,,,,,,,,PPT27,001,2022-07-04_13h57.02.679,ABstudy,2022.1.4,59.91748162979152,
AB_Prac,Lag5_T1P_T2P,5,P,P,5,10,4,5,15,washing machine,Did you see the washing machine?,0.5,0.016,JPG\,waterbottle03,wheel01,flashlight02b,zucchini01,washingmachine,headphones02b,nutcracker01,paintroller01,paperclip03,stapler06,ribbon04,electricrazor,bottleofredwine01,pitabread,pot02a,blankImage,blankImage,washingmachine,,,,,,,,0,9,9,4,,,,,,,,,,,,,,,148.2112860000343,149.21547510003438,149.19975130003877,149.8537040000083,149.77827480004635,None,right,6.444908100005705,157.31260390003445,None,157.31260390003445,None,163.77933290001238,None,left,0.6813806999707595,163.77933290001238,None,,,,,,,,,,,,,,,,,,,,,,,,,,,,,,,,,,,,,,,,,,,,,,,PPT27,001,2022-07-04_13h57.02.679,ABstudy,2022.1.4,59.91748162979152,
AB_Prac,Lag1_T1P_T2A,1,P,A,8,9,7,5,14,flower,Did you see the flower?,0.5,0.016,JPG\,razor01,axe01,binder03b,bowl01,kettle01,lettuce,lime,plasticflower01b,mitten04,pencilcase01,plunger02,strawbasket01,toothpick02,wallet02a,blankImage,blankImage,blankImage,plasticflower01b,,,,,,,,0,10,10,5,,,,,,,,,,,,,,,164.48521010001423,165.49799090001034,165.48142800002825,166.097167800006,166.097167800006,None,left,1.0859704000176862,173.0870283000404,None,173.0870283000404,None,174.19021050003357,None,right,0.4626832000212744,174.19021050003357,None,,,,,,,,,,,,,,,,,,,,,,,,,,,,,,,,,,,,,,,,,,,,,,,PPT27,001,2022-07-04_13h57.02.679,ABstudy,2022.1.4,59.91748162979152,
AB_Prac,Lag5_T1A_T2A,5,A,A,6,11,5,5,16,castle,Did you see the castle?,0.5,0.016,JPG\,tape02a,englishmuffin,flask,ladle02a,monitor,peach01,keychain,squeegee01b,telephone01b,whisk,walkman,syringe02,baguette01,coaster,box01a,coffeepot03a,blankImage,None,,,,,,,,0,11,11,11,,,,,,,,,,,,,,,174.67752100003418,175.69145580002805,175.6748641000013,176.27608810004313,176.27608810004313,None,right,0.9989871000288986,184.27004780003335,None,184.27004780003335,None,185.30099409999093,None,right,0.3931565000093542,185.30099409999093,None,,,,,,,,,,,,,,,,,,,,,,,,,,,,,,,,,,,,,,,,,,,,,,,PPT27,001,2022-07-04_13h57.02.679,ABstudy,2022.1.4,59.91748162979152,
,,,,,,,,,,,,,,,,,,,,,,,,,,,,,,,,,,,,,,,,,,,,,,,,,,,,,,,,,,,,,,,,,,,,,,,,,,,,185.71805510000559,None,space,7.88824509998085,185.71805510000559,None,,,,,,,,,,,,,,,,,,,,,,,,,,,,,,,,,,,,,,,,,PPT27,001,2022-07-04_13h57.02.679,ABstudy,2022.1.4,59.91748162979152,
AB,Lag5_T1P_T2P,5,P,P,8,13,7,5,18,pipe,Did you see the pipe?,0.12,0.016,JPG\,scissors01,ashtray01,garlic01a,medal02b,cigarette,candle08b,leaf02a,smokingpipe,cucumber,rice,toiletpaper01a,greenolive,stapler01,cellphone,tableknife02,spoon01,blankImage,smokingpipe,,,,,,,,,,,,0,0,0,138,,,,,,,,,,,,,,,,,,,,,,,,,,,,,,,,,,,194.37469790002797,195.37750310002593,195.36080950003816,195.95687380002346,195.95687380002346,None,197.9042420000187,None,left,0.9650825000135228,197.9042420000187,None,198.90014350001002,None,right,3.8972188000334427,198.90014350001002,None,,,,,,,,,,,,,,,,,,,,,,,PPT27,001,2022-07-04_13h57.02.679,ABstudy,2022.1.4,59.91748162979152,
AB,Lag5_T1P_T2P,5,P,P,6,11,5,4,15,saxophone,Did you see the saxophone?,0.12,0.016,JPG\,pizza,strawberry,potato02b,speaker04,battery02b,saxophone,dice05a,cellphone,globe,banana01,stapler03b,baseball01a,toaster01,broom01,ring01,blankImage,blankImage,saxophone,,,,,,,,,,,,0,1,1,117,,,,,,,,,,,,,,,,,,,,,,,,,,,,,,,,,,,202.86840279999888,203.86930010002106,203.85261470003752,204.44223800004693,204.44223800004693,None,206.2696702000103,None,left,0.6477098999894224,206.2696702000103,None,206.93939290003618,None,left,0.3690534000052139,206.93939290003618,None,,,,,,,,,,,,,,,,,,,,,,,PPT27,001,2022-07-04_13h57.02.679,ABstudy,2022.1.4,59.91748162979152,
AB,Lag5_T1P_T2P,5,P,P,6,11,5,3,14,ladder,Did you see the ladder?,0.12,0.016,JPG\,celery,orange,scissors01,balloon01b,avocado01,stepladder,mushroom01,sewingmachine01a,lighter01,dice05a,stapler01,fan,cd,sock01a,blankImage,blankImage,blankImage,stepladder,,,,,,,,,,,,0,2,2,119,,,,,,,,,,,,,,,,,,,,,,,,,,,,,,,,,,,207.3420015000156,208.3409343000385,208.32503740000539,208.95228349999525,208.95228349999525,None,210.65693190001184,None,left,0.8119112999993376,210.65693190001184,None,211.49337340000784,None,right,0.319495800009463,211.49337340000784,None,,,,,,,,,,,,,,,,,,,,,,,PPT27,001,2022-07-04_13h57.02.679,ABstudy,2022.1.4,59.91748162979152,
AB,Lag5_T1P_T2P,5,P,P,7,12,6,5,17,truck,Did you see the truck?,0.12,0.016,JPG\,binoculars01b,speaker04,sandal,envelope03a,plate01b,comb02a,boxtruck,chain01,measuringcup01,key01,medal02b,stapler05,tennisball01b,pizza,cigarette,sunglasses04,blankImage,boxtruck,,,,,,,,,,,,0,3,3,166,,,,,,,,,,,,,,,,,,,,,,,,,,,,,,,,,,,211.84604860004038,212.8615584000363,212.82818390004104,213.4199692000402,213.4199692000402,None,215.4119275000412,None,left,0.45710069994674996,215.4119275000412,None,215.90045950002968,None,left,0.2805367999826558,215.90045950002968,None,,,,,,,,,,,,,,,,,,,,,,,PPT27,001,2022-07-04_13h57.02.679,ABstudy,2022.1.4,59.91748162979152,
AB,Lag1_T1A_T2P,1,A,P,8,9,7,3,12,porcupine,Did you see the porcupine?,0.12,0.016,JPG\,celery,orange,scissors01,balloon01b,avocado01,printer02,mushroom01,sewingmachine01a,stapler01,dice05a,ashtray01,fan,blankImage,blankImage,blankImage,blankImage,blankImage,drumstick,,,,,,,,,,,,0,4,4,233,,,,,,,,,,,,,,,,,,,,,,,,,,,,,,,,,,,216.2026614000206,217.21606810000958,217.18260530004045,217.76725460001035,217.76725460001035,None,219.2963211000315,None,right,0.9739764000405557,219.2963211000315,None,220.30279010004597,None,right,0.28642240003682673,220.30279010004597,None,,,,,,,,,,,,,,,,,,,,,,,PPT27,001,2022-07-04_13h57.02.679,ABstudy,2022.1.4,59.91748162979152,
AB,Lag1_T1A_T2P,1,A,P,5,6,4,3,9,Stool,Did you see the Stool?,0.12,0.016,JPG\,cherry01,cymbal,envelope03a,foosballtable,shirt02,stapler01,sewingmachine01a,candle08b,battery02b,blankImage,blankImage,blankImage,blankImage,blankImage,blankImage,blankImage,blankImage,hulahoop,,,,,,,,,,,,0,5,5,236,,,,,,,,,,,,,,,,,,,,,,,,,,,,,,,,,,,220.6284936000011,221.6374127000454,221.62056030001258,222.2038867000374,222.2038867000374,None,223.3475413999986,None,right,0.7535374999861233,223.3475413999986,None,224.1231522000162,None,right,0.48203240003203973,224.1231522000162,None,,,,,,,,,,,,,,,,,,,,,,,PPT27,001,2022-07-04_13h57.02.679,ABstudy,2022.1.4,59.91748162979152,
AB,Lag5_T1A_T2P,5,A,P,5,10,4,3,13,License Plate,Did you see the License Plate?,0.12,0.016,JPG\,tomato01,pen04b,shirt02,carrot01,lamp04a,key01,pizza,avocado01,sewingmachine01a,stapler06,iron01b,book01b,chain01,blankImage,blankImage,blankImage,blankImage,porcupine,,,,,,,,,,,,0,6,6,270,,,,,,,,,,,,,,,,,,,,,,,,,,,,,,,,,,,224.63589510001475,225.64240830001654,225.60956810001517,226.27477120002732,226.19263250002405,None,227.8115275000455,None,right,0.8335965999867767,227.8115275000455,None,228.67753869999433,None,right,0.3354655000148341,228.67753869999433,None,,,,,,,,,,,,,,,,,,,,,,,PPT27,001,2022-07-04_13h57.02.679,ABstudy,2022.1.4,59.91748162979152,
AB,Lag5_T1A_T2A,5,A,A,7,12,6,4,16,boxing glove,Did you see the boxing glove?,0.12,0.016,JPG\,cherry01,cymbal,envelope03a,foosballtable,shirt02,cellphone,sewingmachine01a,candle08b,battery02b,apple07,pencil01,screwdriver04b,strawberry,sunglasses04,feather03a,rice,blankImage,lollipop04,,,,,,,,,,,,0,7,7,296,,,,,,,,,,,,,,,,,,,,,,,,,,,,,,,,,,,229.05014900001697,230.06225360004464,230.04566370003158,230.63663850002922,230.63663850002922,None,232.55775219999487,None,left,0.6795787999872118,232.55775219999487,None,233.26500230003148,None,right,0.28438279998954386,233.26500230003148,None,,,,,,,,,,,,,,,,,,,,,,,PPT27,001,2022-07-04_13h57.02.679,ABstudy,2022.1.4,59.91748162979152,
AB,Lag5_T1P_T2P,5,P,P,7,12,6,5,17,flower,Did you see the flower?,0.12,0.016,JPG\,leaf02a,pear01,measuringcup01,cigarette,fan,lemon02,lily,tableknife02,ring01,pencil01,cellphone,stapler01,carrot01,binoculars01b,sock01a,book01b,blankImage,lily,,,,,,,,,,,,0,8,8,134,,,,,,,,,,,,,,,,,,,,,,,,,,,,,,,,,,,233.57255250000162,234.5838206000044,234.56821170001058,235.1794060000102,235.1794060000102,None,237.07640040002298,None,right,0.7045991999912076,237.07640040002298,None,237.80301920004422,None,right,0.31377160002011806,237.80301920004422,None,,,,,,,,,,,,,,,,,,,,,,,PPT27,001,2022-07-04_13h57.02.679,ABstudy,2022.1.4,59.91748162979152,
AB,Lag5_T1P_T2P,5,P,P,8,13,7,5,18,spice rack,Did you see the spice rack?,0.12,0.016,JPG\,lamp04a,broccoli01a,alligator,garlic01a,dandelion,brownsugar,avocado01,spicerack,leaf02a,cellphone,medal02b,cd,stapler05,sunglasses04,strawberry,eraser,blankImage,spicerack,,,,,,,,,,,,0,9,9,140,,,,,,,,,,,,,,,,,,,,,,,,,,,,,,,,,,,238.1401073000161,239.15444630000275,239.1377992000198,239.71654839999974,239.71654839999974,None,241.71028920001118,None,right,2.1992253999924287,241.71028920001118,None,243.92633859999478,None,left,0.31096610001986846,243.92633859999478,None,,,,,,,,,,,,,,,,,,,,,,,PPT27,001,2022-07-04_13h57.02.679,ABstudy,2022.1.4,59.91748162979152,
AB,Lag5_T1P_T2P,5,P,P,5,10,4,3,13,Sushi,Did you see the Sushi?,0.12,0.016,JPG\,carrot01,greenolive,fork03c,chain01,makiroll,watermelon01,tableknife02,printer02,comb02a,stapler03b,orange,rice,fan,blankImage,blankImage,blankImage,blankImage,makiroll,,,,,,,,,,,,0,10,10,135,,,,,,,,,,,,,,,,,,,,,,,,,,,,,,,,,,,244.2640688000247,245.27733690000605,245.2605739000137,245.8444558000192,245.8444558000192,None,247.40905400004704,None,left,0.45170259999576956,247.40905400004704,None,247.88017830002354,None,left,0.2124834000132978,247.88017830002354,None,,,,,,,,,,,,,,,,,,,,,,,PPT27,001,2022-07-04_13h57.02.679,ABstudy,2022.1.4,59.91748162979152,
AB,Lag1_T1A_T2P,1,A,P,6,7,5,3,10,curtain,Did you see the curtain?,0.12,0.016,JPG\,carrot01,greenolive,fork03c,chain01,ashtray01,watermelon01,stapler06,printer02,comb02a,toaster01,blankImage,blankImage,blankImage,blankImage,blankImage,blankImage,blankImage,birdhouse,,,,,,,,,,,,0,11,11,249,,,,,,,,,,,,,,,,,,,,,,,,,,,,,,,,,,,248.11762979999185,249.13140820001718,249.1144463000237,249.6976294000051,249.6976294000051,None,251.00535320001654,None,right,1.2632480000029318,251.00535320001654,None,252.30102700000862,None,right,0.4555324999964796,252.30102700000862,None,,,,,,,,,,,,,,,,,,,,,,,PPT27,001,2022-07-04_13h57.02.679,ABstudy,2022.1.4,59.91748162979152,
AB,Lag1_T1A_T2A,1,A,A,6,7,5,5,12,Safe,Did you see the Safe?,0.12,0.016,JPG\,hammer01,sponge01,toaster01,cherry01,feather03a,mushroom01,measuringcup01,pencil01,tennisball01b,brick,clock04,medal02b,blankImage,blankImage,blankImage,blankImage,blankImage,downhillski,,,,,,,,,,,,0,12,12,294,,,,,,,,,,,,,,,,,,,,,,,,,,,,,,,,,,,252.7893507000408,253.80258650000906,253.7857958000386,254.40833420003764,254.40833420003764,None,255.79542989999754,None,right,1.1304096999811009,255.79542989999754,None,256.9559979000478,None,right,0.36070140002993867,256.9559979000478,None,,,,,,,,,,,,,,,,,,,,,,,PPT27,001,2022-07-04_13h57.02.679,ABstudy,2022.1.4,59.91748162979152,
AB,Lag5_T1A_T2P,5,A,P,5,10,4,4,14,duck,Did you see the duck?,0.12,0.016,JPG\,brick,eraser,cucumber,ashtray01,thermometer02b,binoculars01b,lipstick02a,screwdriver04b,grape01,stapler04b,battery02b,iron01b,dice05a,avocado01,blankImage,blankImage,blankImage,barrel01,,,,,,,,,,,,0,13,13,280,,,,,,,,,,,,,,,,,,,,,,,,,,,,,,,,,,,257.3437593000126,258.3567127000424,258.340101400041,258.9280327000306,258.9280327000306,None,260.70205970003735,None,right,0.6704412999679334,260.70205970003735,None,261.3949484000332,None,right,0.32198030001018196,261.3949484000332,None,,,,,,,,,,,,,,,,,,,,,,,PPT27,001,2022-07-04_13h57.02.679,ABstudy,2022.1.4,59.91748162979152,
AB,Lag1_T1P_T2P,1,P,P,5,6,4,3,9,hockey stick,Did you see the hockey stick?,0.12,0.016,JPG\,violin,pizza,toothbrush03b,pineapple01a,hockeystick,stapler03b,candy,dandelion,clock04,blankImage,blankImage,blankImage,blankImage,blankImage,blankImage,blankImage,blankImage,hockeystick,,,,,,,,,,,,0,14,14,63,,,,,,,,,,,,,,,,,,,,,,,,,,,,,,,,,,,261.7486342000193,262.761501400033,262.74467060004827,263.35017510002945,263.35017510002945,None,264.4206549000228,None,right,0.6729369999957271,264.4206549000228,None,265.11639780004043,None,right,0.2959819000097923,265.11639780004043,None,,,,,,,,,,,,,,,,,,,,,,,PPT27,001,2022-07-04_13h57.02.679,ABstudy,2022.1.4,59.91748162979152,
AB,Lag1_T1P_T2P,1,P,P,7,8,6,3,11,locker,Did you see the locker?,0.12,0.016,JPG\,toiletpaper01a,lipstick02a,potato02b,speaker04,globe,strawberry,locker,stapler04b,sock01a,candle08b,pen04b,blankImage,blankImage,blankImage,blankImage,blankImage,blankImage,locker,,,,,,,,,,,,0,15,15,19,,,,,,,,,,,,,,,,,,,,,,,,,,,,,,,,,,,265.43962350004585,266.44822720001685,266.4315511000459,267.015114800015,267.015114800015,None,268.3909931000089,None,left,0.5897886999882758,268.3909931000089,None,269.0038250000216,None,right,0.2808377000037581,269.0038250000216,None,,,,,,,,,,,,,,,,,,,,,,,PPT27,001,2022-07-04_13h57.02.679,ABstudy,2022.1.4,59.91748162979152,
AB,Lag5_T1A_T2P,5,A,P,5,10,4,5,15,Eye patch,Did you see the Eye patch?,0.12,0.016,JPG\,scissors01,balloon01b,eraser,feather03a,banana01,candle01,measuringcup01,calculator01,thermometer02b,stapler03b,pear01,carrot01,globe,baseball01a,leaf02a,blankImage,blankImage,cross01,,,,,,,,,,,,0,16,16,258,,,,,,,,,,,,,,,,,,,,,,,,,,,,,,,,,,,269.30834650003817,270.31911530002253,270.3024438000284,270.92802059999667,270.92802059999667,None,272.6687493000063,None,right,0.6483113000285812,272.6687493000063,None,273.3381418000208,None,right,0.33861829998204485,273.3381418000208,None,,,,,,,,,,,,,,,,,,,,,,,PPT27,001,2022-07-04_13h57.02.679,ABstudy,2022.1.4,59.91748162979152,
AB,Lag5_T1P_T2A,5,P,A,8,13,7,4,17,Tarantula,Did you see the Tarantula?,0.12,0.016,JPG\,binoculars01b,speaker04,sandal,envelope03a,plate01b,comb02a,battery02b,tarantula,measuringcup01,key01,medal02b,lamp04a,tennisball01b,pizza,cigarette,sunglasses04,blankImage,tarantula,,,,,,,,,,,,0,17,17,201,,,,,,,,,,,,,,,,,,,,,,,,,,,,,,,,,,,273.7094459999935,274.72371099999873,274.7079415000044,275.3691047000466,275.2850520000211,None,277.26865220000036,None,left,0.5925255999900401,277.26865220000036,None,277.8953507000115,None,right,0.2934219000162557,277.8953507000115,None,,,,,,,,,,,,,,,,,,,,,,,PPT27,001,2022-07-04_13h57.02.679,ABstudy,2022.1.4,59.91748162979152,
AB,Lag5_T1P_T2P,5,P,P,7,12,6,3,15,Rollerblade,Did you see the Rollerblade?,0.12,0.016,JPG\,hammer01,sponge01,toaster01,cherry01,feather03a,mushroom01,rollerblade,pencil01,tennisball01b,brick,clock04,stapler06,teabag,garlic01a,envelope03a,blankImage,blankImage,rollerblade,,,,,,,,,,,,0,18,18,116,,,,,,,,,,,,,,,,,,,,,,,,,,,,,,,,,,,278.22621620004065,279.22822550003184,279.2126748000155,279.84444840002107,279.77376519999234,None,281.6466199000133,None,left,0.36585760000161827,281.6466199000133,None,282.03069410001626,None,left,0.24612949998117983,282.03069410001626,None,,,,,,,,,,,,,,,,,,,,,,,PPT27,001,2022-07-04_13h57.02.679,ABstudy,2022.1.4,59.91748162979152,
AB,Lag1_T1P_T2A,1,P,A,5,6,4,5,11,Sailboat,Did you see the Sailboat?,0.12,0.016,JPG\,chain01,speaker04,avocado01,watermelon01,sailboat,comb02a,lamp04a,fork03c,toaster01,slipper03b,scissors01,blankImage,blankImage,blankImage,blankImage,blankImage,blankImage,sailboat,,,,,,,,,,,,0,19,19,193,,,,,,,,,,,,,,,,,,,,,,,,,,,,,,,,,,,282.35204160003923,283.365123399999,283.34845460002543,283.9221700000344,283.9221700000344,None,285.2395390000311,None,right,0.7573808999732137,285.2395390000311,None,286.01887710002484,None,right,0.6976839999551885,286.01887710002484,None,,,,,,,,,,,,,,,,,,,,,,,PPT27,001,2022-07-04_13h57.02.679,ABstudy,2022.1.4,59.91748162979152,
AB,Lag5_T1P_T2P,5,P,P,6,11,5,5,16,microwave,Did you see the microwave?,0.12,0.016,JPG\,pen04b,speaker04,lighter01,cherry01,weight04a,microwave,sock01a,toothbrush03b,broom01,sewingmachine01a,stapler06,iron01b,clock01a,sandal,cd,blueberry01,blankImage,microwave,,,,,,,,,,,,0,20,20,136,,,,,,,,,,,,,,,,,,,,,,,,,,,,,,,,,,,286.74326810002094,287.753041100048,287.73610420001205,288.30878690001555,288.30878690001555,None,290.3783210000256,None,left,0.45086079998873174,290.3783210000256,None,290.8561957000056,None,right,0.30098820000421256,290.8561957000056,None,,,,,,,,,,,,,,,,,,,,,,,PPT27,001,2022-07-04_13h57.02.679,ABstudy,2022.1.4,59.91748162979152,
AB,Lag5_T1P_T2P,5,P,P,6,11,5,4,15,shower,Did you see the shower?,0.12,0.016,JPG\,dice05a,watch02a,pig,lighter01,button01,shower,paintbrush01,microscope,plate01b,pen04b,stapler05,weight04a,carrot01,shirt02,globe,blankImage,blankImage,shower,,,,,,,,,,,,0,21,21,121,,,,,,,,,,,,,,,,,,,,,,,,,,,,,,,,,,,291.19496130000334,292.20742210000753,292.1906366000185,292.78584329999285,292.78584329999285,None,294.5836079000146,None,right,0.6696123000001535,294.5836079000146,None,295.27777159999823,None,right,0.21607879997463897,295.27777159999823,None,,,,,,,,,,,,,,,,,,,,,,,PPT27,001,2022-07-04_13h57.02.679,ABstudy,2022.1.4,59.91748162979152,
AB,Lag5_T1A_T2P,5,A,P,6,11,5,3,14,keys,Did you see the keys?,0.12,0.016,JPG\,pencil01,microscope,banana01,computerkeyboard02,celery,cellphone,scissors01,sock01a,book01b,onion,stapler03a,binoculars01b,baseball01a,iron01b,blankImage,blankImage,blankImage,treadmill,,,,,,,,,,,,0,22,22,275,,,,,,,,,,,,,,,,,,,,,,,,,,,,,,,,,,,295.51373619999504,296.52844270004425,296.49499949999154,297.0700060999952,297.0700060999952,None,298.8641964000417,None,right,0.7330969999893568,298.8641964000417,None,299.6150706000044,None,right,0.2371430000057444,299.6150706000044,None,,,,,,,,,,,,,,,,,,,,,,,PPT27,001,2022-07-04_13h57.02.679,ABstudy,2022.1.4,59.91748162979152,
AB,Lag1_T1P_T2P,1,P,P,7,8,6,3,11,compass,Did you see the compass?,0.12,0.016,JPG\,brick,plate01b,pen04b,toaster01,screwdriver04b,candle01,magneticcompass,stapler03a,pig,ring01,orange,blankImage,blankImage,blankImage,blankImage,blankImage,blankImage,magneticcompass,,,,,,,,,,,,0,23,23,66,,,,,,,,,,,,,,,,,,,,,,,,,,,,,,,,,,,299.8870487000095,300.8998083000188,300.8840402000351,301.4822333000484,301.4822333000484,None,302.8530059000477,None,left,0.9674049000022933,302.8530059000477,None,303.8523095000419,None,right,0.2562123999814503,303.8523095000419,None,,,,,,,,,,,,,,,,,,,,,,,PPT27,001,2022-07-04_13h57.02.679,ABstudy,2022.1.4,59.91748162979152,
AB,Lag5_T1P_T2P,5,P,P,6,11,5,5,16,sword,Did you see the sword?,0.12,0.016,JPG\,chain01,speaker04,avocado01,watermelon01,scarf,sword01,lamp04a,fork03c,toaster01,slipper03b,stapler03a,cucumber,teabag,ashtray01,computerkeyboard02,book01b,blankImage,sword01,,,,,,,,,,,,0,24,24,143,,,,,,,,,,,,,,,,,,,,,,,,,,,,,,,,,,,304.1418736000196,305.153686100035,305.13720430003013,305.69869059999473,305.69869059999473,None,307.65639060002286,None,left,0.7484704999951646,307.65639060002286,None,308.42332040000474,None,right,0.253403700015042,308.42332040000474,None,,,,,,,,,,,,,,,,,,,,,,,PPT27,001,2022-07-04_13h57.02.679,ABstudy,2022.1.4,59.91748162979152,
AB,Lag5_T1P_T2P,5,P,P,7,12,6,5,17,American football helmet,Did you see the American football helmet?,0.12,0.016,JPG\,alligator,banana01,apple07,tomato01,button01,spoon01,footballhelmet,fork03c,slipper03b,potato02b,grape01,stapler03b,teabag,screwdriver04b,hammer01,tennisball01b,blankImage,footballhelmet,,,,,,,,,,,,0,25,25,148,,,,,,,,,,,,,,,,,,,,,,,,,,,,,,,,,,,308.71459059999324,309.72464309999486,309.70796440000413,310.2084984999965,310.2084984999965,None,312.2714831000194,None,left,0.4292452000081539,312.2714831000194,None,312.7280900000478,None,left,0.15654060000088066,312.7280900000478,None,,,,,,,,,,,,,,,,,,,,,,,PPT27,001,2022-07-04_13h57.02.679,ABstudy,2022.1.4,59.91748162979152,
AB,Lag5_T1P_T2P,5,P,P,8,13,7,5,18,skis,Did you see the skis?,0.12,0.016,JPG\,tennisball01b,paintbrush01,medal02b,apple07,speaker04,iron01b,avocado01,downhillski,belt02a,toiletpaper01a,watermelon01,candle01,stapler01,cymbal,ashtray01,screwdriver04b,blankImage,downhillski,,,,,,,,,,,,0,26,26,106,,,,,,,,,,,,,,,,,,,,,,,,,,,,,,,,,,,312.9146883999929,313.9290666000452,313.89558160002343,314.4894906000118,314.4894906000118,None,316.45172620000085,None,left,0.5374162000371143,316.45172620000085,None,317.0181675000349,None,left,0.29013019998092204,317.0181675000349,None,,,,,,,,,,,,,,,,,,,,,,,PPT27,001,2022-07-04_13h57.02.679,ABstudy,2022.1.4,59.91748162979152,
AB,Lag5_T1P_T2P,5,P,P,5,10,4,5,15,Ipad,Did you see the Ipad?,0.12,0.016,JPG\,fork03c,toothbrush03b,cellphone,fan,ipad02,clock01a,ring01,eraser,sunglasses04,stapler06,violin,brownsugar,blueberry01,pear01,pencil01,blankImage,blankImage,ipad02,,,,,,,,,,,,0,27,27,150,,,,,,,,,,,,,,,,,,,,,,,,,,,,,,,,,,,317.33446470001945,318.33364010002697,318.31685290002497,318.8885876000277,318.8885876000277,None,320.7383045000024,None,right,0.8183447999763303,320.7383045000024,None,321.58733710000524,None,right,0.23394279996864498,321.58733710000524,None,,,,,,,,,,,,,,,,,,,,,,,PPT27,001,2022-07-04_13h57.02.679,ABstudy,2022.1.4,59.91748162979152,
AB,Lag1_T1A_T2P,1,A,P,5,6,4,3,9,Crown,Did you see the Crown?,0.12,0.016,JPG\,leaf02a,pear01,measuringcup01,cigarette,fan,stapler04b,teabag,tableknife02,ring01,blankImage,blankImage,blankImage,blankImage,blankImage,blankImage,blankImage,blankImage,arrow02,,,,,,,,,,,,0,28,28,248,,,,,,,,,,,,,,,,,,,,,,,,,,,,,,,,,,,321.85976630001096,322.8711704000016,322.8546176000382,323.4184538000263,323.4184538000263,None,324.5505301000085,None,right,1.0300145000219345,324.5505301000085,None,325.6073952000006,None,right,0.17391390004195273,325.6073952000006,None,,,,,,,,,,,,,,,,,,,,,,,PPT27,001,2022-07-04_13h57.02.679,ABstudy,2022.1.4,59.91748162979152,
AB,Lag5_T1A_T2P,5,A,P,6,11,5,3,14,saxophone,Did you see the saxophone?,0.12,0.016,JPG\,globe,belt02a,sponge01,violin,fork03c,tomato01,clock01a,microscope,balloon01b,scarf,stapler03b,pen04b,brick,brownsugar,blankImage,blankImage,blankImage,microphone01,,,,,,,,,,,,0,29,29,267,,,,,,,,,,,,,,,,,,,,,,,,,,,,,,,,,,,325.8080835000146,326.80881670000963,326.7921023000381,327.3667182000354,327.3667182000354,None,329.0102507999982,None,right,0.9059121000464074,329.0102507999982,None,329.94570070004556,None,left,0.2104471999919042,329.94570070004556,None,,,,,,,,,,,,,,,,,,,,,,,PPT27,001,2022-07-04_13h57.02.679,ABstudy,2022.1.4,59.91748162979152,
AB,Lag1_T1A_T2P,1,A,P,8,9,7,4,13,Fireplace,Did you see the Fireplace?,0.12,0.016,JPG\,scissors01,ashtray01,garlic01a,medal02b,cigarette,candle08b,leaf02a,envelope03a,stapler06,rice,toiletpaper01a,greenolive,cymbal,blankImage,blankImage,blankImage,blankImage,dartboard,,,,,,,,,,,,0,30,30,252,,,,,,,,,,,,,,,,,,,,,,,,,,,,,,,,,,,330.18845280003734,331.1966771000298,331.18113109999103,331.82448870001826,331.7531066000229,None,333.2545600000303,None,right,0.7340345000266097,333.2545600000303,None,334.0166026999941,None,right,0.17263619997538626,334.0166026999941,None,,,,,,,,,,,,,,,,,,,,,,,PPT27,001,2022-07-04_13h57.02.679,ABstudy,2022.1.4,59.91748162979152,
AB,Lag1_T1P_T2P,1,P,P,5,6,4,3,9,camel,Did you see the camel?,0.12,0.016,JPG\,iron01b,brick,broccoli01a,balloon01b,dromedary,stapler05,sandal,teabag,scissors01,blankImage,blankImage,blankImage,blankImage,blankImage,blankImage,blankImage,blankImage,dromedary,,,,,,,,,,,,0,31,31,11,,,,,,,,,,,,,,,,,,,,,,,,,,,,,,,,,,,334.2223489000462,335.23376120004104,335.2170310000074,335.8117381000193,335.8117381000193,None,336.86666350002633,None,left,1.170038799988106,336.86666350002633,None,338.05326590000186,None,right,0.2554967000032775,338.05326590000186,None,,,,,,,,,,,,,,,,,,,,,,,PPT27,001,2022-07-04_13h57.02.679,ABstudy,2022.1.4,59.91748162979152,
AB,Lag1_T1A_T2P,1,A,P,6,7,5,3,10,Jellyfish,Did you see the Jellyfish?,0.12,0.016,JPG\,thermometer02b,avocado01,scissors01,tennisball01b,medal02b,banana01,stapler01,cigarette,potato02b,pineapple01a,blankImage,blankImage,blankImage,blankImage,blankImage,blankImage,blankImage,firehydrant,,,,,,,,,,,,0,32,32,255,,,,,,,,,,,,,,,,,,,,,,,,,,,,,,,,,,,338.34616220003227,339.35447360004764,339.337854100042,339.90581810002914,339.90581810002914,None,341.17404020001413,None,right,0.9750454000313766,341.17404020001413,None,342.1735625000438,None,left,0.21461309998994693,342.1735625000438,None,,,,,,,,,,,,,,,,,,,,,,,PPT27,001,2022-07-04_13h57.02.679,ABstudy,2022.1.4,59.91748162979152,
AB,Lag1_T1P_T2A,1,P,A,7,8,6,3,11,Armadillo,Did you see the Armadillo?,0.12,0.016,JPG\,clock01a,cellphone,toaster01,toothbrush03b,cauliflower01,microscope,armadillo,paintbrush01,scarf,clock04,sponge01,blankImage,blankImage,blankImage,blankImage,blankImage,blankImage,armadillo,,,,,,,,,,,,0,33,33,180,,,,,,,,,,,,,,,,,,,,,,,,,,,,,,,,,,,342.40947180002695,343.42488850001246,343.39151929999935,343.9723251000396,343.9723251000396,None,345.4027629000484,None,left,0.674555399978999,345.4027629000484,None,346.09419510001317,None,left,0.15828289999626577,346.09419510001317,None,,,,,,,,,,,,,,,,,,,,,,,PPT27,001,2022-07-04_13h57.02.679,ABstudy,2022.1.4,59.91748162979152,
AB,Lag1_T1P_T2P,1,P,P,5,6,4,5,11,golf ball,Did you see the golf ball?,0.12,0.016,JPG\,foosballtable,cigarette,pen04b,birthdaycandle,golfball,stapler05,binoculars01b,chain01,potato02b,cauliflower01,paintbrush01,blankImage,blankImage,blankImage,blankImage,blankImage,blankImage,golfball,,,,,,,,,,,,0,34,34,13,,,,,,,,,,,,,,,,,,,,,,,,,,,,,,,,,,,346.2802575000096,347.29570800001966,347.2623966000392,347.764350500016,347.764350500016,None,349.15850680001313,None,left,0.43771180004114285,349.15850680001313,None,349.61480010004016,None,left,0.16639119997853413,349.61480010004016,None,,,,,,,,,,,,,,,,,,,,,,,PPT27,001,2022-07-04_13h57.02.679,ABstudy,2022.1.4,59.91748162979152,
AB,Lag5_T1P_T2A,5,P,A,5,10,4,4,14,rocket,Did you see the rocket?,0.12,0.016,JPG\,fan,tomato01,candy,screwdriver04b,spacerocket,cd,thermometer02b,apple07,button01,plate01b,brownsugar,lighter01,clock01a,envelope03a,blankImage,blankImage,blankImage,spacerocket,,,,,,,,,,,,0,35,35,226,,,,,,,,,,,,,,,,,,,,,,,,,,,,,,,,,,,349.8020451000193,350.8157362000202,350.798999599996,351.3871941000107,351.3871941000107,None,353.09177400002955,None,left,0.9845440000062808,353.09177400002955,None,354.10253780003404,None,right,0.24565940001048148,354.10253780003404,None,,,,,,,,,,,,,,,,,,,,,,,PPT27,001,2022-07-04_13h57.02.679,ABstudy,2022.1.4,59.91748162979152,
AB,Lag1_T1P_T2A,1,P,A,6,7,5,3,10,Dragon fly,Did you see the Dragon fly?,0.12,0.016,JPG\,leaf02a,pear01,measuringcup01,cigarette,fan,dragonfly01,teabag,tableknife02,ring01,pencil01,blankImage,blankImage,blankImage,blankImage,blankImage,blankImage,blankImage,dragonfly01,,,,,,,,,,,,0,36,36,185,,,,,,,,,,,,,,,,,,,,,,,,,,,,,,,,,,,354.37598589999834,355.3874133999925,355.3716857000254,356.02149850002024,355.9482431000215,None,357.16705770004774,None,left,0.8450179000501521,357.16705770004774,None,358.039406099997,None,right,0.22072310000658035,358.039406099997,None,,,,,,,,,,,,,,,,,,,,,,,PPT27,001,2022-07-04_13h57.02.679,ABstudy,2022.1.4,59.91748162979152,
AB,Lag1_T1P_T2P,1,P,P,5,6,4,5,11,shark,Did you see the shark?,0.12,0.016,JPG\,cucumber,sponge01,alligator,pear01,greatwhiteshark,stapler06,clock04,battery02b,fork03c,binoculars01b,mushroom01,blankImage,blankImage,blankImage,blankImage,blankImage,blankImage,greatwhiteshark,,,,,,,,,,,,0,37,37,84,,,,,,,,,,,,,,,,,,,,,,,,,,,,,,,,,,,358.29191980004543,359.3073325000005,359.27398769999854,359.85601970000425,359.85601970000425,None,361.23724550002953,None,left,0.7271555999759585,361.23724550002953,None,361.9937067000428,None,right,0.20243849995313212,361.9937067000428,None,,,,,,,,,,,,,,,,,,,,,,,PPT27,001,2022-07-04_13h57.02.679,ABstudy,2022.1.4,59.91748162979152,
AB,Lag1_T1A_T2P,1,A,P,7,8,6,3,11,Fox,Did you see the Fox?,0.12,0.016,JPG\,toaster01,chain01,sponge01,baseball01a,carrot01,belt02a,book01b,stapler03b,grape01,brick,celery,blankImage,blankImage,blankImage,blankImage,blankImage,blankImage,fingerprint,,,,,,,,,,,,0,38,38,234,,,,,,,,,,,,,,,,,,,,,,,,,,,,,,,,,,,362.2317652000347,363.2448363000294,363.22803940001177,363.83191649999935,363.83191649999935,None,365.1709950999939,None,right,0.8577904000412673,365.1709950999939,None,366.04737470002146,None,left,0.5014436999917962,366.04737470002146,None,,,,,,,,,,,,,,,,,,,,,,,PPT27,001,2022-07-04_13h57.02.679,ABstudy,2022.1.4,59.91748162979152,
AB,Lag5_T1A_T2P,5,A,P,5,10,4,5,15,Sushi,Did you see the Sushi?,0.12,0.016,JPG\,pineapple01a,leaf02a,grape01,toiletpaper01a,match,tennisball01b,spoon01,chain01,pig,stapler04b,ring01,lemon02,dice05a,pizza,potato02b,blankImage,blankImage,crown,,,,,,,,,,,,0,39,39,285,,,,,,,,,,,,,,,,,,,,,,,,,,,,,,,,,,,366.5834843000048,367.5989501000149,367.56557930004783,368.1437496000435,368.1437496000435,None,369.9993931000354,None,right,1.0046300999820232,369.9993931000354,None,371.0359579999931,None,right,0.19335449999198318,371.0359579999931,None,,,,,,,,,,,,,,,,,,,,,,,PPT27,001,2022-07-04_13h57.02.679,ABstudy,2022.1.4,59.91748162979152,
AB,Lag5_T1A_T2P,5,A,P,8,13,7,5,18,fish,Did you see the fish?,0.12,0.016,JPG\,scissors01,grape01,mushroom01,toiletpaper01a,greenolive,pizza,cigarette,ashtray01,carrot01,pineapple01a,foosballtable,lipstick02a,stapler04b,tambourine02,potato02b,violin,blankImage,chimney,,,,,,,,,,,,0,40,40,283,,,,,,,,,,,,,,,,,,,,,,,,,,,,,,,,,,,371.2574951000279,372.2705178000033,372.25389420002466,372.82265330001246,372.82265330001246,None,374.79750330001116,None,right,0.9830461000092328,374.79750330001116,None,375.80711190000875,None,right,0.17338639998342842,375.80711190000875,None,,,,,,,,,,,,,,,,,,,,,,,PPT27,001,2022-07-04_13h57.02.679,ABstudy,2022.1.4,59.91748162979152,
AB,Lag1_T1P_T2P,1,P,P,8,9,7,4,13,crab,Did you see the crab?,0.12,0.016,JPG\,candle01,fork03c,plate01b,violin,computerkeyboard02,candy,calculator01,crab01,stapler04b,sock01a,teabag,banana01,cd,blankImage,blankImage,blankImage,blankImage,crab01,,,,,,,,,,,,0,41,41,37,,,,,,,,,,,,,,,,,,,,,,,,,,,,,,,,,,,376.009570299997,377.0090236000251,376.9933241000399,377.5969538000063,377.5969538000063,None,379.2302946000127,None,left,0.6699906000285409,379.2302946000127,None,379.9282453000196,None,right,0.3798934000078589,379.9282453000196,None,,,,,,,,,,,,,,,,,,,,,,,PPT27,001,2022-07-04_13h57.02.679,ABstudy,2022.1.4,59.91748162979152,
AB,Lag1_T1P_T2A,1,P,A,8,9,7,4,13,boat,Did you see the boat?,0.12,0.016,JPG\,fork03c,dandelion,dice05a,belt02a,onion,watch02a,key01,boat,eraser,medal02b,greenolive,shirt02,candle08b,blankImage,blankImage,blankImage,blankImage,boat,,,,,,,,,,,,0,42,42,199,,,,,,,,,,,,,,,,,,,,,,,,,,,,,,,,,,,380.33187380002346,381.34614080004394,381.32941150001716,381.9582798000192,381.88801250001416,None,383.5191870999988,None,right,0.7087309000198729,383.5191870999988,None,384.24884600000223,None,right,0.2208113999804482,384.24884600000223,None,,,,,,,,,,,,,,,,,,,,,,,PPT27,001,2022-07-04_13h57.02.679,ABstudy,2022.1.4,59.91748162979152,
AB,Lag5_T1P_T2P,5,P,P,7,12,6,4,16,flower,Did you see the flower?,0.12,0.016,JPG\,cucumber,sponge01,alligator,pear01,ashtray01,hammer01,hibiscusflower02,battery02b,fork03c,binoculars01b,mushroom01,stapler01,leaf02a,acorn,comb02a,screwdriver04b,blankImage,hibiscusflower02,,,,,,,,,,,,0,43,43,132,,,,,,,,,,,,,,,,,,,,,,,,,,,,,,,,,,,384.50441839999985,385.51704679999966,385.50042160000885,386.06867180002155,386.06867180002155,None,388.04446200001985,None,left,0.7607431000215001,388.04446200001985,None,388.83668980002403,None,right,0.24756709998473525,388.83668980002403,None,,,,,,,,,,,,,,,,,,,,,,,PPT27,001,2022-07-04_13h57.02.679,ABstudy,2022.1.4,59.91748162979152,
AB,Lag1_T1P_T2P,1,P,P,6,7,5,4,11,cash register,Did you see the cash register?,0.12,0.016,JPG\,leaf02a,apple07,cd,pineapple01a,envelope03a,cashregister01,stapler03b,8ball,rice,feather03a,lemon02,blankImage,blankImage,blankImage,blankImage,blankImage,blankImage,cashregister01,,,,,,,,,,,,0,44,44,79,,,,,,,,,,,,,,,,,,,,,,,,,,,,,,,,,,,389.1060827000183,390.1213905000477,390.08802680001827,390.6586820000084,390.6586820000084,None,392.02726000000257,None,left,0.6572127999970689,392.02726000000257,None,392.7076934000361,None,right,0.328809899976477,392.7076934000361,None,,,,,,,,,,,,,,,,,,,,,,,PPT27,001,2022-07-04_13h57.02.679,ABstudy,2022.1.4,59.91748162979152,
AB,Lag1_T1P_T2P,1,P,P,6,7,5,4,11,American football,Did you see the American football?,0.12,0.016,JPG\,toaster01,garlic01a,faucet,fan,comb02a,football,stapler06,watch02a,onion,blueberry01,toiletpaper01a,blankImage,blankImage,blankImage,blankImage,blankImage,blankImage,football,,,,,,,,,,,,0,45,45,12,,,,,,,,,,,,,,,,,,,,,,,,,,,,,,,,,,,393.11840050003957,394.12565699999686,394.1090293000452,394.71722570003476,394.71722570003476,None,396.02142110001296,None,left,0.894798900000751,396.02142110001296,None,396.9451803000411,None,left,0.13904509996064007,396.9451803000411,None,,,,,,,,,,,,,,,,,,,,,,,PPT27,001,2022-07-04_13h57.02.679,ABstudy,2022.1.4,59.91748162979152,
AB,Lag5_T1P_T2P,5,P,P,8,13,7,5,18,Kiwi,Did you see the Kiwi?,0.12,0.016,JPG\,violin,pizza,toothbrush03b,pineapple01a,banana01,ashtray01,candy,kiwi03,clock04,sock01a,microscope,speaker04,stapler04b,sunglasses04,lipstick02a,blueberry01,blankImage,kiwi03,,,,,,,,,,,,0,46,46,111,,,,,,,,,,,,,,,,,,,,,,,,,,,,,,,,,,,397.1190440999926,398.12954620004166,398.11289350001607,398.6908106000046,398.6908106000046,None,400.69075930002145,None,left,0.6018581999815069,400.69075930002145,None,401.31687750003766,None,right,0.21495860000140965,401.31687750003766,None,,,,,,,,,,,,,,,,,,,,,,,PPT27,001,2022-07-04_13h57.02.679,ABstudy,2022.1.4,59.91748162979152,
AB,Lag5_T1P_T2P,5,P,P,5,10,4,5,15,hockey puck,Did you see the hockey puck?,0.12,0.016,JPG\,chain01,pen04b,birthdaycandle,watermelon01,hockeypuck,scissors01,measuringcup01,candle01,hammer01,stapler06,ashtray01,feather03a,sewingmachine01a,thermometer02b,alligator,blankImage,blankImage,hockeypuck,,,,,,,,,,,,0,47,47,110,,,,,,,,,,,,,,,,,,,,,,,,,,,,,,,,,,,401.54919849999715,402.5510046000127,402.53521120001096,403.14013870002236,403.14013870002236,None,404.85955680004554,None,left,0.7924699999857694,404.85955680004554,None,405.6718939000275,None,right,0.25287710002157837,405.6718939000275,None,,,,,,,,,,,,,,,,,,,,,,,PPT27,001,2022-07-04_13h57.02.679,ABstudy,2022.1.4,59.91748162979152,
AB,Lag5_T1P_T2P,5,P,P,5,10,4,3,13,Rabbit,Did you see the Rabbit?,0.12,0.016,JPG\,celery,tennisball01b,calculator01,pear01,jackrabbit,orange,button01,cellphone,onion,stapler06,iron01b,brownsugar,banana01,blankImage,blankImage,blankImage,blankImage,jackrabbit,,,,,,,,,,,,0,48,48,90,,,,,,,,,,,,,,,,,,,,,,,,,,,,,,,,,,,405.9568946000072,406.97152700001607,406.9380873000482,407.51970140001504,407.51970140001504,None,409.1553732000175,None,left,0.48927000002004206,409.1553732000175,None,409.6743795000366,None,left,0.1701372999814339,409.6743795000366,None,,,,,,,,,,,,,,,,,,,,,,,PPT27,001,2022-07-04_13h57.02.679,ABstudy,2022.1.4,59.91748162979152,
AB,Lag5_T1A_T2P,5,A,P,7,12,6,4,16,church,Did you see the church?,0.12,0.016,JPG\,printer02,leaf02a,cauliflower01,sock01a,brownsugar,paintbrush01,pig,orange,belt02a,shirt02,key01,stapler06,cigarette,scissors01,envelope03a,blueberry01,blankImage,ant,,,,,,,,,,,,0,49,49,279,,,,,,,,,,,,,,,,,,,,,,,,,,,,,,,,,,,409.87831000000006,410.89230530004716,410.87563660001615,411.45109829999274,411.45109829999274,None,413.4388483000221,None,right,1.0530304999556392,413.4388483000221,None,414.51271580002503,None,left,0.3159999999916181,414.51271580002503,None,,,,,,,,,,,,,,,,,,,,,,,PPT27,001,2022-07-04_13h57.02.679,ABstudy,2022.1.4,59.91748162979152,
AB,Lag5_T1A_T2P,5,A,P,5,10,4,4,14,Chefs hat,Did you see the Chefs hat?,0.12,0.016,JPG\,candle01,fork03c,plate01b,violin,computerkeyboard02,candy,calculator01,paintbrush01,cherry01,stapler06,teabag,banana01,cd,lighter01,blankImage,blankImage,blankImage,horseshoe,,,,,,,,,,,,0,50,50,278,,,,,,,,,,,,,,,,,,,,,,,,,,,,,,,,,,,414.913446200022,415.91369760001544,415.8970701000071,416.4705776000046,416.4705776000046,None,418.1431787000038,None,right,1.3574531000340357,418.1431787000038,None,419.5177297000191,None,right,0.1990086999721825,419.5177297000191,None,,,,,,,,,,,,,,,,,,,,,,,PPT27,001,2022-07-04_13h57.02.679,ABstudy,2022.1.4,59.91748162979152,
AB,Lag5_T1P_T2P,5,P,P,7,12,6,3,15,mail box,Did you see the mail box?,0.12,0.016,JPG\,key01,apple07,ring01,leaf02a,hammer01,tableknife02,postalmailbox01,sponge01,baseball01a,thermometer02b,celery,stapler06,grape01,cucumber,tennisball01b,blankImage,blankImage,postalmailbox01,,,,,,,,,,,,0,51,51,113,,,,,,,,,,,,,,,,,,,,,,,,,,,,,,,,,,,419.74059930001386,420.75198950001504,420.73529390001204,421.3113300999976,421.3113300999976,None,423.25475790002383,None,left,0.6139429999748245,423.25475790002383,None,423.8887362999958,None,right,0.31509520002873614,423.8887362999958,None,,,,,,,,,,,,,,,,,,,,,,,PPT27,001,2022-07-04_13h57.02.679,ABstudy,2022.1.4,59.91748162979152,
AB,Lag5_T1P_T2P,5,P,P,7,12,6,5,17,statue,Did you see the statue?,0.12,0.016,JPG\,pear01,clock01a,cymbal,match,ashtray01,globe,statue,button01,lemon02,pen04b,dice05a,stapler06,toothbrush03b,screwdriver04b,feather03a,key01,blankImage,statue,,,,,,,,,,,,0,52,52,100,,,,,,,,,,,,,,,,,,,,,,,,,,,,,,,,,,,424.2262446000241,425.2398700999911,425.2230549000087,425.7893006000086,425.7893006000086,None,427.7625482000294,None,left,0.7774695000262,427.7625482000294,None,428.55959100002656,None,right,0.21226149995345622,428.55959100002656,None,,,,,,,,,,,,,,,,,,,,,,,PPT27,001,2022-07-04_13h57.02.679,ABstudy,2022.1.4,59.91748162979152,
AB,Lag1_T1P_T2P,1,P,P,7,8,6,4,12,cow,Did you see the cow?,0.12,0.016,JPG\,fork03c,plate01b,toiletpaper01a,greenolive,rice,blueberry01,cow,stapler01,envelope03a,orange,book01b,pencil01,blankImage,blankImage,blankImage,blankImage,blankImage,cow,,,,,,,,,,,,0,53,53,59,,,,,,,,,,,,,,,,,,,,,,,,,,,,,,,,,,,428.79544720001286,429.8108369000256,429.77752140001394,430.3484563000384,430.3484563000384,None,431.906918600027,None,left,0.4585928000160493,431.906918600027,None,432.3968534000451,None,left,0.15154079999774694,432.3968534000451,None,,,,,,,,,,,,,,,,,,,,,,,PPT27,001,2022-07-04_13h57.02.679,ABstudy,2022.1.4,59.91748162979152,
AB,Lag5_T1P_T2P,5,P,P,5,10,4,5,15,sword fish,Did you see the sword fish?,0.12,0.016,JPG\,scissors01,balloon01b,eraser,feather03a,swordfish,candle01,measuringcup01,calculator01,thermometer02b,stapler04b,pear01,carrot01,globe,baseball01a,leaf02a,blankImage,blankImage,swordfish,,,,,,,,,,,,0,54,54,160,,,,,,,,,,,,,,,,,,,,,,,,,,,,,,,,,,,432.5688176000258,433.5814696000307,433.54807020002045,434.131840200047,434.131840200047,None,435.92785720003303,None,left,0.7332914000144228,435.92785720003303,None,436.6848043000209,None,right,0.5349828000180423,436.6848043000209,None,,,,,,,,,,,,,,,,,,,,,,,PPT27,001,2022-07-04_13h57.02.679,ABstudy,2022.1.4,59.91748162979152,
AB,Lag1_T1P_T2P,1,P,P,8,9,7,4,13,ladder,Did you see the ladder?,0.12,0.016,JPG\,cigarette,fork03c,greenolive,broccoli01a,avocado01,tennisball01b,balloon01b,ladder,stapler03b,fan,clock01a,strawberry,envelope03a,blankImage,blankImage,blankImage,blankImage,ladder,,,,,,,,,,,,0,55,55,45,,,,,,,,,,,,,,,,,,,,,,,,,,,,,,,,,,,437.25496350001777,438.269526100019,438.2527138000005,438.8931988000404,438.8190287000034,None,440.4033872000291,None,left,0.9217322000185959,440.4033872000291,None,441.35593040002277,None,right,0.20014239998999983,441.35593040002277,None,,,,,,,,,,,,,,,,,,,,,,,PPT27,001,2022-07-04_13h57.02.679,ABstudy,2022.1.4,59.91748162979152,
AB,Lag5_T1P_T2P,5,P,P,6,11,5,3,14,wrench,Did you see the wrench?,0.12,0.016,JPG\,cherry01,cymbal,envelope03a,foosballtable,shirt02,stubbywrench01a,sewingmachine01a,candle08b,battery02b,apple07,stapler03b,screwdriver04b,strawberry,sunglasses04,blankImage,blankImage,blankImage,stubbywrench01a,,,,,,,,,,,,0,56,56,122,,,,,,,,,,,,,,,,,,,,,,,,,,,,,,,,,,,441.5781133000273,442.5904805000173,442.573715800012,443.16746590001276,443.16746590001276,None,444.83432470000116,None,left,0.6655900999903679,444.83432470000116,None,445.5261884999927,None,right,1.0793869000044651,445.5261884999927,None,,,,,,,,,,,,,,,,,,,,,,,PPT27,001,2022-07-04_13h57.02.679,ABstudy,2022.1.4,59.91748162979152,
AB,Lag5_T1A_T2P,5,A,P,7,12,6,5,17,funnel,Did you see the funnel?,0.12,0.016,JPG\,iron01b,orange,birthdaycandle,potato02b,cauliflower01,pencil01,key01,candle08b,celery,tableknife02,pen04b,stapler04b,ring01,rice,lemon02,tomato01,blankImage,englishcucumber,,,,,,,,,,,,0,57,57,259,,,,,,,,,,,,,,,,,,,,,,,,,,,,,,,,,,,446.63932580000255,447.6460497000371,447.6303205000004,448.28463790001115,448.20868129999144,None,450.11935940000694,None,right,1.2208742999937385,450.11935940000694,None,451.36597450001864,None,left,0.2783687000046484,451.36597450001864,None,,,,,,,,,,,,,,,,,,,,,,,PPT27,001,2022-07-04_13h57.02.679,ABstudy,2022.1.4,59.91748162979152,
AB,Lag5_T1P_T2P,5,P,P,5,10,4,5,15,mouse,Did you see the mouse?,0.12,0.016,JPG\,pineapple01a,leaf02a,grape01,toiletpaper01a,mouse,tennisball01b,spoon01,chain01,pig,stapler03a,ring01,lemon02,dice05a,pizza,potato02b,blankImage,blankImage,mouse,,,,,,,,,,,,0,58,58,94,,,,,,,,,,,,,,,,,,,,,,,,,,,,,,,,,,,451.67120070004603,452.6838861000142,452.6670917000156,453.2640087000327,453.2640087000327,None,455.18897640000796,None,left,0.3753417000407353,455.18897640000796,None,455.58921599999303,None,left,0.15906159998849034,455.58921599999303,None,,,,,,,,,,,,,,,,,,,,,,,PPT27,001,2022-07-04_13h57.02.679,ABstudy,2022.1.4,59.91748162979152,
AB,Lag1_T1A_T2A,1,A,A,5,6,4,3,9,Pigeon,Did you see the Pigeon?,0.12,0.016,JPG\,candle01,paintbrush01,scissors01,fan,microscope,toothbrush03b,candle08b,watermelon01,teabag,blankImage,blankImage,blankImage,blankImage,blankImage,blankImage,blankImage,blankImage,floorlamp,,,,,,,,,,,,0,59,59,286,,,,,,,,,,,,,,,,,,,,,,,,,,,,,,,,,,,455.77229430002626,456.7877174000023,456.75436429999536,457.323880400043,457.323880400043,None,458.4606038000202,None,right,0.7277185999555513,458.4606038000202,None,459.20968720002566,None,right,0.29169409995665774,459.20968720002566,None,,,,,,,,,,,,,,,,,,,,,,,PPT27,001,2022-07-04_13h57.02.679,ABstudy,2022.1.4,59.91748162979152,
AB,Lag5_T1P_T2P,5,P,P,8,13,7,3,16,banjo,Did you see the banjo?,0.12,0.016,JPG\,celery,brownsugar,key01,sunglasses04,leaf02a,toothbrush03b,dice05a,banjo,scarf,globe,paintbrush01,scissors01,stapler03a,battery02b,feather03a,cymbal,blankImage,banjo,,,,,,,,,,,,0,60,60,102,,,,,,,,,,,,,,,,,,,,,,,,,,,,,,,,,,,459.5394157000119,460.5417033000267,460.5250429000007,461.1002339000115,461.1002339000115,None,462.96210760000395,None,left,0.729889300011564,462.96210760000395,None,463.7115540000377,None,left,0.2935709999874234,463.7115540000377,None,,,,,,,,,,,,,,,,,,,,,,,PPT27,001,2022-07-04_13h57.02.679,ABstudy,2022.1.4,59.91748162979152,
AB,Lag5_T1A_T2P,5,A,P,6,11,5,4,15,butterfly,Did you see the butterfly?,0.12,0.016,JPG\,comb02a,key01,medal02b,battery02b,lighter01,microscope,watermelon01,sandal,pig,cellphone,stapler06,calculator01,cymbal,clock04,cucumber,blankImage,blankImage,uprightpiano01,,,,,,,,,,,,0,61,61,276,,,,,,,,,,,,,,,,,,,,,,,,,,,,,,,,,,,464.03356990002794,465.046298500034,465.02946650004014,465.61944860004587,465.61944860004587,None,467.40823220001766,None,right,0.804336900007911,467.40823220001766,None,468.2353674999904,None,right,0.19420159998117015,468.2353674999904,None,,,,,,,,,,,,,,,,,,,,,,,PPT27,001,2022-07-04_13h57.02.679,ABstudy,2022.1.4,59.91748162979152,
AB,Lag5_T1P_T2P,5,P,P,6,11,5,5,16,Parking meter,Did you see the Parking meter?,0.12,0.016,JPG\,dice05a,watch02a,pig,lighter01,button01,parkingmeter,paintbrush01,microscope,plate01b,pen04b,stapler03b,weight04a,carrot01,shirt02,globe,garlic01a,blankImage,parkingmeter,,,,,,,,,,,,0,62,62,172,,,,,,,,,,,,,,,,,,,,,,,,,,,,,,,,,,,468.50785970001016,469.517118400021,469.5004034000449,470.08134340000106,470.08134340000106,None,472.00275710003916,None,left,0.7136843999614939,472.00275710003916,None,472.73728010000195,None,right,0.2745182000217028,472.73728010000195,None,,,,,,,,,,,,,,,,,,,,,,,PPT27,001,2022-07-04_13h57.02.679,ABstudy,2022.1.4,59.91748162979152,
AB,Lag5_T1P_T2P,5,P,P,5,10,4,5,15,ear,Did you see the ear?,0.12,0.016,JPG\,fork03c,plate01b,toiletpaper01a,greenolive,ear,blueberry01,onion,calculator01,envelope03a,stapler06,book01b,pencil01,sewingmachine01a,brick,watermelon01,blankImage,blankImage,ear,,,,,,,,,,,,0,63,63,107,,,,,,,,,,,,,,,,,,,,,,,,,,,,,,,,,,,473.0406969000469,474.0552637000219,474.0218358000275,474.5876885000034,474.5876885000034,None,476.48049500002526,None,left,0.4115959999617189,476.48049500002526,None,476.9247180999955,None,left,0.14327850000699982,476.9247180999955,None,,,,,,,,,,,,,,,,,,,,,,,PPT27,001,2022-07-04_13h57.02.679,ABstudy,2022.1.4,59.91748162979152,
AB,Lag1_T1P_T2P,1,P,P,8,9,7,3,12,mail box,Did you see the mail box?,0.12,0.016,JPG\,paintbrush01,dice05a,watermelon01,broccoli01a,hammer01,leaf02a,match,mailbox01,stapler05,fan,lipstick02a,grape01,blankImage,blankImage,blankImage,blankImage,blankImage,mailbox01,,,,,,,,,,,,0,64,64,20,,,,,,,,,,,,,,,,,,,,,,,,,,,,,,,,,,,477.0973121999996,478.109569000022,478.09390770003665,478.744801599998,478.67169889999786,None,480.1317333000479,None,right,1.04158749995986,480.1317333000479,None,481.1984786000103,None,left,0.4135727999964729,481.1984786000103,None,,,,,,,,,,,,,,,,,,,,,,,PPT27,001,2022-07-04_13h57.02.679,ABstudy,2022.1.4,59.91748162979152,
AB,Lag5_T1P_T2A,5,P,A,8,13,7,5,18,telescope,Did you see the telescope?,0.12,0.016,JPG\,globe,broccoli01a,binoculars01b,iron01b,avocado01,dandelion,pineapple01a,handheldtelescope,fan,pizza,celery,blueberry01,sewingmachine01a,dice05a,watermelon01,candy,blankImage,handheldtelescope,,,,,,,,,,,,0,65,65,228,,,,,,,,,,,,,,,,,,,,,,,,,,,,,,,,,,,481.63173990004,482.64725500001805,482.6136720000068,483.19082170003094,483.19082170003094,None,485.20508139999583,None,left,0.7281407000264153,485.20508139999583,None,485.9500914000091,None,right,0.2460840999847278,485.9500914000091,None,,,,,,,,,,,,,,,,,,,,,,,PPT27,001,2022-07-04_13h57.02.679,ABstudy,2022.1.4,59.91748162979152,
AB,Lag5_T1P_T2P,5,P,P,8,13,7,4,17,surf board,Did you see the surf board?,0.12,0.016,JPG\,candy,brownsugar,dice05a,cd,sock01a,blueberry01,button01,surfboard,feather03a,grape01,dandelion,scissors01,stapler03b,candle08b,book01b,globe,blankImage,surfboard,,,,,,,,,,,,0,66,66,142,,,,,,,,,,,,,,,,,,,,,,,,,,,,,,,,,,,486.2218200000352,487.23474000004353,487.2180551000056,487.7991246000165,487.7991246000165,None,489.7477973999921,None,left,0.7601487000356428,489.7477973999921,None,490.5377015999984,None,right,0.2339371000416577,490.5377015999984,None,,,,,,,,,,,,,,,,,,,,,,,PPT27,001,2022-07-04_13h57.02.679,ABstudy,2022.1.4,59.91748162979152,
AB,Lag1_T1P_T2P,1,P,P,7,8,6,5,13,tiger,Did you see the tiger?,0.12,0.016,JPG\,globe,broccoli01a,binoculars01b,iron01b,avocado01,dandelion,tiger02,stapler03b,fan,pizza,celery,blueberry01,sewingmachine01a,blankImage,blankImage,blankImage,blankImage,tiger02,,,,,,,,,,,,0,67,67,50,,,,,,,,,,,,,,,,,,,,,,,,,,,,,,,,,,,490.7920834000106,491.8065287999925,491.7897448000149,492.4670516999904,492.38198470004136,None,493.9924098000047,None,left,0.8598350000102073,493.9924098000047,None,494.8760201000259,None,right,0.2799866999848746,494.8760201000259,None,,,,,,,,,,,,,,,,,,,,,,,PPT27,001,2022-07-04_13h57.02.679,ABstudy,2022.1.4,59.91748162979152,
AB,Lag1_T1P_T2P,1,P,P,5,6,4,3,9,mail box,Did you see the mail box?,0.12,0.016,JPG\,watermelon01,banana01,ring01,pencil01,mailbox02,stapler04b,cucumber,thermometer02b,key01,blankImage,blankImage,blankImage,blankImage,blankImage,blankImage,blankImage,blankImage,mailbox02,,,,,,,,,,,,0,68,68,21,,,,,,,,,,,,,,,,,,,,,,,,,,,,,,,,,,,495.1827060999931,496.1939638000331,496.1773007000447,496.75232890003826,496.75232890003826,None,497.8301778000314,None,left,1.0704326999839395,497.8301778000314,None,498.93205370003125,None,right,0.23951019998639822,498.93205370003125,None,,,,,,,,,,,,,,,,,,,,,,,PPT27,001,2022-07-04_13h57.02.679,ABstudy,2022.1.4,59.91748162979152,
AB,Lag5_T1P_T2P,5,P,P,5,10,4,5,15,penguin,Did you see the penguin?,0.12,0.016,JPG\,watermelon01,cigarette,pintofbeer,cymbal,penguin,feather03a,cherry01,broom01,battery02b,stapler05,baseball01a,iron01b,garlic01a,computerkeyboard02,pig,blankImage,blankImage,penguin,,,,,,,,,,,,0,69,69,137,,,,,,,,,,,,,,,,,,,,,,,,,,,,,,,,,,,499.2518667000113,500.26456510002026,500.24779240001226,500.8456255000201,500.8456255000201,None,502.5246791000245,None,left,0.7753467000438832,502.5246791000245,None,503.3177615000168,None,right,0.1994952000095509,503.3177615000168,None,,,,,,,,,,,,,,,,,,,,,,,PPT27,001,2022-07-04_13h57.02.679,ABstudy,2022.1.4,59.91748162979152,
AB,Lag1_T1A_T2P,1,A,P,8,9,7,3,12,elbow,Did you see the elbow?,0.12,0.016,JPG\,watermelon01,cigarette,faucet,cymbal,cauliflower01,feather03a,cherry01,broom01,stapler01,key01,baseball01a,iron01b,blankImage,blankImage,blankImage,blankImage,blankImage,cashregister01,,,,,,,,,,,,0,70,70,251,,,,,,,,,,,,,,,,,,,,,,,,,,,,,,,,,,,503.54753280000295,504.5521718999953,504.51871720002964,505.1127561000176,505.1127561000176,None,506.6013216000283,None,right,0.6590064999763854,506.6013216000283,None,507.28805309999734,None,right,0.18814539996674284,507.28805309999734,None,,,,,,,,,,,,,,,,,,,,,,,PPT27,001,2022-07-04_13h57.02.679,ABstudy,2022.1.4,59.91748162979152,
AB,Lag5_T1A_T2P,5,A,P,6,11,5,5,16,bed,Did you see the bed?,0.12,0.016,JPG\,cellphone,tomato01,comb02a,candy,celery,cucumber,toaster01,fan,feather03a,pen04b,stapler03b,blueberry01,plate01b,cherry01,baseball01a,candle08b,blankImage,toolbox02,,,,,,,,,,,,0,71,71,274,,,,,,,,,,,,,,,,,,,,,,,,,,,,,,,,,,,507.5071352000232,508.5226016000379,508.48925680003595,509.0741673000157,509.0741673000157,None,511.02178340003593,None,right,1.3899872999754734,511.02178340003593,None,512.4458712000051,None,left,0.21463860000949353,512.4458712000051,None,,,,,,,,,,,,,,,,,,,,,,,PPT27,001,2022-07-04_13h57.02.679,ABstudy,2022.1.4,59.91748162979152,
AB,Lag5_T1P_T2P,5,P,P,6,11,5,4,15,Bumper car,Did you see the Bumper car?,0.12,0.016,JPG\,eraser,measuringcup01,chain01,birthdaycandle,ring01,bumpercar,weight04a,pig,cauliflower01,celery,stapler01,sunglasses04,greenolive,candy,strawberry,blankImage,blankImage,bumpercar,,,,,,,,,,,,0,72,72,104,,,,,,,,,,,,,,,,,,,,,,,,,,,,,,,,,,,512.6947979000397,513.6942370000179,513.6775018000044,514.2553432999994,514.2553432999994,None,516.1067177000223,None,left,0.5294546000077389,516.1067177000223,None,516.6667744000442,None,left,0.1615872000111267,516.6667744000442,None,,,,,,,,,,,,,,,,,,,,,,,PPT27,001,2022-07-04_13h57.02.679,ABstudy,2022.1.4,59.91748162979152,
AB,Lag5_T1P_T2P,5,P,P,6,11,5,5,16,scooter,Did you see the scooter?,0.12,0.016,JPG\,thermometer02b,candle08b,comb02a,toothbrush03b,brick,scooter,key01,pineapple01a,candy,birthdaycandle,stapler04b,canoftennisballs,teabag,medal02b,balloon01b,banana01,blankImage,scooter,,,,,,,,,,,,0,73,73,118,,,,,,,,,,,,,,,,,,,,,,,,,,,,,,,,,,,516.8569215000025,517.8658462000312,517.850200200046,518.4504165000399,518.4504165000399,None,520.356763000018,None,left,0.463185100001283,520.356763000018,None,520.8517914999975,None,left,0.14398459997028112,520.8517914999975,None,,,,,,,,,,,,,,,,,,,,,,,PPT27,001,2022-07-04_13h57.02.679,ABstudy,2022.1.4,59.91748162979152,
AB,Lag5_T1P_T2P,5,P,P,8,13,7,4,17,butterfly,Did you see the butterfly?,0.12,0.016,JPG\,speaker04,sewingmachine01a,eraser,violin,globe,belt02a,sunglasses04,butterfly,cd,greenolive,alligator,pear01,stapler01,screwdriver04b,banana01,cigarette,blankImage,butterfly,,,,,,,,,,,,0,74,74,126,,,,,,,,,,,,,,,,,,,,,,,,,,,,,,,,,,,521.0873483000323,522.086421200016,522.086421200016,522.6802209000452,522.6802209000452,None,524.5025030000252,None,left,0.40592990000732243,524.5025030000252,None,524.9391492000432,None,left,0.1603834999841638,524.9391492000432,None,,,,,,,,,,,,,,,,,,,,,,,PPT27,001,2022-07-04_13h57.02.679,ABstudy,2022.1.4,59.91748162979152,
AB,Lag5_T1P_T2P,5,P,P,8,13,7,5,18,Ping pong Table,Did you see the Ping pong Table?,0.12,0.016,JPG\,shirt02,match,screw02,foosballtable,blueberry01,pineapple01a,sewingmachine01a,pingpongtable,button01,comb02a,dice05a,measuringcup01,stapler04b,printer02,carrot01,watermelon01,blankImage,pingpongtable,,,,,,,,,,,,0,75,75,152,,,,,,,,,,,,,,,,,,,,,,,,,,,,,,,,,,,525.1286265000235,526.1403565999935,526.1235662000254,526.7638832000084,526.7638832000084,None,528.6330079000327,None,left,2.53118779999204,528.6330079000327,None,531.1951955000404,None,right,0.3449585000053048,531.1951955000404,None,,,,,,,,,,,,,,,,,,,,,,,PPT27,001,2022-07-04_13h57.02.679,ABstudy,2022.1.4,59.91748162979152,
AB,Lag5_T1P_T2P,5,P,P,5,10,4,3,13,Jellyfish,Did you see the Jellyfish?,0.12,0.016,JPG\,printer02,envelope03a,potato02b,calculator01,jellyfish,cigarette,ashtray01,pig,broom01,stapler06,candle08b,battery02b,strawberry,blankImage,blankImage,blankImage,blankImage,jellyfish,,,,,,,,,,,,0,76,76,91,,,,,,,,,,,,,,,,,,,,,,,,,,,,,,,,,,,531.5652761000092,532.5795962000266,532.5473541000392,533.1538279000088,533.1538279000088,None,534.7545534000383,None,left,0.6096719999914058,534.7545534000383,None,535.3825777000166,None,left,0.1496225000009872,535.3825777000166,None,,,,,,,,,,,,,,,,,,,,,,,PPT27,001,2022-07-04_13h57.02.679,ABstudy,2022.1.4,59.91748162979152,
AB,Lag1_T1A_T2P,1,A,P,8,9,7,4,13,Christmas tree,Did you see the Christmas tree?,0.12,0.016,JPG\,broom01,globe,cellphone,tableknife02,cauliflower01,scissors01,ring01,alligator,stapler03a,toaster01,cigarette,grape01,microscope,blankImage,blankImage,blankImage,blankImage,windmill,,,,,,,,,,,,0,77,77,247,,,,,,,,,,,,,,,,,,,,,,,,,,,,,,,,,,,535.5952821000246,536.6022283000057,536.5853138000239,537.1624417999992,537.1624417999992,None,538.7266937000095,None,right,0.8615424000308849,538.7266937000095,None,539.6201265000273,None,right,0.1605629999539815,539.6201265000273,None,,,,,,,,,,,,,,,,,,,,,,,PPT27,001,2022-07-04_13h57.02.679,ABstudy,2022.1.4,59.91748162979152,
AB,Lag1_T1P_T2P,1,P,P,5,6,4,4,10,Ladybug,Did you see the Ladybug?,0.12,0.016,JPG\,key01,apple07,ring01,leaf02a,ladybug03,stapler04b,violin,sponge01,baseball01a,thermometer02b,blankImage,blankImage,blankImage,blankImage,blankImage,blankImage,blankImage,ladybug03,,,,,,,,,,,,0,78,78,65,,,,,,,,,,,,,,,,,,,,,,,,,,,,,,,,,,,539.8059575000079,540.8213992000092,540.7879700000049,541.3604181000264,541.3604181000264,None,542.6367862999905,None,left,0.7589128999970853,542.6367862999905,None,543.4243342000409,None,right,0.13135879999026656,543.4243342000409,None,,,,,,,,,,,,,,,,,,,,,,,PPT27,001,2022-07-04_13h57.02.679,ABstudy,2022.1.4,59.91748162979152,
AB,Lag5_T1P_T2A,5,P,A,5,10,4,3,13,pin,Did you see the pin?,0.12,0.016,JPG\,candle01,fork03c,plate01b,violin,pin,candy,calculator01,paintbrush01,cherry01,sock01a,teabag,banana01,cd,blankImage,blankImage,blankImage,blankImage,pin,,,,,,,,,,,,0,79,79,215,,,,,,,,,,,,,,,,,,,,,,,,,,,,,,,,,,,543.5782276000245,544.5920349000371,544.575498500024,545.1505458000465,545.1505458000465,None,546.7852587000234,None,right,0.7704146000323817,546.7852587000234,None,547.5792045000126,None,right,0.16088069998659194,547.5792045000126,None,,,,,,,,,,,,,,,,,,,,,,,PPT27,001,2022-07-04_13h57.02.679,ABstudy,2022.1.4,59.91748162979152,
AB,Lag5_T1A_T2P,5,A,P,7,12,6,3,15,Car,Did you see the Car?,0.12,0.016,JPG\,lighter01,hammer01,spoon01,chain01,cymbal,sponge01,lipstick02a,alligator,pig,watermelon01,cauliflower01,stapler03b,broccoli01a,tableknife02,tennisball01b,blankImage,blankImage,wallclock,,,,,,,,,,,,0,80,80,277,,,,,,,,,,,,,,,,,,,,,,,,,,,,,,,,,,,547.7657143000397,548.7795666000457,548.7627745000063,549.4069175000186,549.3341670000227,None,551.1404808000079,None,right,0.9523318000137806,551.1404808000079,None,552.1162972000311,None,left,0.279465599975083,552.1162972000311,None,,,,,,,,,,,,,,,,,,,,,,,PPT27,001,2022-07-04_13h57.02.679,ABstudy,2022.1.4,59.91748162979152,
AB,Lag1_T1A_T2P,1,A,P,8,9,7,5,14,clock,Did you see the clock?,0.12,0.016,JPG\,speaker04,sewingmachine01a,eraser,violin,globe,belt02a,sunglasses04,cymbal,stapler01,greenolive,alligator,pear01,watch02a,screwdriver04b,blankImage,blankImage,blankImage,peacock,,,,,,,,,,,,0,81,81,240,,,,,,,,,,,,,,,,,,,,,,,,,,,,,,,,,,,552.4200881000143,553.4340808000416,553.4175116000115,554.083795899991,554.0018625000375,None,555.7212399000418,None,right,1.002405599982012,555.7212399000418,None,556.7542185999919,None,left,0.21759920002659783,556.7542185999919,None,,,,,,,,,,,,,,,,,,,,,,,PPT27,001,2022-07-04_13h57.02.679,ABstudy,2022.1.4,59.91748162979152,
AB,Lag1_T1P_T2P,1,P,P,8,9,7,3,12,Sheep,Did you see the Sheep?,0.12,0.016,JPG\,celery,orange,scissors01,balloon01b,avocado01,printer02,mushroom01,sheep,stapler03b,dice05a,ashtray01,fan,blankImage,blankImage,blankImage,blankImage,blankImage,sheep,,,,,,,,,,,,0,82,82,71,,,,,,,,,,,,,,,,,,,,,,,,,,,,,,,,,,,557.0095320999972,558.0222713000257,558.0055593000143,558.5718527000281,558.5718527000281,None,560.0619224000257,None,left,0.5183362999814562,560.0619224000257,None,560.6078786000144,None,left,0.140381500008516,560.6078786000144,None,,,,,,,,,,,,,,,,,,,,,,,PPT27,001,2022-07-04_13h57.02.679,ABstudy,2022.1.4,59.91748162979152,
AB,Lag5_T1P_T2A,5,P,A,6,11,5,5,16,fish,Did you see the fish?,0.12,0.016,JPG\,cucumber,ring01,lipstick02a,microscope,violin,redlionfish,celery,lighter01,cherry01,sewingmachine01a,belt02a,key01,binoculars01b,medal02b,watermelon01,dice05a,blankImage,redlionfish,,,,,,,,,,,,0,83,83,221,,,,,,,,,,,,,,,,,,,,,,,,,,,,,,,,,,,560.7850560999941,561.7923063000198,561.775580400019,562.3506016000174,562.3506016000174,None,564.3158208000241,None,left,0.9437589999870397,564.3158208000241,None,565.2794949000236,None,right,0.1721116999979131,565.2794949000236,None,,,,,,,,,,,,,,,,,,,,,,,PPT27,001,2022-07-04_13h57.02.679,ABstudy,2022.1.4,59.91748162979152,
AB,Lag1_T1P_T2P,1,P,P,8,9,7,3,12,apron,Did you see the apron?,0.12,0.016,JPG\,avocado01,tambourine02,match,cauliflower01,paintbrush01,clock01a,pig,apron,stapler03a,cellphone,watch02a,pear01,blankImage,blankImage,blankImage,blankImage,blankImage,apron,,,,,,,,,,,,0,84,84,32,,,,,,,,,,,,,,,,,,,,,,,,,,,,,,,,,,,565.4840158000006,566.4973046000232,566.4806420000386,567.0597754000337,567.0597754000337,None,568.5757698999951,None,left,0.803753099986352,568.5757698999951,None,569.4002385000349,None,right,0.25133329996606335,569.4002385000349,None,,,,,,,,,,,,,,,,,,,,,,,PPT27,001,2022-07-04_13h57.02.679,ABstudy,2022.1.4,59.91748162979152,
AB,Lag1_T1P_T2P,1,P,P,8,9,7,3,12,bridge,Did you see the bridge?,0.12,0.016,JPG\,speaker04,sewingmachine01a,eraser,violin,globe,belt02a,sunglasses04,bridge,stapler01,greenolive,alligator,pear01,blankImage,blankImage,blankImage,blankImage,blankImage,bridge,,,,,,,,,,,,0,85,85,78,,,,,,,,,,,,,,,,,,,,,,,,,,,,,,,,,,,569.686990200018,570.701508600032,570.6846672000247,571.2637700000196,571.2637700000196,None,572.7520602000295,None,left,1.0198616000125185,572.7520602000295,None,573.8042137000011,None,right,0.26458780001848936,573.8042137000011,None,,,,,,,,,,,,,,,,,,,,,,,PPT27,001,2022-07-04_13h57.02.679,ABstudy,2022.1.4,59.91748162979152,
AB,Lag1_T1P_T2P,1,P,P,7,8,6,3,11,Moose,Did you see the Moose?,0.12,0.016,JPG\,sock01a,spoon01,alligator,comb02a,printer02,medal02b,moose,stapler03a,greenolive,computerkeyboard02,cauliflower01,blankImage,blankImage,blankImage,blankImage,blankImage,blankImage,moose,,,,,,,,,,,,0,86,86,67,,,,,,,,,,,,,,,,,,,,,,,,,,,,,,,,,,,574.0900360000087,575.1055793000269,575.0721596000367,575.6517137000337,575.6517137000337,None,576.9875988000422,None,left,0.775951299990993,576.9875988000422,None,577.7918686000048,None,right,0.2035096999607049,577.7918686000048,None,,,,,,,,,,,,,,,,,,,,,,,PPT27,001,2022-07-04_13h57.02.679,ABstudy,2022.1.4,59.91748162979152,
AB,Lag1_T1P_T2P,1,P,P,6,7,5,3,10,elephant,Did you see the elephant?,0.12,0.016,JPG\,clock01a,grape01,plate01b,key01,screwdriver04b,africanelephant,stapler03b,iron01b,toothbrush03b,comb02a,blankImage,blankImage,blankImage,blankImage,blankImage,blankImage,blankImage,africanelephant,,,,,,,,,,,,0,87,87,31,,,,,,,,,,,,,,,,,,,,,,,,,,,,,,,,,,,578.0305549000041,579.0433691000217,579.0277542000404,579.6325519999955,579.6325519999955,None,580.8134099000017,None,left,0.6066106000216678,580.8134099000017,None,581.4449687000015,None,left,0.17471649998333305,581.4449687000015,None,,,,,,,,,,,,,,,,,,,,,,,PPT27,001,2022-07-04_13h57.02.679,ABstudy,2022.1.4,59.91748162979152,
AB,Lag5_T1P_T2A,5,P,A,7,12,6,5,17,corn,Did you see the corn?,0.12,0.016,JPG\,avocado01,pingpongpaddle01c,match,cauliflower01,paintbrush01,clock01a,corn02,cd,balloon01b,cellphone,watch02a,pear01,toaster01,sponge01,orange,blueberry01,blankImage,corn02,,,,,,,,,,,,0,88,88,210,,,,,,,,,,,,,,,,,,,,,,,,,,,,,,,,,,,581.6458219999913,582.6464466000325,582.6297352000256,583.2171799000353,583.2171799000353,None,585.1986726000323,None,left,0.6625011999858543,585.1986726000323,None,585.8832759000361,None,right,0.20027849997859448,585.8832759000361,None,,,,,,,,,,,,,,,,,,,,,,,PPT27,001,2022-07-04_13h57.02.679,ABstudy,2022.1.4,59.91748162979152,
AB,Lag5_T1A_T2A,5,A,A,5,10,4,5,15,sword,Did you see the sword?,0.12,0.016,JPG\,pencil01,broccoli01a,button01,sponge01,watermelon01,lipstick02a,comb02a,fan,lighter01,sock01a,spoon01,blueberry01,belt02a,onion,grape01,blankImage,blankImage,parachute,,,,,,,,,,,,0,89,89,298,,,,,,,,,,,,,,,,,,,,,,,,,,,,,,,,,,,586.1052733000251,587.118069100019,587.1025371000287,587.6854574000463,587.6854574000463,None,589.5137639000313,None,right,0.8670233999728225,589.5137639000313,None,590.4040782999946,None,right,0.4077298999764025,590.4040782999946,None,,,,,,,,,,,,,,,,,,,,,,,PPT27,001,2022-07-04_13h57.02.679,ABstudy,2022.1.4,59.91748162979152,
AB,Lag5_T1A_T2P,5,A,P,5,10,4,4,14,mail box,Did you see the mail box?,0.12,0.016,JPG\,button01,celery,birthdaycandle,apple07,avocado01,tennisball01b,dice05a,teabag,clock01a,stapler05,tomato01,scarf,orange,battery02b,blankImage,blankImage,blankImage,jeep,,,,,,,,,,,,0,90,90,263,,,,,,,,,,,,,,,,,,,,,,,,,,,,,,,,,,,590.8416027000058,591.8558229000191,591.8225255000289,592.4283635000465,592.4283635000465,None,594.0921686000074,None,right,1.4555360000231303,594.0921686000074,None,595.5763589999988,None,left,0.1793644000426866,595.5763589999988,None,,,,,,,,,,,,,,,,,,,,,,,PPT27,001,2022-07-04_13h57.02.679,ABstudy,2022.1.4,59.91748162979152,
AB,Lag1_T1P_T2P,1,P,P,5,6,4,5,11,squirrel,Did you see the squirrel?,0.12,0.016,JPG\,pencil01,orange,clock01a,sponge01,squirrel,stapler05,lipstick02a,strawberry,book01b,mushroom01,envelope03a,blankImage,blankImage,blankImage,blankImage,blankImage,blankImage,squirrel,,,,,,,,,,,,0,91,91,5,,,,,,,,,,,,,,,,,,,,,,,,,,,,,,,,,,,595.786677600001,596.7939649000182,596.7772712000296,597.358123700018,597.358123700018,None,598.6953223000164,None,left,0.40409820002969354,598.6953223000164,None,599.1299007000052,None,left,0.14538890001131222,599.1299007000052,None,,,,,,,,,,,,,,,,,,,,,,,PPT27,001,2022-07-04_13h57.02.679,ABstudy,2022.1.4,59.91748162979152,
AB,Lag1_T1P_T2A,1,P,A,7,8,6,3,11,Seagull,Did you see the Seagull?,0.12,0.016,JPG\,toiletpaper01a,mushroom01,medal02b,sandal,rice,cd,seagull,pizza,candle08b,garlic01a,toaster01,blankImage,blankImage,blankImage,blankImage,blankImage,blankImage,seagull,,,,,,,,,,,,0,92,92,176,,,,,,,,,,,,,,,,,,,,,,,,,,,,,,,,,,,599.3023505000165,600.3140567000373,600.2973967000144,600.8883138000383,600.8883138000383,None,602.2341362000443,None,left,0.6176489999634214,602.2341362000443,None,602.8858128000284,None,right,0.18296790000749752,602.8858128000284,None,,,,,,,,,,,,,,,,,,,,,,,PPT27,001,2022-07-04_13h57.02.679,ABstudy,2022.1.4,59.91748162979152,
AB,Lag1_T1A_T2P,1,A,P,8,9,7,4,13,Toolbox,Did you see the Toolbox?,0.12,0.016,JPG\,pizza,printer02,medal02b,spoon01,grape01,lighter01,belt02a,watermelon01,stapler03b,battery02b,screw02,comb02a,cauliflower01,blankImage,blankImage,blankImage,blankImage,ladybug03,,,,,,,,,,,,0,93,93,237,,,,,,,,,,,,,,,,,,,,,,,,,,,,,,,,,,,603.1116868000245,604.1182889000047,604.1025720000034,604.7072625000146,604.7072625000146,None,606.298830600048,None,right,0.8087251999531873,606.298830600048,None,607.1376486000372,None,right,0.3062666999758221,607.1376486000372,None,,,,,,,,,,,,,,,,,,,,,,,PPT27,001,2022-07-04_13h57.02.679,ABstudy,2022.1.4,59.91748162979152,
AB,Lag1_T1P_T2P,1,P,P,7,8,6,5,13,disco ball,Did you see the disco ball?,0.12,0.016,JPG\,candle01,paintbrush01,scissors01,fan,microscope,toothbrush03b,discoball,stapler03b,teabag,pencil01,lemon02,ashtray01,shirt02,blankImage,blankImage,blankImage,blankImage,discoball,,,,,,,,,,,,0,94,94,60,,,,,,,,,,,,,,,,,,,,,,,,,,,,,,,,,,,607.4757532000076,608.4888940000092,608.4722074000165,609.0466872000252,609.0466872000252,None,610.6125461000483,None,left,0.48736049997387454,610.6125461000483,None,611.1256927000359,None,left,0.15004630002658814,611.1256927000359,None,,,,,,,,,,,,,,,,,,,,,,,PPT27,001,2022-07-04_13h57.02.679,ABstudy,2022.1.4,59.91748162979152,
AB,Lag5_T1P_T2P,5,P,P,5,10,4,5,15,Eye,Did you see the Eye?,0.12,0.016,JPG\,apple07,toiletpaper01a,pizza,dandelion,eye,eraser,microscope,violin,orange,stapler01,balloon01b,sandal,lighter01,fan,book01b,blankImage,blankImage,eye,,,,,,,,,,,,0,95,95,171,,,,,,,,,,,,,,,,,,,,,,,,,,,,,,,,,,,611.2985741000157,612.309234400047,612.2925032000057,612.8814829000039,612.8814829000039,None,614.6973107000231,None,left,0.37833790003787726,614.6973107000231,None,615.0957011000137,None,left,0.14810340001713485,615.0957011000137,None,,,,,,,,,,,,,,,,,,,,,,,PPT27,001,2022-07-04_13h57.02.679,ABstudy,2022.1.4,59.91748162979152,
AB,Lag1_T1P_T2P,1,P,P,5,6,4,3,9,Pumpkin,Did you see the Pumpkin?,0.12,0.016,JPG\,binoculars01b,speaker04,sandal,envelope03a,pumpkin,stapler03b,battery02b,chain01,measuringcup01,blankImage,blankImage,blankImage,blankImage,blankImage,blankImage,blankImage,blankImage,pumpkin,,,,,,,,,,,,0,96,96,23,,,,,,,,,,,,,,,,,,,,,,,,,,,,,,,,,,,615.3189777000225,616.3299000000115,616.3132368000224,616.9057122000377,616.9057122000377,None,617.9244097000337,None,left,0.695560599968303,617.9244097000337,None,618.6510644000373,None,right,0.17657589999726042,618.6510644000373,None,,,,,,,,,,,,,,,,,,,,,,,PPT27,001,2022-07-04_13h57.02.679,ABstudy,2022.1.4,59.91748162979152,
AB,Lag1_T1A_T2P,1,A,P,8,9,7,4,13,Rabbit,Did you see the Rabbit?,0.12,0.016,JPG\,lamp04a,broccoli01a,alligator,garlic01a,dandelion,brownsugar,avocado01,ring01,stapler06,cellphone,medal02b,cd,calculator01,blankImage,blankImage,blankImage,blankImage,escalator,,,,,,,,,,,,0,97,97,254,,,,,,,,,,,,,,,,,,,,,,,,,,,,,,,,,,,618.8545235000202,619.8670181999914,619.8501800000085,620.4326564000221,620.4326564000221,None,622.0809702000115,None,right,0.7545392999891192,622.0809702000115,None,622.8527467999957,None,right,0.16836620005778968,622.8527467999957,None,,,,,,,,,,,,,,,,,,,,,,,PPT27,001,2022-07-04_13h57.02.679,ABstudy,2022.1.4,59.91748162979152,
AB,Lag5_T1P_T2P,5,P,P,6,11,5,5,16,table,Did you see the table?,0.12,0.016,JPG\,birthdaycandle,mushroom01,strawberry,match,cherry01,table01,hammer01,thermometer02b,sock01a,ring01,stapler06,banana01,toiletpaper01a,key01,sponge01,teabag,blankImage,table01,,,,,,,,,,,,0,98,98,144,,,,,,,,,,,,,,,,,,,,,,,,,,,,,,,,,,,623.055495800043,624.054329000006,624.0379275000305,624.5382840000093,624.5382840000093,None,626.5865855000447,None,right,0.7133334000245668,626.5865855000447,None,627.3270367000368,None,left,0.16499520000070333,627.3270367000368,None,,,,,,,,,,,,,,,,,,,,,,,PPT27,001,2022-07-04_13h57.02.679,ABstudy,2022.1.4,59.91748162979152,
AB,Lag5_T1P_T2A,5,P,A,5,10,4,3,13,cork,Did you see the cork?,0.12,0.016,JPG\,clock01a,grape01,plate01b,key01,cork02,feather03a,pineapple01a,iron01b,toothbrush03b,comb02a,broom01,toaster01,pizza,blankImage,blankImage,blankImage,blankImage,cork02,,,,,,,,,,,,0,99,99,209,,,,,,,,,,,,,,,,,,,,,,,,,,,,,,,,,,,627.5163308000192,628.5259397000191,628.5102908000117,629.1803787000244,629.1803787000244,None,630.7204189000186,None,left,0.6832595000159927,630.7204189000186,None,631.4285818000208,None,right,0.35102260002167895,631.4285818000208,None,,,,,,,,,,,,,,,,,,,,,,,PPT27,001,2022-07-04_13h57.02.679,ABstudy,2022.1.4,59.91748162979152,
AB,Lag5_T1P_T2A,5,P,A,8,13,7,4,17,fountain,Did you see the fountain?,0.12,0.016,JPG\,printer02,envelope03a,potato02b,calculator01,tableknife02,cigarette,ashtray01,parkfountain,broom01,greenolive,candle08b,battery02b,strawberry,candle01,foosballtable,tennisball01b,blankImage,parkfountain,,,,,,,,,,,,0,100,100,219,,,,,,,,,,,,,,,,,,,,,,,,,,,,,,,,,,,631.8170632999972,632.8299131999956,632.8130645999918,633.4086563000455,633.4086563000455,None,635.3260134000448,None,left,0.869586699991487,635.3260134000448,None,636.2166392999934,None,right,0.2748555999714881,636.2166392999934,None,,,,,,,,,,,,,,,,,,,,,,,PPT27,001,2022-07-04_13h57.02.679,ABstudy,2022.1.4,59.91748162979152,
AB,Lag1_T1P_T2A,1,P,A,6,7,5,4,11,Road,Did you see the Road?,0.12,0.016,JPG\,pizza,printer02,medal02b,spoon01,grape01,road02,belt02a,watermelon01,celery,battery02b,screw02,blankImage,blankImage,blankImage,blankImage,blankImage,blankImage,road02,,,,,,,,,,,,0,101,101,174,,,,,,,,,,,,,,,,,,,,,,,,,,,,,,,,,,,636.5193070000387,637.5345742999925,637.5013631000184,638.1150312999962,638.1150312999962,None,639.4482940000016,None,right,0.9789689000463113,639.4482940000016,None,640.4567210000241,None,right,0.1625925999833271,640.4567210000241,None,,,,,,,,,,,,,,,,,,,,,,,PPT27,001,2022-07-04_13h57.02.679,ABstudy,2022.1.4,59.91748162979152,
AB,Lag5_T1P_T2A,5,P,A,8,13,7,3,16,Shelves,Did you see the Shelves?,0.12,0.016,JPG\,pineapple01a,leaf02a,grape01,toiletpaper01a,match,tennisball01b,spoon01,shelves,pig,measuringcup01,ring01,lemon02,dice05a,pizza,potato02b,eraser,blankImage,shelves,,,,,,,,,,,,0,102,102,222,,,,,,,,,,,,,,,,,,,,,,,,,,,,,,,,,,,640.6485122000449,641.6557670000475,641.6404458000325,642.2944412000361,642.2180133000365,None,644.1552107000025,None,left,0.5606541000306606,644.1552107000025,None,644.7434633999947,None,right,0.1645354999927804,644.7434633999947,None,,,,,,,,,,,,,,,,,,,,,,,PPT27,001,2022-07-04_13h57.02.679,ABstudy,2022.1.4,59.91748162979152,
AB,Lag5_T1P_T2P,5,P,P,8,13,7,4,17,lamp,Did you see the lamp?,0.12,0.016,JPG\,globe,broccoli01a,binoculars01b,iron01b,avocado01,dandelion,pineapple01a,floorlamp,fan,pizza,celery,blueberry01,stapler01,dice05a,watermelon01,candy,blankImage,floorlamp,,,,,,,,,,,,0,103,103,99,,,,,,,,,,,,,,,,,,,,,,,,,,,,,,,,,,,644.9317568000406,645.9429742000066,645.9263722000178,646.5054538000259,646.5054538000259,None,648.4401676999987,None,left,0.4275950999581255,648.4401676999987,None,648.8958614000003,None,left,0.17186669999500737,648.8958614000003,None,,,,,,,,,,,,,,,,,,,,,,,PPT27,001,2022-07-04_13h57.02.679,ABstudy,2022.1.4,59.91748162979152,
AB,Lag5_T1P_T2A,5,P,A,5,10,4,3,13,fan,Did you see the fan?,0.12,0.016,JPG\,scissors01,grape01,mushroom01,toiletpaper01a,fanheater,pizza,cigarette,ashtray01,carrot01,pineapple01a,foosballtable,lipstick02a,teabag,blankImage,blankImage,blankImage,blankImage,fanheater,,,,,,,,,,,,0,104,104,220,,,,,,,,,,,,,,,,,,,,,,,,,,,,,,,,,,,649.1004611999961,650.1141522999969,650.0984272999922,650.7926090999972,650.7138182999915,None,652.2991889000405,None,left,0.7041632999898866,652.2991889000405,None,653.0330820000381,None,right,0.1781063000089489,653.0330820000381,None,,,,,,,,,,,,,,,,,,,,,,,PPT27,001,2022-07-04_13h57.02.679,ABstudy,2022.1.4,59.91748162979152,
AB,Lag5_T1P_T2A,5,P,A,7,12,6,5,17,flower,Did you see the flower?,0.12,0.016,JPG\,cellphone,tomato01,comb02a,candy,celery,cucumber,craneflower,fan,feather03a,pen04b,lemon02,blueberry01,plate01b,cherry01,baseball01a,candle08b,blankImage,craneflower,,,,,,,,,,,,0,105,105,211,,,,,,,,,,,,,,,,,,,,,,,,,,,,,,,,,,,653.2357512000017,654.2509737000219,654.2175444000168,654.792548700003,654.792548700003,None,656.7614100000355,None,right,0.8738841000013053,656.7614100000355,None,657.6547767000156,None,right,0.1565738000208512,657.6547767000156,None,,,,,,,,,,,,,,,,,,,,,,,PPT27,001,2022-07-04_13h57.02.679,ABstudy,2022.1.4,59.91748162979152,
AB,Lag5_T1P_T2A,5,P,A,8,13,7,3,16,leaf blower,Did you see the leaf blower?,0.12,0.016,JPG\,printer02,leaf02a,cauliflower01,sock01a,brownsugar,paintbrush01,pig,leafblower01,belt02a,shirt02,key01,match,cigarette,scissors01,envelope03a,blueberry01,blankImage,leafblower01,,,,,,,,,,,,0,106,106,216,,,,,,,,,,,,,,,,,,,,,,,,,,,,,,,,,,,657.8448291000095,658.8558167000301,658.8390363000217,659.4305419000448,659.4305419000448,None,661.400772700028,None,left,0.7073702000197954,661.400772700028,None,662.1265694000176,None,right,0.2448057999718003,662.1265694000176,None,,,,,,,,,,,,,,,,,,,,,,,PPT27,001,2022-07-04_13h57.02.679,ABstudy,2022.1.4,59.91748162979152,
AB,Lag1_T1P_T2P,1,P,P,8,9,7,3,12,snow globe,Did you see the Snow globe?,0.12,0.016,JPG\,eraser,measuringcup01,chain01,birthdaycandle,ring01,rice,8ball,stapler04b,stapler01,celery,microscope,sunglasses04,blankImage,blankImage,blankImage,blankImage,blankImage,snowglobe,,,,,,,,,,,,0,107,107,56,,,,,,,,,,,,,,,,,,,,,,,,,,,,,,,,,,,662.4012566000456,663.4102649000124,663.3935775000136,663.9811936999904,663.9811936999904,None,665.4356292000157,None,right,0.8244084999896586,665.4356292000157,None,666.2827110000071,None,left,0.46601620002184063,666.2827110000071,None,,,,,,,,,,,,,,,,,,,,,,,PPT27,001,2022-07-04_13h57.02.679,ABstudy,2022.1.4,59.91748162979152,
AB,Lag5_T1P_T2P,5,P,P,8,13,7,5,18,hand,Did you see the hand?,0.12,0.016,JPG\,foosballtable,candy,envelope03a,microscope,pencil01,leaf02a,scissors01,hand01b,grape01,dandelion,pineapple01a,hammer01,stapler03a,thermometer02b,ring01,sewingmachine01a,blankImage,hand01b,,,,,,,,,,,,0,108,108,131,,,,,,,,,,,,,,,,,,,,,,,,,,,,,,,,,,,666.7877242999966,667.7977809000295,667.7810757000116,668.2819346000324,668.2819346000324,None,670.306656300032,None,left,1.3216586000053212,670.306656300032,None,671.6520524999942,None,right,0.9034456000081263,671.6520524999942,None,,,,,,,,,,,,,,,,,,,,,,,PPT27,001,2022-07-04_13h57.02.679,ABstudy,2022.1.4,59.91748162979152,
AB,Lag1_T1A_T2P,1,A,P,5,6,4,5,11,rake,Did you see the rake?,0.12,0.016,JPG\,candy,brownsugar,dice05a,cd,sock01a,stapler01,button01,potato02b,feather03a,grape01,dandelion,blankImage,blankImage,blankImage,blankImage,blankImage,blankImage,greatwhiteshark,,,,,,,,,,,,0,109,109,256,,,,,,,,,,,,,,,,,,,,,,,,,,,,,,,,,,,672.5885126999929,673.6037507000146,673.5704002000275,674.1487219000119,674.1487219000119,None,675.42810010002,None,right,0.8071201000129804,675.42810010002,None,676.2565697000246,None,right,0.35489730001427233,676.2565697000246,None,,,,,,,,,,,,,,,,,,,,,,,PPT27,001,2022-07-04_13h57.02.679,ABstudy,2022.1.4,59.91748162979152,
AB,Lag1_T1P_T2A,1,P,A,5,6,4,4,10,bird,Did you see the bird?,0.12,0.016,JPG\,toaster01,scarf,toiletpaper01a,calculator01,swallow,sewingmachine01a,fan,teabag,strawberry,balloon01b,blankImage,blankImage,blankImage,blankImage,blankImage,blankImage,blankImage,swallow,,,,,,,,,,,,0,110,110,195,,,,,,,,,,,,,,,,,,,,,,,,,,,,,,,,,,,676.6437408000347,677.6576418000041,677.6243081000284,678.2139352000086,678.2139352000086,None,679.5221951000276,None,left,0.6088655000203289,679.5221951000276,None,680.1604234999977,None,right,0.1795624999795109,680.1604234999977,None,,,,,,,,,,,,,,,,,,,,,,,PPT27,001,2022-07-04_13h57.02.679,ABstudy,2022.1.4,59.91748162979152,
AB,Lag5_T1P_T2P,5,P,P,5,10,4,4,14,License Plate,Did you see the License Plate?,0.12,0.016,JPG\,toaster01,chain01,sponge01,baseball01a,licenseplate,belt02a,book01b,iron01b,grape01,stapler06,celery,onion,mushroom01,toothbrush03b,blankImage,blankImage,blankImage,licenseplate,,,,,,,,,,,,0,111,111,120,,,,,,,,,,,,,,,,,,,,,,,,,,,,,,,,,,,680.3669714000425,681.3783167999936,681.3615619000047,681.940548899991,681.940548899991,None,683.6478593000211,None,left,0.41188939998392016,683.6478593000211,None,684.080623899994,None,left,0.16411160002462566,684.080623899994,None,,,,,,,,,,,,,,,,,,,,,,,PPT27,001,2022-07-04_13h57.02.679,ABstudy,2022.1.4,59.91748162979152,
AB,Lag1_T1P_T2P,1,P,P,8,9,7,5,14,finger print,Did you see the finger print?,0.12,0.016,JPG\,chain01,pen04b,birthdaycandle,watermelon01,broom01,scissors01,measuringcup01,fingerprint,stapler01,calculator01,ashtray01,feather03a,sewingmachine01a,thermometer02b,blankImage,blankImage,blankImage,fingerprint,,,,,,,,,,,,0,112,112,62,,,,,,,,,,,,,,,,,,,,,,,,,,,,,,,,,,,684.268384199997,685.2820542000118,685.2655437000212,685.8413331999909,685.8413331999909,None,687.5686027000193,None,left,0.6913031000294723,687.5686027000193,None,688.2852263000095,None,right,0.15872320003109053,688.2852263000095,None,,,,,,,,,,,,,,,,,,,,,,,PPT27,001,2022-07-04_13h57.02.679,ABstudy,2022.1.4,59.91748162979152,
AB,Lag5_T1P_T2P,5,P,P,7,12,6,4,16,Bird feeder,Did you see the Bird feeder?,0.12,0.016,JPG\,watermelon01,banana01,ring01,pencil01,tomato01,speaker04,birdfeeder,thermometer02b,key01,foosballtable,violin,stapler06,clock04,dice05a,pen04b,mushroom01,blankImage,birdfeeder,,,,,,,,,,,,0,113,113,164,,,,,,,,,,,,,,,,,,,,,,,,,,,,,,,,,,,688.4754097000114,689.486380700022,689.4696773000178,690.0900824000128,690.0900824000128,None,692.0120063000359,None,left,0.5993068999960087,692.0120063000359,None,692.6395214000368,None,right,0.1794841000228189,692.6395214000368,None,,,,,,,,,,,,,,,,,,,,,,,PPT27,001,2022-07-04_13h57.02.679,ABstudy,2022.1.4,59.91748162979152,
AB,Lag5_T1P_T2A,5,P,A,6,11,5,4,15,Spear,Did you see the Spear?,0.12,0.016,JPG\,belt02a,measuringcup01,spoon01,chain01,greenolive,spear02,computerkeyboard02,onion,fan,strawberry,candle01,broom01,binoculars01b,ashtray01,pingpongpaddle01c,blankImage,blankImage,spear02,,,,,,,,,,,,0,114,114,227,,,,,,,,,,,,,,,,,,,,,,,,,,,,,,,,,,,692.906535600021,693.9067012000014,693.8907193000196,694.4509281000355,694.4509281000355,None,696.2171408000286,None,right,0.7306695000152104,696.2171408000286,None,696.9793130000471,None,right,0.27168299996992573,696.9793130000471,None,,,,,,,,,,,,,,,,,,,,,,,PPT27,001,2022-07-04_13h57.02.679,ABstudy,2022.1.4,59.91748162979152,
AB,Lag1_T1P_T2P,1,P,P,6,7,5,3,10,windmill,Did you see the windmill?,0.12,0.016,JPG\,pizza,printer02,medal02b,spoon01,grape01,windmill,stapler04b,watermelon01,celery,battery02b,blankImage,blankImage,blankImage,blankImage,blankImage,blankImage,blankImage,windmill,,,,,,,,,,,,0,115,115,75,,,,,,,,,,,,,,,,,,,,,,,,,,,,,,,,,,,697.2880995000014,698.2954669000464,698.2797749000019,698.9159271999961,698.9159271999961,None,700.1373651000322,None,left,0.48950550000881776,700.1373651000322,None,700.6499730999931,None,left,0.1536702000303194,700.6499730999931,None,,,,,,,,,,,,,,,,,,,,,,,PPT27,001,2022-07-04_13h57.02.679,ABstudy,2022.1.4,59.91748162979152,
AB,Lag1_T1P_T2P,1,P,P,6,7,5,3,10,cupcake,Did you see the cupcake?,0.12,0.016,JPG\,printer02,leaf02a,cauliflower01,sock01a,brownsugar,cupcake,stapler01,orange,belt02a,shirt02,blankImage,blankImage,blankImage,blankImage,blankImage,blankImage,blankImage,cupcake,,,,,,,,,,,,0,116,116,38,,,,,,,,,,,,,,,,,,,,,,,,,,,,,,,,,,,700.8337060000049,701.8485799999908,701.8151692000101,702.4074345999979,702.4074345999979,None,703.6694150000112,None,left,0.974143700033892,703.6694150000112,None,704.6680659000413,None,right,0.4634723999770358,704.6680659000413,None,,,,,,,,,,,,,,,,,,,,,,,PPT27,001,2022-07-04_13h57.02.679,ABstudy,2022.1.4,59.91748162979152,
AB,Lag5_T1P_T2A,5,P,A,6,11,5,3,14,toy truck,Did you see the toy truck?,0.12,0.016,JPG\,globe,belt02a,sponge01,violin,fork03c,bluecheese,clock01a,microscope,balloon01b,scarf,teabag,pen04b,brick,brownsugar,blankImage,blankImage,blankImage,bluecheese,,,,,,,,,,,,0,117,117,204,,,,,,,,,,,,,,,,,,,,,,,,,,,,,,,,,,,705.1539363000193,706.153000499995,706.1362479000236,706.7405879000435,706.7405879000435,None,708.394297300023,None,right,0.608752700034529,708.394297300023,None,709.0223746999982,None,right,0.20451369998045266,709.0223746999982,None,,,,,,,,,,,,,,,,,,,,,,,PPT27,001,2022-07-04_13h57.02.679,ABstudy,2022.1.4,59.91748162979152,
AB,Lag5_T1A_T2P,5,A,P,7,12,6,4,16,scooter,Did you see the scooter?,0.12,0.016,JPG\,cigarette,pig,banana01,strawberry,clock01a,plate01b,spoon01,blueberry01,battery02b,pineapple01a,chain01,stapler05,candy,pen04b,teabag,birthdaycandle,blankImage,1nose,,,,,,,,,,,,0,118,118,268,,,,,,,,,,,,,,,,,,,,,,,,,,,,,,,,,,,709.2596237999969,710.2736144000082,710.2568927000393,710.8395806000335,710.8395806000335,None,712.6958301000413,None,left,0.42740270000649616,712.6958301000413,None,713.1458036000258,None,right,0.2251902000280097,713.1458036000258,None,,,,,,,,,,,,,,,,,,,,,,,PPT27,001,2022-07-04_13h57.02.679,ABstudy,2022.1.4,59.91748162979152,
AB,Lag1_T1A_T2P,1,A,P,6,7,5,5,12,Treadmill,Did you see the Treadmill?,0.12,0.016,JPG\,pencil01,broccoli01a,button01,sponge01,watermelon01,lipstick02a,stapler04b,fan,lighter01,sock01a,spoon01,blueberry01,blankImage,blankImage,blankImage,blankImage,blankImage,magneticcompass,,,,,,,,,,,,0,119,119,238,,,,,,,,,,,,,,,,,,,,,,,,,,,,,,,,,,,713.4051993000321,714.4109270000481,714.3942788999993,715.0161310000112,715.0161310000112,None,716.4604244999937,None,right,0.7992841999512166,716.4604244999937,None,717.2807767000049,None,left,0.22680689999833703,717.2807767000049,None,,,,,,,,,,,,,,,,,,,,,,,PPT27,001,2022-07-04_13h57.02.679,ABstudy,2022.1.4,59.91748162979152,
AB,Lag1_T1P_T2P,1,P,P,8,9,7,5,14,lawn mower,Did you see the lawn mower?,0.12,0.016,JPG\,battery02b,sunglasses04,pear01,tennisball01b,clock01a,speaker04,binoculars01b,lawnmower,stapler05,pineapple01a,avocado01,grape01,blueberry01,violin,blankImage,blankImage,blankImage,lawnmower,,,,,,,,,,,,0,120,120,46,,,,,,,,,,,,,,,,,,,,,,,,,,,,,,,,,,,717.5378172000055,718.5486444000271,718.5318327000132,719.1121596000157,719.1121596000157,None,720.8541007000022,None,left,0.52471389999846,720.8541007000022,None,721.4033974999911,None,left,0.14346049999585375,721.4033974999911,None,,,,,,,,,,,,,,,,,,,,,,,PPT27,001,2022-07-04_13h57.02.679,ABstudy,2022.1.4,59.91748162979152,
AB,Lag5_T1P_T2P,5,P,P,5,10,4,4,14,bell,Did you see the bell?,0.12,0.016,JPG\,teabag,envelope03a,cellphone,apple07,callbell,orange,brownsugar,book01b,hammer01,stapler03b,toaster01,calculator01,globe,battery02b,blankImage,blankImage,blankImage,callbell,,,,,,,,,,,,0,121,121,147,,,,,,,,,,,,,,,,,,,,,,,,,,,,,,,,,,,721.5763787000324,722.5857167000067,722.5690059000044,723.1473460000125,723.1473460000125,None,724.8551454000408,None,left,0.7718900000327267,724.8551454000408,None,725.6576531000319,None,right,0.20930220000445843,725.6576531000319,None,,,,,,,,,,,,,,,,,,,,,,,PPT27,001,2022-07-04_13h57.02.679,ABstudy,2022.1.4,59.91748162979152,
AB,Lag5_T1A_T2A,5,A,A,5,10,4,5,15,truck,Did you see the truck?,0.12,0.016,JPG\,pizza,printer02,medal02b,spoon01,grape01,lighter01,belt02a,watermelon01,celery,battery02b,screw02,comb02a,cauliflower01,lipstick02a,potato02b,blankImage,blankImage,postalmailbox01,,,,,,,,,,,,0,122,122,297,,,,,,,,,,,,,,,,,,,,,,,,,,,,,,,,,,,725.8982989999931,726.9066839000443,726.8900017000269,727.4792729000328,727.4792729000328,None,729.3177275999915,None,right,0.5657253000536002,729.3177275999915,None,729.9100158000365,None,right,0.22955479996744543,729.9100158000365,None,,,,,,,,,,,,,,,,,,,,,,,PPT27,001,2022-07-04_13h57.02.679,ABstudy,2022.1.4,59.91748162979152,
AB,Lag5_T1P_T2P,5,P,P,6,11,5,4,15,sword,Did you see the sword?,0.12,0.016,JPG\,8ball,banana01,scissors01,pig,shirt02,broadsword,pear01,sponge01,fork03c,tableknife02,stapler06,match,toothbrush03b,birthdaycandle,candle01,blankImage,blankImage,broadsword,,,,,,,,,,,,0,123,123,167,,,,,,,,,,,,,,,,,,,,,,,,,,,,,,,,,,,730.1648860000423,731.1777899000444,731.161240699992,731.7363197000232,731.7363197000232,None,733.5836558000301,None,right,0.8433046999853104,733.5836558000301,None,734.4478190999944,None,right,0.48410810000495985,734.4478190999944,None,,,,,,,,,,,,,,,,,,,,,,,PPT27,001,2022-07-04_13h57.02.679,ABstudy,2022.1.4,59.91748162979152,
AB,Lag5_T1P_T2P,5,P,P,5,10,4,4,14,duck,Did you see the duck?,0.12,0.016,JPG\,celery,pencil01,fan,foosballtable,duck01,shirt02,potato02b,fork03c,button01,stapler03a,baseball01a,printer02,cauliflower01,dandelion,blankImage,blankImage,blankImage,duck01,,,,,,,,,,,,0,124,124,130,,,,,,,,,,,,,,,,,,,,,,,,,,,,,,,,,,,734.9517954000039,735.9658494000323,735.9324804000207,736.512531800021,736.512531800021,None,738.1359503000276,None,left,0.4838554000016302,738.1359503000276,None,738.6518857000046,None,left,0.1346932000014931,738.6518857000046,None,,,,,,,,,,,,,,,,,,,,,,,PPT27,001,2022-07-04_13h57.02.679,ABstudy,2022.1.4,59.91748162979152,
AB,Lag5_T1A_T2P,5,A,P,6,11,5,4,15,fish,Did you see the fish?,0.12,0.016,JPG\,pingpongpaddle01c,banana01,scissors01,pig,shirt02,leaf02a,pear01,sponge01,fork03c,tableknife02,stapler03a,match,toothbrush03b,birthdaycandle,candle01,blankImage,blankImage,lighthouse,,,,,,,,,,,,0,125,125,265,,,,,,,,,,,,,,,,,,,,,,,,,,,,,,,,,,,738.8182192000095,739.8198060000432,739.8029926000163,740.3873137000483,740.3873137000483,None,742.2012461000122,None,right,0.4668846999993548,742.2012461000122,None,742.6894047000096,None,right,0.20235179999144748,742.6894047000096,None,,,,,,,,,,,,,,,,,,,,,,,PPT27,001,2022-07-04_13h57.02.679,ABstudy,2022.1.4,59.91748162979152,
AB,Lag5_T1A_T2A,5,A,A,5,10,4,4,14,music sheet,Did you see the music sheet?,0.12,0.016,JPG\,celery,pencil01,fan,foosballtable,iron01b,shirt02,potato02b,fork03c,button01,pineapple01a,baseball01a,printer02,cauliflower01,dandelion,blankImage,blankImage,blankImage,licenseplate,,,,,,,,,,,,0,126,126,304,,,,,,,,,,,,,,,,,,,,,,,,,,,,,,,,,,,742.9283434000099,743.9404668000061,743.9237315999926,744.5157964000246,744.5157964000246,None,746.1512542000273,None,right,0.6281612999737263,746.1512542000273,None,746.8117305000196,None,right,0.24750480003422126,746.8117305000196,None,,,,,,,,,,,,,,,,,,,,,,,PPT27,001,2022-07-04_13h57.02.679,ABstudy,2022.1.4,59.91748162979152,
AB,Lag1_T1A_T2A,1,A,A,7,8,6,5,13,Poker chips,Did you see the Poker chips?,0.12,0.016,JPG\,violin,pizza,toothbrush03b,pineapple01a,banana01,ashtray01,candy,dandelion,clock04,sock01a,microscope,speaker04,calculator01,blankImage,blankImage,blankImage,blankImage,cigar,,,,,,,,,,,,0,127,127,289,,,,,,,,,,,,,,,,,,,,,,,,,,,,,,,,,,,747.0825408000383,748.094632900029,748.0781309000449,748.6673341999995,748.6673341999995,None,750.2274095000466,None,right,0.5838100000401028,750.2274095000466,None,750.8302044000011,None,right,0.21265410003252327,750.8302044000011,None,,,,,,,,,,,,,,,,,,,,,,,PPT27,001,2022-07-04_13h57.02.679,ABstudy,2022.1.4,59.91748162979152,
AB,Lag1_T1P_T2A,1,P,A,6,7,5,5,12,Barn,Did you see the Barn?,0.12,0.016,JPG\,celery,pencil01,fan,foosballtable,iron01b,barn,potato02b,fork03c,button01,pineapple01a,baseball01a,printer02,blankImage,blankImage,blankImage,blankImage,blankImage,barn,,,,,,,,,,,,0,128,128,181,,,,,,,,,,,,,,,,,,,,,,,,,,,,,,,,,,,751.0666779000312,752.0817482999992,752.0483257000451,752.6275293999934,752.6275293999934,None,754.1900884000352,None,left,0.6770084999734536,754.1900884000352,None,754.8869694000459,None,right,0.21179660002235323,754.8869694000459,None,,,,,,,,,,,,,,,,,,,,,,,PPT27,001,2022-07-04_13h57.02.679,ABstudy,2022.1.4,59.91748162979152,
AB,Lag5_T1A_T2P,5,A,P,7,12,6,5,17,Rollerblade,Did you see the Rollerblade?,0.12,0.016,JPG\,binoculars01b,cymbal,pizza,candy,paintbrush01,sponge01,grape01,thermometer02b,speaker04,lemon02,lipstick02a,stapler03b,candle01,8ball,plate01b,pen04b,blankImage,lion,,,,,,,,,,,,0,129,129,266,,,,,,,,,,,,,,,,,,,,,,,,,,,,,,,,,,,755.1237948000198,756.136128400045,756.1194992000237,756.6983601000393,756.6983601000393,None,758.6439114999957,None,right,0.4953203999903053,758.6439114999957,None,759.15597110003,None,left,0.23103389999596402,759.15597110003,None,,,,,,,,,,,,,,,,,,,,,,,PPT27,001,2022-07-04_13h57.02.679,ABstudy,2022.1.4,59.91748162979152,
AB,Lag5_T1P_T2P,5,P,P,7,12,6,4,16,Wolf,Did you see the Wolf?,0.12,0.016,JPG\,brick,eraser,cucumber,ashtray01,thermometer02b,binoculars01b,greywolf,screwdriver04b,grape01,brownsugar,battery02b,stapler03b,dice05a,avocado01,birthdaycandle,watch02a,blankImage,greywolf,,,,,,,,,,,,0,130,130,89,,,,,,,,,,,,,,,,,,,,,,,,,,,,,,,,,,,759.4114467000472,760.4236982000293,760.407020600047,760.9802722000168,760.9802722000168,None,762.9033401000197,None,left,0.3635031000012532,762.9033401000197,None,763.2939664000296,None,left,0.15672669996274635,763.2939664000296,None,,,,,,,,,,,,,,,,,,,,,,,PPT27,001,2022-07-04_13h57.02.679,ABstudy,2022.1.4,59.91748162979152,
AB,Lag5_T1P_T2A,5,P,A,5,10,4,3,13,Totem Pole,Did you see the Totem Pole?,0.12,0.016,JPG\,canoftennisballs,banana01,scissors01,pig,totempole,leaf02a,pear01,sponge01,fork03c,tableknife02,balloon01b,match,toothbrush03b,blankImage,blankImage,blankImage,blankImage,totempole,,,,,,,,,,,,0,131,131,202,,,,,,,,,,,,,,,,,,,,,,,,,,,,,,,,,,,763.4839114000206,764.4941811000463,764.4776536000427,765.0564280000399,765.0564280000399,None,766.6705486000283,None,left,0.6129107999731787,766.6705486000283,None,767.3137528999941,None,right,0.1776885999715887,767.3137528999941,None,,,,,,,,,,,,,,,,,,,,,,,PPT27,001,2022-07-04_13h57.02.679,ABstudy,2022.1.4,59.91748162979152,
AB,Lag5_T1P_T2P,5,P,P,7,12,6,3,15,Eye patch,Did you see the Eye patch?,0.12,0.016,JPG\,candle01,paintbrush01,scissors01,fan,microscope,toothbrush03b,eyepatch,watermelon01,teabag,pencil01,lemon02,stapler05,shirt02,cauliflower01,cd,blankImage,blankImage,eyepatch,,,,,,,,,,,,0,132,132,108,,,,,,,,,,,,,,,,,,,,,,,,,,,,,,,,,,,767.5644712999929,768.5647841000464,768.5496849000338,769.1912359000416,769.1208175999927,None,770.9117689999985,None,left,1.188223300036043,770.9117689999985,None,772.1182188999956,None,right,0.8289959999965504,772.1182188999956,None,,,,,,,,,,,,,,,,,,,,,,,PPT27,001,2022-07-04_13h57.02.679,ABstudy,2022.1.4,59.91748162979152,
AB,Lag5_T1P_T2P,5,P,P,7,12,6,4,16,window,Did you see the window?,0.12,0.016,JPG\,cigarette,pig,banana01,strawberry,clock01a,plate01b,dormer,blueberry01,battery02b,pineapple01a,chain01,stapler01,candy,pen04b,teabag,birthdaycandle,blankImage,dormer,,,,,,,,,,,,0,133,133,170,,,,,,,,,,,,,,,,,,,,,,,,,,,,,,,,,,,772.9762363000191,773.9872156000347,773.9705233999994,774.5348840000224,774.5348840000224,None,776.4111996000283,None,left,0.49631670000962913,776.4111996000283,None,776.9252274000319,None,left,0.18219580000732094,776.9252274000319,None,,,,,,,,,,,,,,,,,,,,,,,PPT27,001,2022-07-04_13h57.02.679,ABstudy,2022.1.4,59.91748162979152,
AB,Lag1_T1P_T2P,1,P,P,7,8,6,5,13,school bus,Did you see the school bus?,0.12,0.016,JPG\,aceofdiamond,banana01,scissors01,pig,shirt02,leaf02a,schoolbus,stapler05,fork03c,tableknife02,balloon01b,match,toothbrush03b,blankImage,blankImage,blankImage,blankImage,schoolbus,,,,,,,,,,,,0,134,134,24,,,,,,,,,,,,,,,,,,,,,,,,,,,,,,,,,,,777.1422740000417,778.1577588000218,778.1243365000119,778.7231583000394,778.7231583000394,None,780.3062210000353,None,left,0.48078320000786334,780.3062210000353,None,780.812304000021,None,left,0.15097269997932017,780.812304000021,None,,,,,,,,,,,,,,,,,,,,,,,PPT27,001,2022-07-04_13h57.02.679,ABstudy,2022.1.4,59.91748162979152,
AB,Lag1_T1P_T2P,1,P,P,7,8,6,3,11,swing,Did you see the swing?,0.12,0.016,JPG\,sewingmachine01a,thermometer02b,sponge01,eraser,broccoli01a,fork03c,swing,stapler03b,belt02a,medal02b,pineapple01a,blankImage,blankImage,blankImage,blankImage,blankImage,blankImage,swing,,,,,,,,,,,,0,135,135,30,,,,,,,,,,,,,,,,,,,,,,,,,,,,,,,,,,,780.9961605000426,782.0114787000348,781.9781229000073,782.5586955000181,782.5586955000181,None,783.9760448000161,None,left,0.7871225000126287,783.9760448000161,None,784.7824418999953,None,left,0.1728999000042677,784.7824418999953,None,,,,,,,,,,,,,,,,,,,,,,,PPT27,001,2022-07-04_13h57.02.679,ABstudy,2022.1.4,59.91748162979152,
AB,Lag5_T1P_T2P,5,P,P,7,12,6,5,17,Pigeon,Did you see the Pigeon?,0.12,0.016,JPG\,strawberry,leaf02a,clock04,candle01,avocado01,paintbrush01,pigeon,brownsugar,ring01,lemon02,fork03c,stapler01,cauliflower01,tableknife02,tennisball01b,thermometer02b,blankImage,pigeon,,,,,,,,,,,,0,136,136,151,,,,,,,,,,,,,,,,,,,,,,,,,,,,,,,,,,,784.9869039000478,785.9990267000394,785.9822465000325,786.5663786000223,786.5663786000223,None,788.516684900038,None,left,0.4223274000105448,788.516684900038,None,788.9683855000185,None,left,0.1474203999969177,788.9683855000185,None,,,,,,,,,,,,,,,,,,,,,,,PPT27,001,2022-07-04_13h57.02.679,ABstudy,2022.1.4,59.91748162979152,
AB,Lag1_T1P_T2P,1,P,P,5,6,4,5,11,candy cane,Did you see the candy cane?,0.12,0.016,JPG\,shirt02,match,screw02,foosballtable,candycane01a,stapler04b,sewingmachine01a,watch02a,button01,comb02a,dice05a,blankImage,blankImage,blankImage,blankImage,blankImage,blankImage,candycane01a,,,,,,,,,,,,0,137,137,9,,,,,,,,,,,,,,,,,,,,,,,,,,,,,,,,,,,789.1376616000198,790.1531519000418,790.1197455000365,790.7103542000405,790.7103542000405,None,792.0602470000158,None,left,0.6870593000203371,792.0602470000158,None,792.7721744000446,None,right,0.1988250000285916,792.7721744000446,None,,,,,,,,,,,,,,,,,,,,,,,PPT27,001,2022-07-04_13h57.02.679,ABstudy,2022.1.4,59.91748162979152,
