TrialType,CondType,Lag,T1_PA,T2_PA,T1Loc,T2Loc,PreDistractor,PostDistractor,TotalImg,cueWord,T1cue,StimLength,isi,PicFolder,Img1,Img2,Img3,Img4,Img5,Img6,Img7,Img8,Img9,Img10,Img11,Img12,Img13,Img14,Img15,Img16,Img17,T1_Identity,ImageType,T1PA,T2PA,Picture,Image,FullPathName,FilePath,Practice_Trials.thisRepN,Practice_Trials.thisTrialN,Practice_Trials.thisN,Practice_Trials.thisIndex,trials.thisRepN,trials.thisTrialN,trials.thisN,trials.thisIndex,trials_2.thisRepN,trials_2.thisTrialN,trials_2.thisN,trials_2.thisIndex,Practice_Ins.started,Practice_Ins.stopped,End_Prac_Ins.keys,End_Prac_Ins.rt,End_Prac_Ins.started,End_Prac_Ins.stopped,text_2.started,text_2.stopped,Fixation_Cross_2.started,Fixation_Cross_2.stopped,Rapid_Image_Present_2.started,Rapid_Image_Present_2.stopped,key_resp.keys,key_resp.rt,key_resp.started,key_resp.stopped,T1Response_2.started,T1Response_2.stopped,T2Response_2.started,T2Response_2.stopped,key_resp_4.keys,key_resp_4.rt,key_resp_4.started,key_resp_4.stopped,text.started,text.stopped,End_Instructions.keys,End_Instructions.rt,End_Instructions.started,End_Instructions.stopped,text_5.started,text_5.stopped,FC.started,FC.stopped,Rapid_Image_Present.started,Rapid_Image_Present.stopped,T1Response.started,T1Response.stopped,key_resp_2.keys,key_resp_2.rt,key_resp_2.started,key_resp_2.stopped,T2Response.started,T2Response.stopped,key_resp_3.keys,key_resp_3.rt,key_resp_3.started,key_resp_3.stopped,text_6.started,text_6.stopped,Fin_ins.keys,Fin_ins.rt,Fin_ins.started,Fin_ins.stopped,MemTest.started,MemTest.stopped,MemResponse.keys,MemResponse.rt,MemResponse.started,MemResponse.stopped,Display.started,Display.stopped,text_7.started,text_7.stopped,endOfExperiment.started,endOfExperiment.stopped,key_resp_5.keys,key_resp_5.rt,key_resp_5.started,key_resp_5.stopped,participant,session,date,expName,psychopyVersion,frameRate,
,,,,,,,,,,,,,,,,,,,,,,,,,,,,,,,,,,,,,,,,,,,,,,,,,,,,27.123715800000355,None,space,30.939827899972443,27.123715800000355,None,,,,,,,,,,,,,,,,,,,,,,,,,,,,,,,,,,,,,,,,,,,,,,,,,,,,,,,,,,,,,,,,,PPT24,001,2022-07-01_16h01.59.492,ABstudy,2022.1.4,59.995632312647594,
AB_Prac,Lag5_T1A_T2P,5,A,P,6,11,5,3,14,dog,Did you see the dog?,0.5,0.016,JPG\,bucket01a,doorlock,cookiecutter,fireextinguisher01,gluestick,highlighter02b,sportbag,spraybottle01,suitcase,thread02,stapler05,walnut01c,icecubetray01a,vikingmask01b,blankImage,blankImage,blankImage,None,,,,,,,,0,0,0,9,,,,,,,,,,,,,,,58.176407999999356,59.18600410001818,59.16924300001119,59.798297800007276,59.798297800007276,None,right,3.1387809999869205,66.8450800999999,None,66.8450800999999,None,70.01373840001179,None,left,1.986704299953999,70.01373840001179,None,,,,,,,,,,,,,,,,,,,,,,,,,,,,,,,,,,,,,,,,,,,,,,,PPT24,001,2022-07-01_16h01.59.492,ABstudy,2022.1.4,59.995632312647594,
AB_Prac,Lag1_T1P_T2P,1,P,P,8,9,7,5,14,Tennis racket,Did you see the Tennis racket?,0.5,0.016,JPG\,coconut,computermouse06,croissant01,deodorant02a,pillow01a,peanut01,boot02b,tennisracket,stapler03b,crayon,eggplant,marker01a,plant01,radish01,blankImage,blankImage,blankImage,tennisracket,,,,,,,,0,1,1,0,,,,,,,,,,,,,,,72.0401859000267,73.04972780001117,73.03303690001485,73.63385630000266,73.63385630000266,None,left,1.292619499959983,80.65829089999897,None,80.65829089999897,None,81.97552610002458,None,left,2.92896879996988,81.97552610002458,None,,,,,,,,,,,,,,,,,,,,,,,,,,,,,,,,,,,,,,,,,,,,,,,PPT24,001,2022-07-01_16h01.59.492,ABstudy,2022.1.4,59.995632312647594,
AB_Prac,Lag5_T1P_T2A,5,P,A,6,11,5,5,16,Wheat,Did you see the Wheat?,0.5,0.016,JPG\,bottleopener01,dentalfloss03b,cooler01,icecreamcone01a,paperclip01b,wheat,pencilsharpener02a,plasticbasket01a,toycar04,apricot,hairclip02,rock01a,honeydewmelon,antenna,blackberry,cardboardbox,blankImage,wheat,,,,,,,,0,2,2,7,,,,,,,,,,,,,,,84.93387230002554,85.9459112000186,85.92927930000587,86.51868820001255,86.51868820001255,None,left,1.5349611999699846,94.59213520001504,None,94.59213520001504,None,96.15705980002531,None,right,0.8185292999842204,96.15705980002531,None,,,,,,,,,,,,,,,,,,,,,,,,,,,,,,,,,,,,,,,,,,,,,,,PPT24,001,2022-07-01_16h01.59.492,ABstudy,2022.1.4,59.995632312647594,
AB_Prac,Lag1_T1P_T2A,1,P,A,5,6,4,5,11,Webcam,Did you see the Webcam?,0.5,0.016,JPG\,pictureframe04,binder03b,straw,adjustablewrench01b,webcam,cane,hairdryer02a,icepack,kitchenscale01a,lifejacket,piggybank,blankImage,blankImage,blankImage,blankImage,blankImage,blankImage,webcam,,,,,,,,0,3,3,6,,,,,,,,,,,,,,,97.01559220001218,98.02497480000602,98.0082694000157,98.58977690001484,98.58977690001484,None,left,1.0329497999628074,104.13443450001068,None,104.13443450001068,None,105.19857590002357,None,right,0.6100269999878947,105.19857590002357,None,,,,,,,,,,,,,,,,,,,,,,,,,,,,,,,,,,,,,,,,,,,,,,,PPT24,001,2022-07-01_16h01.59.492,ABstudy,2022.1.4,59.995632312647594,
AB_Prac,Lag1_T1P_T2A,1,P,A,8,9,7,5,14,flower,Did you see the flower?,0.5,0.016,JPG\,razor01,axe01,binder03b,bowl01,kettle01,lettuce,lime,plasticflower01b,mitten04,pencilcase01,plunger02,strawbasket01,toothpick02,wallet02a,blankImage,blankImage,blankImage,plasticflower01b,,,,,,,,0,4,4,5,,,,,,,,,,,,,,,105.84084460002487,106.8502588000265,106.8340832000249,107.41818900001817,107.41818900001817,None,left,0.7928330999566242,114.46207220002543,None,114.46207220002543,None,115.27540040001622,None,right,0.4281217999814544,115.27540040001622,None,,,,,,,,,,,,,,,,,,,,,,,,,,,,,,,,,,,,,,,,,,,,,,,PPT24,001,2022-07-01_16h01.59.492,ABstudy,2022.1.4,59.995632312647594,
AB_Prac,Lag5_T1P_T2A,5,P,A,6,11,5,5,16,bread,Did you see the bread?,0.5,0.016,JPG\,cleaver01,clipboard,dustpan,hikingshoe01,notebook03a,baguette01,playingcard,pliers02b,styrofoamcup,rollingpin01a,swimgoggles,wineglass01,fryingpan02a,safetypin,syringe01,thimble,blankImage,baguette01,,,,,,,,0,5,5,8,,,,,,,,,,,,,,,115.7299464000098,116.74373310001101,116.72698550001951,117.31292270001722,117.31292270001722,None,left,0.8863132999686059,125.4091855000006,None,125.4091855000006,None,126.32048780002515,None,right,0.5596137999673374,126.32048780002515,None,,,,,,,,,,,,,,,,,,,,,,,,,,,,,,,,,,,,,,,,,,,,,,,PPT24,001,2022-07-01_16h01.59.492,ABstudy,2022.1.4,59.995632312647594,
AB_Prac,Lag5_T1P_T2P,5,P,P,7,12,6,3,15,vacuum,Did you see the vacuum?,0.5,0.016,JPG\,fork07b,lightbulb01,manshoe,saw02b,shoelace,soap03a,vacuumcleaner01,floortile01,necklace,doll,cabbage,stapler03a,hanger02a,laptop01a,nailpolish03b,blankImage,blankImage,vacuumcleaner01,,,,,,,,0,6,6,2,,,,,,,,,,,,,,,126.91151450001053,127.92122880002717,127.90454899999895,128.4937577000237,128.4937577000237,None,left,0.9206102999742143,136.046187800006,None,136.046187800006,None,136.99673320000875,None,left,0.7707783999794628,136.99673320000875,None,,,,,,,,,,,,,,,,,,,,,,,,,,,,,,,,,,,,,,,,,,,,,,,PPT24,001,2022-07-01_16h01.59.492,ABstudy,2022.1.4,59.995632312647594,
AB_Prac,Lag5_T1P_T2P,5,P,P,5,10,4,5,15,Vulture,Did you see the Vulture?,0.5,0.016,JPG\,shorts01,toast,ramekin01,bib,vulture,cracker02,date,glasses01a,hat03b,stapler01,measuringtape01,nail,pill,drum01,starfish01,blankImage,blankImage,vulture,,,,,,,,0,7,7,3,,,,,,,,,,,,,,,137.80523560001166,138.81522430002224,138.7985375999997,139.3838094000239,139.3838094000239,None,left,0.6479659999604337,146.975281800027,None,146.975281800027,None,147.64094440001645,None,left,0.4621461999777239,147.64094440001645,None,,,,,,,,,,,,,,,,,,,,,,,,,,,,,,,,,,,,,,,,,,,,,,,PPT24,001,2022-07-01_16h01.59.492,ABstudy,2022.1.4,59.995632312647594,
AB_Prac,Lag5_T1P_T2P,5,P,P,5,10,4,5,15,washing machine,Did you see the washing machine?,0.5,0.016,JPG\,waterbottle03,wheel01,flashlight02b,zucchini01,washingmachine,headphones02b,nutcracker01,paintroller01,paperclip03,stapler06,ribbon04,electricrazor,bottleofredwine01,pitabread,pot02a,blankImage,blankImage,washingmachine,,,,,,,,0,8,8,4,,,,,,,,,,,,,,,148.127910900017,149.14239500000258,149.12568220001413,149.78849840001203,149.7135571000108,None,left,0.8546665999747347,157.23281260000658,None,157.23281260000658,None,158.1182796000212,None,left,0.5689901999721769,158.1182796000212,None,,,,,,,,,,,,,,,,,,,,,,,,,,,,,,,,,,,,,,,,,,,,,,,PPT24,001,2022-07-01_16h01.59.492,ABstudy,2022.1.4,59.995632312647594,
AB_Prac,Lag5_T1A_T2A,5,A,A,6,11,5,5,16,castle,Did you see the castle?,0.5,0.016,JPG\,tape02a,englishmuffin,flask,ladle02a,monitor,peach01,keychain,squeegee01b,telephone01b,whisk,walkman,syringe02,baguette01,coaster,box01a,coffeepot03a,blankImage,None,,,,,,,,0,9,9,11,,,,,,,,,,,,,,,158.72207020001952,159.73633030001656,159.71968990002642,160.32476680001128,160.32476680001128,None,right,0.7286236999789253,168.35985590002383,None,168.35985590002383,None,169.1127064000175,None,right,1.6864465999533422,169.1127064000175,None,,,,,,,,,,,,,,,,,,,,,,,,,,,,,,,,,,,,,,,,,,,,,,,PPT24,001,2022-07-01_16h01.59.492,ABstudy,2022.1.4,59.995632312647594,
AB_Prac,Lag1_T1P_T2P,1,P,P,6,7,5,5,12,triangle,Did you see the triangle?,0.5,0.016,JPG\,ginger,mousetrap,plum01,slipper01b,dropper01,triangle,stapler04b,pants,raspberry01,rope03,scale01a,vase01,blankImage,blankImage,blankImage,blankImage,blankImage,triangle,,,,,,,,0,10,10,1,,,,,,,,,,,,,,,170.84140580001986,171.84789150001598,171.83125960000325,172.41341110001667,172.41341110001667,None,left,0.8286851999582723,178.41129590000492,None,178.41129590000492,None,179.27213930001017,None,right,0.41483169997809455,179.27213930001017,None,,,,,,,,,,,,,,,,,,,,,,,,,,,,,,,,,,,,,,,,,,,,,,,PPT24,001,2022-07-01_16h01.59.492,ABstudy,2022.1.4,59.995632312647594,
AB_Prac,Lag1_T1A_T2A,1,A,A,8,9,7,3,12,Moose,Did you see the Moose?,0.5,0.016,JPG\,clothespin03b,corkscrew03a,drillbit03a,fusilli03a,needlenosepliers01,perfume01a,pistachio,scrubbingbrush05b,spatula03,toothpastetube,hinge,toydinosaur,blankImage,blankImage,blankImage,blankImage,blankImage,None,,,,,,,,0,11,11,10,,,,,,,,,,,,,,,179.7110746000253,180.72383600001922,180.70719050001935,181.2986589000211,181.2986589000211,None,right,1.1303977999777999,187.3482689000084,None,187.3482689000084,None,188.4993529000203,None,right,0.5476166999724228,188.4993529000203,None,,,,,,,,,,,,,,,,,,,,,,,,,,,,,,,,,,,,,,,,,,,,,,,PPT24,001,2022-07-01_16h01.59.492,ABstudy,2022.1.4,59.995632312647594,
,,,,,,,,,,,,,,,,,,,,,,,,,,,,,,,,,,,,,,,,,,,,,,,,,,,,,,,,,,,,,,,,,,,,,,,,,,,,189.0676916000084,None,space,17.371891399961896,189.0676916000084,None,,,,,,,,,,,,,,,,,,,,,,,,,,,,,,,,,,,,,,,,,PPT24,001,2022-07-01_16h01.59.492,ABstudy,2022.1.4,59.995632312647594,
AB,Lag5_T1P_T2P,5,P,P,6,11,5,4,15,fish,Did you see the fish?,0.12,0.016,JPG\,sock01a,spoon01,alligator,comb02a,printer02,rockbass,lamp04a,cymbal,greenolive,computerkeyboard02,stapler03a,scarf,teabag,watermelon01,battery02b,blankImage,blankImage,rockbass,,,,,,,,,,,,0,0,0,115,,,,,,,,,,,,,,,,,,,,,,,,,,,,,,,,,,,207.2142686000152,208.21800310001709,208.20203179999953,208.8402039000066,208.8402039000066,None,210.59710579999955,None,left,1.338138799968874,210.59710579999955,None,211.9571640000213,None,right,0.6582025999668986,211.9571640000213,None,,,,,,,,,,,,,,,,,,,,,,,PPT24,001,2022-07-01_16h01.59.492,ABstudy,2022.1.4,59.995632312647594,
AB,Lag5_T1P_T2P,5,P,P,8,13,7,5,18,pipe,Did you see the pipe?,0.12,0.016,JPG\,scissors01,ashtray01,garlic01a,medal02b,cigarette,candle08b,leaf02a,smokingpipe,cucumber,rice,toiletpaper01a,greenolive,stapler01,cellphone,tableknife02,spoon01,blankImage,smokingpipe,,,,,,,,,,,,0,1,1,138,,,,,,,,,,,,,,,,,,,,,,,,,,,,,,,,,,,212.6475708000071,213.65676370001165,213.64000910002505,214.23708140000235,214.23708140000235,None,216.19544180002413,None,left,1.4597733999835327,216.19544180002413,None,217.67729210000834,None,left,0.4658194999792613,217.67729210000834,None,,,,,,,,,,,,,,,,,,,,,,,PPT24,001,2022-07-01_16h01.59.492,ABstudy,2022.1.4,59.995632312647594,
AB,Lag1_T1A_T2P,1,A,P,8,9,7,5,14,calendar,Did you see the calendar?,0.12,0.016,JPG\,foosballtable,candy,envelope03a,microscope,pencil01,leaf02a,scissors01,watermelon01,stapler04b,dandelion,pineapple01a,hammer01,celery,thermometer02b,blankImage,blankImage,blankImage,trampoline,,,,,,,,,,,,0,2,2,245,,,,,,,,,,,,,,,,,,,,,,,,,,,,,,,,,,,218.16854430001695,219.17951510002604,219.16394490000675,219.6671804000216,219.6671804000216,None,221.43986570002744,None,right,1.0791152999736369,221.43986570002744,None,222.54862310001045,None,right,0.5461586999881547,222.54862310001045,None,,,,,,,,,,,,,,,,,,,,,,,PPT24,001,2022-07-01_16h01.59.492,ABstudy,2022.1.4,59.995632312647594,
AB,Lag1_T1P_T2A,1,P,A,6,7,5,5,12,Barn,Did you see the Barn?,0.12,0.016,JPG\,celery,pencil01,fan,foosballtable,iron01b,barn,potato02b,fork03c,button01,pineapple01a,baseball01a,printer02,blankImage,blankImage,blankImage,blankImage,blankImage,barn,,,,,,,,,,,,0,3,3,181,,,,,,,,,,,,,,,,,,,,,,,,,,,,,,,,,,,223.17329500001506,224.1836256000097,224.1669022999995,224.74374490001355,224.74374490001355,None,226.16914950002683,None,left,0.9013931999797933,226.16914950002683,None,227.1007936000242,None,right,0.41052369997487403,227.1007936000242,None,,,,,,,,,,,,,,,,,,,,,,,PPT24,001,2022-07-01_16h01.59.492,ABstudy,2022.1.4,59.995632312647594,
AB,Lag1_T1P_T2P,1,P,P,6,7,5,5,12,bat,Did you see the bat?,0.12,0.016,JPG\,comb02a,key01,medal02b,battery02b,lighter01,bat,stapler05,sandal,pig,cellphone,computerkeyboard02,calculator01,blankImage,blankImage,blankImage,blankImage,blankImage,bat,,,,,,,,,,,,0,4,4,35,,,,,,,,,,,,,,,,,,,,,,,,,,,,,,,,,,,227.5462136999995,228.55444000000716,228.53768180002226,229.1368362000212,229.1368362000212,None,230.66428080000333,None,left,0.9984165999630932,230.66428080000333,None,231.6921871000086,None,right,0.36268659998313524,231.6921871000086,None,,,,,,,,,,,,,,,,,,,,,,,PPT24,001,2022-07-01_16h01.59.492,ABstudy,2022.1.4,59.995632312647594,
AB,Lag1_T1P_T2A,1,P,A,5,6,4,4,10,paper airplane,Did you see the paper airplane?,0.12,0.016,JPG\,thermometer02b,avocado01,scissors01,tennisball01b,paperairplane,banana01,strawberry,cigarette,potato02b,pineapple01a,blankImage,blankImage,blankImage,blankImage,blankImage,blankImage,blankImage,paperairplane,,,,,,,,,,,,0,5,5,191,,,,,,,,,,,,,,,,,,,,,,,,,,,,,,,,,,,232.08523290001904,233.0927071000042,233.07592150001437,233.657512100006,233.657512100006,None,234.90384710000944,None,left,0.9844702999689616,234.90384710000944,None,235.91185100001167,None,right,0.8075070999911986,235.91185100001167,None,,,,,,,,,,,,,,,,,,,,,,,PPT24,001,2022-07-01_16h01.59.492,ABstudy,2022.1.4,59.995632312647594,
AB,Lag5_T1P_T2P,5,P,P,7,12,6,5,17,flower,Did you see the flower?,0.12,0.016,JPG\,leaf02a,pear01,measuringcup01,cigarette,fan,lemon02,lily,tableknife02,ring01,pencil01,cellphone,stapler01,carrot01,binoculars01b,sock01a,book01b,blankImage,lily,,,,,,,,,,,,0,6,6,134,,,,,,,,,,,,,,,,,,,,,,,,,,,,,,,,,,,236.74828010000056,237.76370999999926,237.73035380002693,238.31277230000705,238.31277230000705,None,240.24430940000457,None,right,2.5868185999570414,240.24430940000457,None,242.85222230001818,None,left,0.45909979997668415,242.85222230001818,None,,,,,,,,,,,,,,,,,,,,,,,PPT24,001,2022-07-01_16h01.59.492,ABstudy,2022.1.4,59.995632312647594,
AB,Lag1_T1P_T2P,1,P,P,7,8,6,5,13,horse,Did you see the horse?,0.12,0.016,JPG\,watermelon01,pencil01,microscope,blueberry01,computerkeyboard02,lamp04a,horse,stapler03b,sock01a,key01,binoculars01b,cauliflower01,ashtray01,blankImage,blankImage,blankImage,blankImage,horse,,,,,,,,,,,,0,7,7,3,,,,,,,,,,,,,,,,,,,,,,,,,,,,,,,,,,,243.3381835000182,244.3536235000065,244.3202855999989,244.97513190002064,244.97513190002064,None,246.4810488000221,None,left,0.8936489999759942,246.4810488000221,None,247.40671150002163,None,left,0.8318725999852177,247.40671150002163,None,,,,,,,,,,,,,,,,,,,,,,,PPT24,001,2022-07-01_16h01.59.492,ABstudy,2022.1.4,59.995632312647594,
AB,Lag1_T1A_T2P,1,A,P,6,7,5,5,12,Piano,Did you see the Piano?,0.12,0.016,JPG\,toiletpaper01a,mushroom01,medal02b,sandal,rice,cd,stapler01,pizza,candle08b,garlic01a,toaster01,belt02a,blankImage,blankImage,blankImage,blankImage,blankImage,moose,,,,,,,,,,,,0,8,8,239,,,,,,,,,,,,,,,,,,,,,,,,,,,,,,,,,,,248.26642360002734,249.2752509000129,249.25855670002056,249.864344600006,249.864344600006,None,251.38038510002661,None,right,0.9864439999801107,251.38038510002661,None,252.39554710002267,None,right,1.3630417999520432,252.39554710002267,None,,,,,,,,,,,,,,,,,,,,,,,PPT24,001,2022-07-01_16h01.59.492,ABstudy,2022.1.4,59.995632312647594,
AB,Lag1_T1A_T2A,1,A,A,5,6,4,4,10,rose,Did you see the rose?,0.12,0.016,JPG\,sock01a,spoon01,alligator,comb02a,printer02,medal02b,lamp04a,cymbal,greenolive,computerkeyboard02,blankImage,blankImage,blankImage,blankImage,blankImage,blankImage,blankImage,cruiseship,,,,,,,,,,,,0,9,9,293,,,,,,,,,,,,,,,,,,,,,,,,,,,,,,,,,,,253.78391380002722,254.7975681000098,254.78084270001273,255.37553630000912,255.37553630000912,None,256.5754952999996,None,right,0.7750843999674544,256.5754952999996,None,257.3832611000107,None,right,0.9360768999904394,257.3832611000107,None,,,,,,,,,,,,,,,,,,,,,,,PPT24,001,2022-07-01_16h01.59.492,ABstudy,2022.1.4,59.995632312647594,
AB,Lag1_T1P_T2P,1,P,P,7,8,6,3,11,swing,Did you see the swing?,0.12,0.016,JPG\,sewingmachine01a,thermometer02b,sponge01,eraser,broccoli01a,fork03c,swing,stapler03b,belt02a,medal02b,pineapple01a,blankImage,blankImage,blankImage,blankImage,blankImage,blankImage,swing,,,,,,,,,,,,0,10,10,30,,,,,,,,,,,,,,,,,,,,,,,,,,,,,,,,,,,258.35311110000475,259.36853840001277,259.33524660000694,259.9303004000103,259.9303004000103,None,261.3863257000048,None,left,0.9251092999766115,261.3863257000048,None,262.3388309000002,None,right,2.076030099968193,262.3388309000002,None,,,,,,,,,,,,,,,,,,,,,,,PPT24,001,2022-07-01_16h01.59.492,ABstudy,2022.1.4,59.995632312647594,
AB,Lag1_T1P_T2P,1,P,P,5,6,4,5,11,owl,Did you see the owl?,0.12,0.016,JPG\,cellphone,tomato01,comb02a,candy,barnowl,stapler03a,toaster01,fan,feather03a,pen04b,lemon02,blankImage,blankImage,blankImage,blankImage,blankImage,blankImage,barnowl,,,,,,,,,,,,0,11,11,33,,,,,,,,,,,,,,,,,,,,,,,,,,,,,,,,,,,264.4431500000064,265.4582723000203,265.4250178000075,266.00461140001426,266.00461140001426,None,267.35136630001944,None,left,0.7112506999692414,267.35136630001944,None,268.0945062000246,None,right,0.7690781999554019,268.0945062000246,None,,,,,,,,,,,,,,,,,,,,,,,PPT24,001,2022-07-01_16h01.59.492,ABstudy,2022.1.4,59.995632312647594,
AB,Lag5_T1P_T2P,5,P,P,8,13,7,5,18,Ping pong Table,Did you see the Ping pong Table?,0.12,0.016,JPG\,shirt02,match,screw02,foosballtable,blueberry01,pineapple01a,sewingmachine01a,pingpongtable,button01,comb02a,dice05a,measuringcup01,stapler04b,printer02,carrot01,watermelon01,blankImage,pingpongtable,,,,,,,,,,,,0,12,12,152,,,,,,,,,,,,,,,,,,,,,,,,,,,,,,,,,,,268.90153230002034,269.9126884000143,269.8961018000264,270.482754800003,270.482754800003,None,272.4774652000051,None,left,1.456856999953743,272.4774652000051,None,273.9672781000263,None,left,0.29498539995984174,273.9672781000263,None,,,,,,,,,,,,,,,,,,,,,,,PPT24,001,2022-07-01_16h01.59.492,ABstudy,2022.1.4,59.995632312647594,
AB,Lag1_T1P_T2P,1,P,P,7,8,6,3,11,locker,Did you see the locker?,0.12,0.016,JPG\,toiletpaper01a,lipstick02a,potato02b,speaker04,globe,strawberry,locker,stapler04b,sock01a,candle08b,pen04b,blankImage,blankImage,blankImage,blankImage,blankImage,blankImage,locker,,,,,,,,,,,,0,13,13,19,,,,,,,,,,,,,,,,,,,,,,,,,,,,,,,,,,,274.28894050000235,275.30150430000504,275.284761900024,275.8624062000017,275.8624062000017,None,277.21656160001294,None,left,4.52708179995534,277.21656160001294,None,281.77476150001166,None,left,0.2079457999789156,281.77476150001166,None,,,,,,,,,,,,,,,,,,,,,,,PPT24,001,2022-07-01_16h01.59.492,ABstudy,2022.1.4,59.995632312647594,
AB,Lag1_T1P_T2A,1,P,A,6,7,5,4,11,bird,Did you see the bird?,0.12,0.016,JPG\,foosballtable,candy,envelope03a,microscope,pencil01,cedarwaxwing,scissors01,watermelon01,grape01,dandelion,pineapple01a,blankImage,blankImage,blankImage,blankImage,blankImage,blankImage,cedarwaxwing,,,,,,,,,,,,0,14,14,182,,,,,,,,,,,,,,,,,,,,,,,,,,,,,,,,,,,282.0109322000062,283.0256652000244,282.9922498000087,283.4957447000197,283.4957447000197,None,284.99071910002385,None,left,1.607830799970543,284.99071910002385,None,286.62939680001,None,right,0.4490864999825135,286.62939680001,None,,,,,,,,,,,,,,,,,,,,,,,PPT24,001,2022-07-01_16h01.59.492,ABstudy,2022.1.4,59.995632312647594,
AB,Lag1_T1P_T2P,1,P,P,6,7,5,3,10,jelly beans,Did you see the jelly beans?,0.12,0.016,JPG\,lipstick02a,cucumber,candle08b,printer02,grape01,jellybean,stapler01,lighter01,belt02a,balloon01b,blankImage,blankImage,blankImage,blankImage,blankImage,blankImage,blankImage,jellybean,,,,,,,,,,,,0,15,15,15,,,,,,,,,,,,,,,,,,,,,,,,,,,,,,,,,,,287.10625200002687,288.1147878000047,288.0992919000273,288.81092970000464,288.72689790002187,None,289.87480740001774,None,left,0.8597737999807578,289.87480740001774,None,290.7665137000149,None,right,0.3520954999839887,290.7665137000149,None,,,,,,,,,,,,,,,,,,,,,,,PPT24,001,2022-07-01_16h01.59.492,ABstudy,2022.1.4,59.995632312647594,
AB,Lag1_T1P_T2A,1,P,A,8,9,7,5,14,Ceiling fan,Did you see the Ceiling fan?,0.12,0.016,JPG\,cucumber,sponge01,alligator,pear01,ashtray01,hammer01,clock04,ceilingfan01,fork03c,binoculars01b,mushroom01,broccoli01a,leaf02a,acorn,blankImage,blankImage,blankImage,ceilingfan01,,,,,,,,,,,,0,16,16,183,,,,,,,,,,,,,,,,,,,,,,,,,,,,,,,,,,,291.1555356000026,292.1681527000037,292.1518165000016,292.7314900000056,292.7314900000056,None,294.34302620001836,None,right,0.9124616999470163,294.34302620001836,None,295.28764819999924,None,right,0.7347888999793213,295.28764819999924,None,,,,,,,,,,,,,,,,,,,,,,,PPT24,001,2022-07-01_16h01.59.492,ABstudy,2022.1.4,59.995632312647594,
AB,Lag5_T1P_T2P,5,P,P,6,11,5,4,15,Bumper car,Did you see the Bumper car?,0.12,0.016,JPG\,eraser,measuringcup01,chain01,birthdaycandle,ring01,bumpercar,weight04a,pig,cauliflower01,celery,stapler01,sunglasses04,greenolive,candy,strawberry,blankImage,blankImage,bumpercar,,,,,,,,,,,,0,17,17,104,,,,,,,,,,,,,,,,,,,,,,,,,,,,,,,,,,,296.0581330000132,297.0727503000235,297.0560107000056,297.69408990000375,297.61744970001746,None,299.51545280002756,None,left,0.9793318999873009,299.51545280002756,None,300.5274242000014,None,right,0.32770159997744486,300.5274242000014,None,,,,,,,,,,,,,,,,,,,,,,,PPT24,001,2022-07-01_16h01.59.492,ABstudy,2022.1.4,59.995632312647594,
AB,Lag5_T1P_T2P,5,P,P,8,13,7,5,18,sock,Did you see the sock?,0.12,0.016,JPG\,thermometer02b,avocado01,scissors01,tennisball01b,medal02b,banana01,strawberry,athleticsock,potato02b,pineapple01a,microscope,cymbal,stapler03b,celery,garlic01a,sunglasses04,blankImage,athleticsock,,,,,,,,,,,,0,18,18,141,,,,,,,,,,,,,,,,,,,,,,,,,,,,,,,,,,,300.88627620000625,301.89461940000183,301.8775638000225,302.4609034000023,302.4609034000023,None,304.454263200023,None,right,1.4730277999769896,304.454263200023,None,305.94888850001735,None,left,0.3303248999873176,305.94888850001735,None,,,,,,,,,,,,,,,,,,,,,,,PPT24,001,2022-07-01_16h01.59.492,ABstudy,2022.1.4,59.995632312647594,
AB,Lag1_T1A_T2A,1,A,A,5,6,4,3,9,Pigeon,Did you see the Pigeon?,0.12,0.016,JPG\,candle01,paintbrush01,scissors01,fan,microscope,toothbrush03b,candle08b,watermelon01,teabag,blankImage,blankImage,blankImage,blankImage,blankImage,blankImage,blankImage,blankImage,floorlamp,,,,,,,,,,,,0,19,19,286,,,,,,,,,,,,,,,,,,,,,,,,,,,,,,,,,,,306.30557020002743,307.3165380000137,307.2999600000039,307.9298161000188,307.9298161000188,None,309.06524260001606,None,right,0.900924599962309,309.06524260001606,None,309.98624060000293,None,right,0.9721153999562375,309.98624060000293,None,,,,,,,,,,,,,,,,,,,,,,,PPT24,001,2022-07-01_16h01.59.492,ABstudy,2022.1.4,59.995632312647594,
AB,Lag1_T1P_T2P,1,P,P,6,7,5,5,12,exit sign,Did you see the exit sign?,0.12,0.016,JPG\,printer02,envelope03a,potato02b,calculator01,tableknife02,exitsign,stapler01,pig,broom01,greenolive,candle08b,battery02b,blankImage,blankImage,blankImage,blankImage,blankImage,exitsign,,,,,,,,,,,,0,20,20,41,,,,,,,,,,,,,,,,,,,,,,,,,,,,,,,,,,,310.99484890000895,312.0044796000002,311.98783019999973,312.588267300016,312.588267300016,None,314.05927620001603,None,left,0.9630931999708991,314.05927620001603,None,315.0407386000152,None,right,0.7822568999836221,315.0407386000152,None,,,,,,,,,,,,,,,,,,,,,,,PPT24,001,2022-07-01_16h01.59.492,ABstudy,2022.1.4,59.995632312647594,
AB,Lag1_T1A_T2P,1,A,P,6,7,5,3,10,Jellyfish,Did you see the Jellyfish?,0.12,0.016,JPG\,thermometer02b,avocado01,scissors01,tennisball01b,medal02b,banana01,stapler01,cigarette,potato02b,pineapple01a,blankImage,blankImage,blankImage,blankImage,blankImage,blankImage,blankImage,firehydrant,,,,,,,,,,,,0,21,21,255,,,,,,,,,,,,,,,,,,,,,,,,,,,,,,,,,,,315.8485069000162,316.8591703000129,316.8424541000277,317.42649990000064,317.42649990000064,None,318.6863898000156,None,right,2.064593699964462,318.6863898000156,None,320.7798211000045,None,left,0.6270867999992333,320.7798211000045,None,,,,,,,,,,,,,,,,,,,,,,,PPT24,001,2022-07-01_16h01.59.492,ABstudy,2022.1.4,59.995632312647594,
AB,Lag5_T1P_T2P,5,P,P,8,13,7,5,18,hand,Did you see the hand?,0.12,0.016,JPG\,foosballtable,candy,envelope03a,microscope,pencil01,leaf02a,scissors01,hand01b,grape01,dandelion,pineapple01a,hammer01,stapler03a,thermometer02b,ring01,sewingmachine01a,blankImage,hand01b,,,,,,,,,,,,0,22,22,131,,,,,,,,,,,,,,,,,,,,,,,,,,,,,,,,,,,321.4326453000249,322.44808180001564,322.4146920000203,322.91762450002716,322.91762450002716,None,324.9385103000095,None,left,0.6997936999541707,324.9385103000095,None,325.6679481000174,None,left,0.2515348999586422,325.6679481000174,None,,,,,,,,,,,,,,,,,,,,,,,PPT24,001,2022-07-01_16h01.59.492,ABstudy,2022.1.4,59.995632312647594,
AB,Lag1_T1P_T2P,1,P,P,5,6,4,3,9,elephant,Did you see the elephant?,0.12,0.016,JPG\,celery,brownsugar,key01,sunglasses04,arugula,stapler04b,dice05a,tennisball01b,scarf,blankImage,blankImage,blankImage,blankImage,blankImage,blankImage,blankImage,blankImage,arugula,,,,,,,,,,,,0,23,23,54,,,,,,,,,,,,,,,,,,,,,,,,,,,,,,,,,,,325.95496230002027,326.9695298000006,326.93602100000135,327.53003930000705,327.53003930000705,None,328.6197784000251,None,right,1.3548359999840613,328.6197784000251,None,330.00557910001953,None,right,0.7607887999911327,330.00557910001953,None,,,,,,,,,,,,,,,,,,,,,,,PPT24,001,2022-07-01_16h01.59.492,ABstudy,2022.1.4,59.995632312647594,
AB,Lag5_T1A_T2P,5,A,P,5,10,4,3,13,License Plate,Did you see the License Plate?,0.12,0.016,JPG\,tomato01,pen04b,shirt02,carrot01,lamp04a,key01,pizza,avocado01,sewingmachine01a,stapler06,iron01b,book01b,chain01,blankImage,blankImage,blankImage,blankImage,porcupine,,,,,,,,,,,,0,24,24,270,,,,,,,,,,,,,,,,,,,,,,,,,,,,,,,,,,,330.7965221000195,331.8073399000277,331.7905975000176,332.3808721000096,332.3808721000096,None,333.954768399999,None,right,0.7961119999818038,333.954768399999,None,334.77711310001905,None,right,0.7894651999813505,334.77711310001905,None,,,,,,,,,,,,,,,,,,,,,,,PPT24,001,2022-07-01_16h01.59.492,ABstudy,2022.1.4,59.995632312647594,
AB,Lag5_T1A_T2A,5,A,A,5,10,4,5,15,window,Did you see the window?,0.12,0.016,JPG\,leaf02a,apple07,cd,pineapple01a,envelope03a,paintbrush01,pig,canoftennisballs,rice,feather03a,lemon02,balloon01b,avocado01,calculator01,watermelon01,blankImage,blankImage,saxophone,,,,,,,,,,,,0,25,25,301,,,,,,,,,,,,,,,,,,,,,,,,,,,,,,,,,,,335.59674460001406,336.6124790000031,336.5788220000104,337.15457570002764,337.15457570002764,None,339.03143820000696,None,right,1.0469626999692991,339.03143820000696,None,340.098868400004,None,right,0.5073334999906365,340.098868400004,None,,,,,,,,,,,,,,,,,,,,,,,PPT24,001,2022-07-01_16h01.59.492,ABstudy,2022.1.4,59.995632312647594,
AB,Lag5_T1P_T2P,5,P,P,5,10,4,4,14,duck,Did you see the duck?,0.12,0.016,JPG\,celery,pencil01,fan,foosballtable,duck01,shirt02,potato02b,fork03c,button01,stapler03a,baseball01a,printer02,cauliflower01,dandelion,blankImage,blankImage,blankImage,duck01,,,,,,,,,,,,0,26,26,130,,,,,,,,,,,,,,,,,,,,,,,,,,,,,,,,,,,340.63505350000923,341.6504746999999,341.6171497000032,342.20551780000096,342.20551780000096,None,343.8199510000122,None,left,0.5226085999747738,343.8199510000122,None,344.3711890000268,None,left,0.3793619999778457,344.3711890000268,None,,,,,,,,,,,,,,,,,,,,,,,PPT24,001,2022-07-01_16h01.59.492,ABstudy,2022.1.4,59.995632312647594,
AB,Lag1_T1P_T2A,1,P,A,7,8,6,3,11,walkie talkie,Did you see the walkie talkie?,0.12,0.016,JPG\,teabag,envelope03a,cellphone,apple07,cauliflower01,orange,walkietalkie,book01b,hammer01,feather03a,toaster01,blankImage,blankImage,blankImage,blankImage,blankImage,blankImage,walkietalkie,,,,,,,,,,,,0,27,27,197,,,,,,,,,,,,,,,,,,,,,,,,,,,,,,,,,,,344.8215934000036,345.82154110001284,345.82154110001284,346.4168518000224,346.4168518000224,None,347.6865582000173,None,left,1.3037887999671511,347.6865582000173,None,349.0084308000223,None,left,0.2937697999586817,349.0084308000223,None,,,,,,,,,,,,,,,,,,,,,,,PPT24,001,2022-07-01_16h01.59.492,ABstudy,2022.1.4,59.995632312647594,
AB,Lag5_T1P_T2P,5,P,P,5,10,4,5,15,hockey puck,Did you see the hockey puck?,0.12,0.016,JPG\,chain01,pen04b,birthdaycandle,watermelon01,hockeypuck,scissors01,measuringcup01,candle01,hammer01,stapler06,ashtray01,feather03a,sewingmachine01a,thermometer02b,alligator,blankImage,blankImage,hockeypuck,,,,,,,,,,,,0,28,28,110,,,,,,,,,,,,,,,,,,,,,,,,,,,,,,,,,,,349.3310946000274,350.3426804000046,350.32600330002606,350.91441320002195,350.91441320002195,None,352.6859784000262,None,right,0.7282774999621324,352.6859784000262,None,353.44780650001485,None,right,0.42230489998473786,353.44780650001485,None,,,,,,,,,,,,,,,,,,,,,,,PPT24,001,2022-07-01_16h01.59.492,ABstudy,2022.1.4,59.995632312647594,
AB,Lag5_T1P_T2P,5,P,P,7,12,6,3,15,mail box,Did you see the mail box?,0.12,0.016,JPG\,key01,apple07,ring01,leaf02a,hammer01,tableknife02,postalmailbox01,sponge01,baseball01a,thermometer02b,celery,stapler06,grape01,cucumber,tennisball01b,blankImage,blankImage,postalmailbox01,,,,,,,,,,,,0,29,29,113,,,,,,,,,,,,,,,,,,,,,,,,,,,,,,,,,,,353.9027769000095,354.91386320002493,354.8972163000144,355.48196150001604,355.48196150001604,None,357.3610099000216,None,right,1.3331027999520302,357.3610099000216,None,358.71758770002634,None,left,0.2807543999806512,358.71758770002634,None,,,,,,,,,,,,,,,,,,,,,,,PPT24,001,2022-07-01_16h01.59.492,ABstudy,2022.1.4,59.995632312647594,
AB,Lag5_T1A_T2P,5,A,P,7,12,6,4,16,scooter,Did you see the scooter?,0.12,0.016,JPG\,cigarette,pig,banana01,strawberry,clock01a,plate01b,spoon01,blueberry01,battery02b,pineapple01a,chain01,stapler05,candy,pen04b,teabag,birthdaycandle,blankImage,1nose,,,,,,,,,,,,0,30,30,268,,,,,,,,,,,,,,,,,,,,,,,,,,,,,,,,,,,359.02007190001314,360.0354937000084,360.00212889999966,360.57710570000927,360.57710570000927,None,362.4642754000088,None,right,0.9906129999726545,362.4642754000088,None,363.473364400008,None,left,0.2854331999551505,363.473364400008,None,,,,,,,,,,,,,,,,,,,,,,,PPT24,001,2022-07-01_16h01.59.492,ABstudy,2022.1.4,59.995632312647594,
AB,Lag5_T1P_T2A,5,P,A,8,13,7,4,17,fountain,Did you see the fountain?,0.12,0.016,JPG\,printer02,envelope03a,potato02b,calculator01,tableknife02,cigarette,ashtray01,parkfountain,broom01,greenolive,candle08b,battery02b,strawberry,candle01,foosballtable,tennisball01b,blankImage,parkfountain,,,,,,,,,,,,0,31,31,219,,,,,,,,,,,,,,,,,,,,,,,,,,,,,,,,,,,363.7949770000123,364.8072509000194,364.79068689999986,365.3993961000233,365.3993961000233,None,367.3515255000093,None,right,0.7992096999660134,367.3515255000093,None,368.17687970001134,None,right,0.7018413999758195,368.17687970001134,None,,,,,,,,,,,,,,,,,,,,,,,PPT24,001,2022-07-01_16h01.59.492,ABstudy,2022.1.4,59.995632312647594,
AB,Lag5_T1A_T2P,5,A,P,6,11,5,5,16,bed,Did you see the bed?,0.12,0.016,JPG\,cellphone,tomato01,comb02a,candy,celery,cucumber,toaster01,fan,feather03a,pen04b,stapler03b,blueberry01,plate01b,cherry01,baseball01a,candle08b,blankImage,toolbox02,,,,,,,,,,,,0,32,32,274,,,,,,,,,,,,,,,,,,,,,,,,,,,,,,,,,,,368.9132035000075,369.9286195000168,369.8952630000131,370.4709213000024,370.4709213000024,None,372.5474388000148,None,right,0.8269147999817505,372.5474388000148,None,373.4004936000274,None,left,0.26965299996663816,373.4004936000274,None,,,,,,,,,,,,,,,,,,,,,,,PPT24,001,2022-07-01_16h01.59.492,ABstudy,2022.1.4,59.995632312647594,
AB,Lag5_T1P_T2A,5,P,A,5,10,4,5,15,Shield,Did you see the Shield?,0.12,0.016,JPG\,cigarette,fork03c,greenolive,broccoli01a,shield02,tennisball01b,balloon01b,leaf02a,pig,fan,clock01a,strawberry,envelope03a,birthdaycandle,teabag,blankImage,blankImage,shield02,,,,,,,,,,,,0,33,33,223,,,,,,,,,,,,,,,,,,,,,,,,,,,,,,,,,,,373.7080814000219,374.7169368000177,374.7002894000034,375.28118800002267,375.28118800002267,None,377.09548410002026,None,right,0.8224308999779169,377.09548410002026,None,377.93796380001004,None,right,1.2687590999703389,377.93796380001004,None,,,,,,,,,,,,,,,,,,,,,,,PPT24,001,2022-07-01_16h01.59.492,ABstudy,2022.1.4,59.995632312647594,
AB,Lag5_T1P_T2P,5,P,P,8,13,7,5,18,popcorn,Did you see the popcorn?,0.12,0.016,JPG\,toaster01,garlic01a,hairclip03,fan,comb02a,apple07,orange,popcorn,onion,blueberry01,toiletpaper01a,fork03c,stapler06,pineapple01a,scarf,eraser,blankImage,popcorn,,,,,,,,,,,,0,34,34,155,,,,,,,,,,,,,,,,,,,,,,,,,,,,,,,,,,,379.2895913000102,380.2892203000083,380.2892203000083,380.9462590000185,380.8672628000204,None,382.7384238000086,None,left,0.6284083999635186,382.7384238000086,None,383.39380540000275,None,left,0.24492669996106997,383.39380540000275,None,,,,,,,,,,,,,,,,,,,,,,,PPT24,001,2022-07-01_16h01.59.492,ABstudy,2022.1.4,59.995632312647594,
AB,Lag1_T1A_T2P,1,A,P,5,6,4,3,9,microphone,Did you see the microphone?,0.12,0.016,JPG\,hammer01,sponge01,toaster01,cherry01,feather03a,stapler06,measuringcup01,pencil01,tennisball01b,blankImage,blankImage,blankImage,blankImage,blankImage,blankImage,blankImage,blankImage,cactus,,,,,,,,,,,,0,35,35,230,,,,,,,,,,,,,,,,,,,,,,,,,,,,,,,,,,,383.6731495000131,384.6766609000042,384.6599586000084,385.23038920000545,385.23038920000545,None,386.40131780001684,None,right,1.029419999977108,386.40131780001684,None,387.4627794000262,None,right,2.6878865999460686,387.4627794000262,None,,,,,,,,,,,,,,,,,,,,,,,PPT24,001,2022-07-01_16h01.59.492,ABstudy,2022.1.4,59.995632312647594,
AB,Lag1_T1P_T2P,1,P,P,7,8,6,4,12,cow,Did you see the cow?,0.12,0.016,JPG\,fork03c,plate01b,toiletpaper01a,greenolive,rice,blueberry01,cow,stapler01,envelope03a,orange,book01b,pencil01,blankImage,blankImage,blankImage,blankImage,blankImage,cow,,,,,,,,,,,,0,36,36,59,,,,,,,,,,,,,,,,,,,,,,,,,,,,,,,,,,,390.18436900002416,391.1998526000243,391.1664914000139,391.7381441000034,391.7381441000034,None,393.189736100001,None,left,0.689338099968154,393.189736100001,None,393.9031424000277,None,left,0.6790314999816474,393.9031424000277,None,,,,,,,,,,,,,,,,,,,,,,,PPT24,001,2022-07-01_16h01.59.492,ABstudy,2022.1.4,59.995632312647594,
AB,Lag1_T1P_T2P,1,P,P,7,8,6,5,13,arrow,Did you see the arrow?,0.12,0.016,JPG\,pencil01,broccoli01a,button01,sponge01,watermelon01,lipstick02a,arrow02,stapler04b,lighter01,sock01a,spoon01,blueberry01,belt02a,blankImage,blankImage,blankImage,blankImage,arrow02,,,,,,,,,,,,0,37,37,76,,,,,,,,,,,,,,,,,,,,,,,,,,,,,,,,,,,394.6073502000072,395.62128660001326,395.60461170002236,396.1699190000072,396.1699190000072,None,397.7824779000075,None,left,1.4081959999748506,397.7824779000075,None,399.20778820000123,None,left,0.29584219996468164,399.20778820000123,None,,,,,,,,,,,,,,,,,,,,,,,PPT24,001,2022-07-01_16h01.59.492,ABstudy,2022.1.4,59.995632312647594,
AB,Lag5_T1P_T2P,5,P,P,5,10,4,5,15,Eye,Did you see the Eye?,0.12,0.016,JPG\,apple07,toiletpaper01a,pizza,dandelion,eye,eraser,microscope,violin,orange,stapler01,balloon01b,sandal,lighter01,fan,book01b,blankImage,blankImage,eye,,,,,,,,,,,,0,38,38,171,,,,,,,,,,,,,,,,,,,,,,,,,,,,,,,,,,,399.53100200000335,400.54278650000924,400.52629760000855,401.0937508000061,401.0937508000061,None,402.9575821000035,None,left,0.5047550999734085,402.9575821000035,None,403.4788315000187,None,left,0.4791248999827076,403.4788315000187,None,,,,,,,,,,,,,,,,,,,,,,,PPT24,001,2022-07-01_16h01.59.492,ABstudy,2022.1.4,59.995632312647594,
AB,Lag5_T1P_T2A,5,P,A,5,10,4,3,13,Totem Pole,Did you see the Totem Pole?,0.12,0.016,JPG\,canoftennisballs,banana01,scissors01,pig,totempole,leaf02a,pear01,sponge01,fork03c,tableknife02,balloon01b,match,toothbrush03b,blankImage,blankImage,blankImage,blankImage,totempole,,,,,,,,,,,,0,39,39,202,,,,,,,,,,,,,,,,,,,,,,,,,,,,,,,,,,,403.9818534000078,404.981085300009,404.9655231000215,405.55820550001226,405.55820550001226,None,407.17400370002724,None,left,1.0319345999741927,407.17400370002724,None,408.2333998000249,None,right,0.8531751999689732,408.2333998000249,None,,,,,,,,,,,,,,,,,,,,,,,PPT24,001,2022-07-01_16h01.59.492,ABstudy,2022.1.4,59.995632312647594,
AB,Lag1_T1P_T2P,1,P,P,5,6,4,3,9,dolphin,Did you see the dolphin?,0.12,0.016,JPG\,pig,belt02a,rice,screwdriver04b,dolphin01,stapler05,candle08b,pear01,feather03a,blankImage,blankImage,blankImage,blankImage,blankImage,blankImage,blankImage,blankImage,dolphin01,,,,,,,,,,,,0,40,40,10,,,,,,,,,,,,,,,,,,,,,,,,,,,,,,,,,,,409.11992029999965,410.13529950001976,410.1019105000014,410.6026329000015,410.6026329000015,None,411.7931786000263,None,left,0.7338122999644838,411.7931786000263,None,412.5541235000128,None,left,0.28543079996597953,412.5541235000128,None,,,,,,,,,,,,,,,,,,,,,,,PPT24,001,2022-07-01_16h01.59.492,ABstudy,2022.1.4,59.995632312647594,
AB,Lag1_T1P_T2P,1,P,P,7,8,6,3,11,tree,Did you see the tree?,0.12,0.016,JPG\,pear01,clock01a,cymbal,match,ashtray01,globe,tree,stapler03b,lemon02,pen04b,dice05a,blankImage,blankImage,blankImage,blankImage,blankImage,blankImage,tree,,,,,,,,,,,,0,41,41,51,,,,,,,,,,,,,,,,,,,,,,,,,,,,,,,,,,,412.8745975000202,413.88924150000094,413.85589500001515,414.4407736000139,414.4407736000139,None,415.760715100012,None,left,1.3012517999741249,415.760715100012,None,417.0931604000216,None,left,0.3940263999684248,417.0931604000216,None,,,,,,,,,,,,,,,,,,,,,,,PPT24,001,2022-07-01_16h01.59.492,ABstudy,2022.1.4,59.995632312647594,
AB,Lag1_T1P_T2P,1,P,P,8,9,7,5,14,helicopter,Did you see the helicopter?,0.12,0.016,JPG\,broom01,globe,cellphone,tableknife02,cauliflower01,scissors01,ring01,helicopter,stapler01,toaster01,cigarette,grape01,microscope,cucumber,blankImage,blankImage,blankImage,helicopter,,,,,,,,,,,,0,42,42,85,,,,,,,,,,,,,,,,,,,,,,,,,,,,,,,,,,,417.5185512000171,418.5272938000271,418.51090700001805,419.1083028000139,419.1083028000139,None,420.8107958000037,None,left,1.1878857999690808,420.8107958000037,None,422.03095570000005,None,right,0.5275863999559078,422.03095570000005,None,,,,,,,,,,,,,,,,,,,,,,,PPT24,001,2022-07-01_16h01.59.492,ABstudy,2022.1.4,59.995632312647594,
AB,Lag5_T1P_T2P,5,P,P,7,12,6,4,16,flower,Did you see the flower?,0.12,0.016,JPG\,cucumber,sponge01,alligator,pear01,ashtray01,hammer01,hibiscusflower02,battery02b,fork03c,binoculars01b,mushroom01,stapler01,leaf02a,acorn,comb02a,screwdriver04b,blankImage,hibiscusflower02,,,,,,,,,,,,0,43,43,132,,,,,,,,,,,,,,,,,,,,,,,,,,,,,,,,,,,422.58548740000697,423.5989848000172,423.5822406000225,424.18086920000496,424.18086920000496,None,426.07364610000513,None,left,0.9803503999719396,426.07364610000513,None,427.0859981000249,None,left,0.6561874999897555,427.0859981000249,None,,,,,,,,,,,,,,,,,,,,,,,PPT24,001,2022-07-01_16h01.59.492,ABstudy,2022.1.4,59.995632312647594,
AB,Lag5_T1A_T2P,5,A,P,8,13,7,4,17,wrench,Did you see the wrench?,0.12,0.016,JPG\,clock01a,grape01,plate01b,key01,screwdriver04b,feather03a,pineapple01a,iron01b,toothbrush03b,comb02a,broom01,toaster01,stapler05,garlic01a,match,ashtray01,blankImage,seal,,,,,,,,,,,,0,44,44,272,,,,,,,,,,,,,,,,,,,,,,,,,,,,,,,,,,,427.7744519000116,428.78752400001395,428.77082220002194,429.3775787000195,429.3775787000195,None,431.32749590001185,None,left,1.1664210999733768,431.32749590001185,None,432.52424280002015,None,left,0.5626748999638949,432.52424280002015,None,,,,,,,,,,,,,,,,,,,,,,,PPT24,001,2022-07-01_16h01.59.492,ABstudy,2022.1.4,59.995632312647594,
AB,Lag1_T1P_T2P,1,P,P,5,6,4,5,11,beaver,Did you see the beaver?,0.12,0.016,JPG\,belt02a,sunglasses04,computerkeyboard02,cherry01,beaver,stapler03a,watch02a,dice05a,blueberry01,spoon01,match,blankImage,blankImage,blankImage,blankImage,blankImage,blankImage,beaver,,,,,,,,,,,,0,45,45,55,,,,,,,,,,,,,,,,,,,,,,,,,,,,,,,,,,,433.11046640001587,434.1258838000067,434.0924923999992,434.67837020001025,434.67837020001025,None,436.0407712000015,None,left,0.6213806999730878,436.0407712000015,None,436.6796714000229,None,left,0.3101415999699384,436.6796714000229,None,,,,,,,,,,,,,,,,,,,,,,,PPT24,001,2022-07-01_16h01.59.492,ABstudy,2022.1.4,59.995632312647594,
AB,Lag1_T1P_T2P,1,P,P,7,8,6,4,12,rooster,Did you see the rooster?,0.12,0.016,JPG\,pizza,strawberry,potato02b,speaker04,battery02b,iron01b,rooster,stapler03b,globe,banana01,medal02b,baseball01a,blankImage,blankImage,blankImage,blankImage,blankImage,rooster,,,,,,,,,,,,0,46,46,69,,,,,,,,,,,,,,,,,,,,,,,,,,,,,,,,,,,437.0166757000261,438.0295965000114,438.0128611000255,438.6158295000205,438.6158295000205,None,440.1596913000103,None,left,0.8548337999673095,440.1596913000103,None,441.0471855000069,None,right,0.30332549996091984,441.0471855000069,None,,,,,,,,,,,,,,,,,,,,,,,PPT24,001,2022-07-01_16h01.59.492,ABstudy,2022.1.4,59.995632312647594,
AB,Lag1_T1P_T2P,1,P,P,7,8,6,5,13,disco ball,Did you see the disco ball?,0.12,0.016,JPG\,candle01,paintbrush01,scissors01,fan,microscope,toothbrush03b,discoball,stapler03b,teabag,pencil01,lemon02,ashtray01,shirt02,blankImage,blankImage,blankImage,blankImage,discoball,,,,,,,,,,,,0,47,47,60,,,,,,,,,,,,,,,,,,,,,,,,,,,,,,,,,,,441.3785414000158,442.3851483000035,442.36950060000527,443.03168890002416,442.9629766000144,None,444.5781198000186,None,left,0.5878925999859348,444.5781198000186,None,445.1869150000275,None,left,0.2910446999594569,445.1869150000275,None,,,,,,,,,,,,,,,,,,,,,,,PPT24,001,2022-07-01_16h01.59.492,ABstudy,2022.1.4,59.995632312647594,
AB,Lag5_T1A_T2A,5,A,A,5,10,4,5,15,sword,Did you see the sword?,0.12,0.016,JPG\,pencil01,broccoli01a,button01,sponge01,watermelon01,lipstick02a,comb02a,fan,lighter01,sock01a,spoon01,blueberry01,belt02a,onion,grape01,blankImage,blankImage,parachute,,,,,,,,,,,,0,48,48,298,,,,,,,,,,,,,,,,,,,,,,,,,,,,,,,,,,,445.50615940001444,446.52161520000664,446.4882549000031,447.0588973000122,447.0588973000122,None,448.9717068000173,None,right,1.570070299989311,448.9717068000173,None,450.55949870002223,None,right,0.3904634999926202,450.55949870002223,None,,,,,,,,,,,,,,,,,,,,,,,PPT24,001,2022-07-01_16h01.59.492,ABstudy,2022.1.4,59.995632312647594,
AB,Lag1_T1P_T2P,1,P,P,5,6,4,5,11,Guitar case,Did you see the Guitar case?,0.12,0.016,JPG\,broccoli01a,scissors01,toothbrush03b,foosballtable,guitarcase,stapler05,hammer01,toiletpaper01a,cd,garlic01a,carrot01,blankImage,blankImage,blankImage,blankImage,blankImage,blankImage,guitarcase,,,,,,,,,,,,0,49,49,14,,,,,,,,,,,,,,,,,,,,,,,,,,,,,,,,,,,450.9868127000227,451.9940545000136,451.9773491000233,452.55001790000824,452.55001790000824,None,453.87049180001486,None,left,0.696087099990109,453.87049180001486,None,454.5962638000201,None,right,0.32929429996875115,454.5962638000201,None,,,,,,,,,,,,,,,,,,,,,,,PPT24,001,2022-07-01_16h01.59.492,ABstudy,2022.1.4,59.995632312647594,
AB,Lag5_T1P_T2P,5,P,P,5,10,4,4,14,bell,Did you see the bell?,0.12,0.016,JPG\,teabag,envelope03a,cellphone,apple07,callbell,orange,brownsugar,book01b,hammer01,stapler03b,toaster01,calculator01,globe,battery02b,blankImage,blankImage,blankImage,callbell,,,,,,,,,,,,0,50,50,147,,,,,,,,,,,,,,,,,,,,,,,,,,,,,,,,,,,454.9487945000001,455.96427880000556,455.930892400007,456.5092264000268,456.5092264000268,None,458.2447440000251,None,left,0.6827436999592464,458.2447440000251,None,458.95063180002035,None,left,0.23183459998108447,458.95063180002035,None,,,,,,,,,,,,,,,,,,,,,,,PPT24,001,2022-07-01_16h01.59.492,ABstudy,2022.1.4,59.995632312647594,
AB,Lag5_T1P_T2P,5,P,P,7,12,6,4,16,window,Did you see the window?,0.12,0.016,JPG\,cigarette,pig,banana01,strawberry,clock01a,plate01b,dormer,blueberry01,battery02b,pineapple01a,chain01,stapler01,candy,pen04b,teabag,birthdaycandle,blankImage,dormer,,,,,,,,,,,,0,51,51,170,,,,,,,,,,,,,,,,,,,,,,,,,,,,,,,,,,,459.2031133000273,460.21857710002223,460.185243200016,460.7886079000018,460.7886079000018,None,462.6383505000267,None,right,2.639198499993654,462.6383505000267,None,465.3075790000148,None,right,0.746242799970787,465.3075790000148,None,,,,,,,,,,,,,,,,,,,,,,,PPT24,001,2022-07-01_16h01.59.492,ABstudy,2022.1.4,59.995632312647594,
AB,Lag5_T1P_T2P,5,P,P,8,13,7,4,17,lamp,Did you see the lamp?,0.12,0.016,JPG\,globe,broccoli01a,binoculars01b,iron01b,avocado01,dandelion,pineapple01a,floorlamp,fan,pizza,celery,blueberry01,stapler01,dice05a,watermelon01,candy,blankImage,floorlamp,,,,,,,,,,,,0,52,52,99,,,,,,,,,,,,,,,,,,,,,,,,,,,,,,,,,,,466.0804640999995,467.0922860999999,467.0755538000085,467.6910429999989,467.6910429999989,None,469.5708683000121,None,left,0.4030730999656953,469.5708683000121,None,469.9955012999999,None,left,0.2994303999876138,469.9955012999999,None,,,,,,,,,,,,,,,,,,,,,,,PPT24,001,2022-07-01_16h01.59.492,ABstudy,2022.1.4,59.995632312647594,
AB,Lag1_T1A_T2P,1,A,P,5,6,4,3,9,Crown,Did you see the Crown?,0.12,0.016,JPG\,leaf02a,pear01,measuringcup01,cigarette,fan,stapler04b,teabag,tableknife02,ring01,blankImage,blankImage,blankImage,blankImage,blankImage,blankImage,blankImage,blankImage,arrow02,,,,,,,,,,,,0,53,53,248,,,,,,,,,,,,,,,,,,,,,,,,,,,,,,,,,,,470.317139300023,471.3299270000134,471.3132516000187,471.89441470001475,471.89441470001475,None,472.9648411000089,None,right,1.5938904999929946,472.9648411000089,None,474.5828720999998,None,right,0.6151969999773428,474.5828720999998,None,,,,,,,,,,,,,,,,,,,,,,,PPT24,001,2022-07-01_16h01.59.492,ABstudy,2022.1.4,59.995632312647594,
AB,Lag1_T1P_T2P,1,P,P,5,6,4,5,11,Basketball,Did you see the Basketball?,0.12,0.016,JPG\,pencil01,microscope,banana01,computerkeyboard02,basketball01,stapler04b,scissors01,sock01a,book01b,onion,dice05a,blankImage,blankImage,blankImage,blankImage,blankImage,blankImage,basketball01,,,,,,,,,,,,0,54,54,34,,,,,,,,,,,,,,,,,,,,,,,,,,,,,,,,,,,475.26342160001514,476.2679745000205,476.2513351000089,476.8625048000249,476.8625048000249,None,478.1074472000182,None,left,0.7311518999922555,478.1074472000182,None,478.87082950002514,None,right,0.7667099999671336,478.87082950002514,None,,,,,,,,,,,,,,,,,,,,,,,PPT24,001,2022-07-01_16h01.59.492,ABstudy,2022.1.4,59.995632312647594,
AB,Lag1_T1P_T2P,1,P,P,8,9,7,3,12,Wheelchair,Did you see the Wheelchair?,0.12,0.016,JPG\,cigarette,pig,banana01,strawberry,clock01a,plate01b,spoon01,wheelchair,stapler03b,pineapple01a,chain01,paintbrush01,blankImage,blankImage,blankImage,blankImage,blankImage,wheelchair,,,,,,,,,,,,0,55,55,27,,,,,,,,,,,,,,,,,,,,,,,,,,,,,,,,,,,479.6569428000075,480.67221150000114,480.6389438000042,481.21291090000886,481.21291090000886,None,482.6620688000112,None,left,0.7044156999909319,482.6620688000112,None,483.3915636000165,None,left,0.3195830999757163,483.3915636000165,None,,,,,,,,,,,,,,,,,,,,,,,PPT24,001,2022-07-01_16h01.59.492,ABstudy,2022.1.4,59.995632312647594,
AB,Lag1_T1P_T2P,1,P,P,5,6,4,4,10,skateboard,Did you see the skateboard?,0.12,0.016,JPG\,binoculars01b,cymbal,pizza,candy,skateboard,stapler05,grape01,thermometer02b,speaker04,lemon02,blankImage,blankImage,blankImage,blankImage,blankImage,blankImage,blankImage,skateboard,,,,,,,,,,,,0,56,56,25,,,,,,,,,,,,,,,,,,,,,,,,,,,,,,,,,,,483.79485570002,484.8106149000232,484.79484700001194,485.3956575000193,485.3956575000193,None,486.5662210000155,None,left,0.5837197999644559,486.5662210000155,None,487.1794283000054,None,left,0.37045999997644685,487.1794283000054,None,,,,,,,,,,,,,,,,,,,,,,,PPT24,001,2022-07-01_16h01.59.492,ABstudy,2022.1.4,59.995632312647594,
AB,Lag5_T1A_T2P,5,A,P,8,13,7,5,18,fish,Did you see the fish?,0.12,0.016,JPG\,scissors01,grape01,mushroom01,toiletpaper01a,greenolive,pizza,cigarette,ashtray01,carrot01,pineapple01a,foosballtable,lipstick02a,stapler04b,tambourine02,potato02b,violin,blankImage,chimney,,,,,,,,,,,,0,57,57,283,,,,,,,,,,,,,,,,,,,,,,,,,,,,,,,,,,,487.58138529999997,488.5969139000226,488.56361060001655,489.15283110001474,489.15283110001474,None,491.1717363000207,None,right,1.0104488999641035,491.1717363000207,None,492.20098520000465,None,right,1.3418041999684647,492.20098520000465,None,,,,,,,,,,,,,,,,,,,,,,,PPT24,001,2022-07-01_16h01.59.492,ABstudy,2022.1.4,59.995632312647594,
AB,Lag5_T1A_T2P,5,A,P,6,11,5,4,15,butterfly,Did you see the butterfly?,0.12,0.016,JPG\,comb02a,key01,medal02b,battery02b,lighter01,microscope,watermelon01,sandal,pig,cellphone,stapler06,calculator01,cymbal,clock04,cucumber,blankImage,blankImage,uprightpiano01,,,,,,,,,,,,0,58,58,276,,,,,,,,,,,,,,,,,,,,,,,,,,,,,,,,,,,493.572384900006,494.58632080000825,494.5696008000232,495.1586174000113,495.1586174000113,None,496.93952000001445,None,right,0.7943544999870937,496.93952000001445,None,497.75594719999935,None,right,0.6579749999800697,497.75594719999935,None,,,,,,,,,,,,,,,,,,,,,,,PPT24,001,2022-07-01_16h01.59.492,ABstudy,2022.1.4,59.995632312647594,
AB,Lag1_T1A_T2P,1,A,P,8,9,7,4,13,Rabbit,Did you see the Rabbit?,0.12,0.016,JPG\,lamp04a,broccoli01a,alligator,garlic01a,dandelion,brownsugar,avocado01,ring01,stapler06,cellphone,medal02b,cd,calculator01,blankImage,blankImage,blankImage,blankImage,escalator,,,,,,,,,,,,0,59,59,254,,,,,,,,,,,,,,,,,,,,,,,,,,,,,,,,,,,498.4474553000182,499.4578416000004,499.44112950001727,500.02590540001984,500.02590540001984,None,501.6056374000036,None,right,1.2651908999541774,501.6056374000036,None,502.89492520000204,None,left,0.32698859996162355,502.89492520000204,None,,,,,,,,,,,,,,,,,,,,,,,PPT24,001,2022-07-01_16h01.59.492,ABstudy,2022.1.4,59.995632312647594,
AB,Lag1_T1P_T2P,1,P,P,6,7,5,4,11,American football,Did you see the American football?,0.12,0.016,JPG\,toaster01,garlic01a,faucet,fan,comb02a,football,stapler06,watch02a,onion,blueberry01,toiletpaper01a,blankImage,blankImage,blankImage,blankImage,blankImage,blankImage,football,,,,,,,,,,,,0,60,60,12,,,,,,,,,,,,,,,,,,,,,,,,,,,,,,,,,,,503.2558604000078,504.2625462000142,504.2458624000137,504.86613000000943,504.86613000000943,None,506.24220030001015,None,left,1.4117660999763757,506.24220030001015,None,507.68240350001724,None,left,0.27656099997693673,507.68240350001724,None,,,,,,,,,,,,,,,,,,,,,,,PPT24,001,2022-07-01_16h01.59.492,ABstudy,2022.1.4,59.995632312647594,
AB,Lag1_T1A_T2P,1,A,P,8,9,7,3,12,porcupine,Did you see the porcupine?,0.12,0.016,JPG\,celery,orange,scissors01,balloon01b,avocado01,printer02,mushroom01,sewingmachine01a,stapler01,dice05a,ashtray01,fan,blankImage,blankImage,blankImage,blankImage,blankImage,drumstick,,,,,,,,,,,,0,61,61,233,,,,,,,,,,,,,,,,,,,,,,,,,,,,,,,,,,,507.98575440002605,509.000437700015,508.96705700000166,509.5495763000217,509.5495763000217,None,511.0075559000252,None,right,1.1261191999656148,511.0075559000252,None,512.1536567000148,None,left,0.3728655999584589,512.1536567000148,None,,,,,,,,,,,,,,,,,,,,,,,PPT24,001,2022-07-01_16h01.59.492,ABstudy,2022.1.4,59.995632312647594,
AB,Lag5_T1P_T2P,5,P,P,5,10,4,3,13,bathtub,Did you see the bathtub?,0.12,0.016,JPG\,belt02a,sunglasses04,computerkeyboard02,cherry01,bathtub,eraser,watch02a,dice05a,blueberry01,stapler04b,match,leaf02a,iron01b,blankImage,blankImage,blankImage,blankImage,bathtub,,,,,,,,,,,,0,62,62,103,,,,,,,,,,,,,,,,,,,,,,,,,,,,,,,,,,,512.5554896000249,513.5558558000193,513.5403389999992,514.2496151000087,514.1765801000001,None,515.7269789999991,None,left,0.7267203999799676,515.7269789999991,None,516.4766098000109,None,left,0.42532279997249134,516.4766098000109,None,,,,,,,,,,,,,,,,,,,,,,,PPT24,001,2022-07-01_16h01.59.492,ABstudy,2022.1.4,59.995632312647594,
AB,Lag1_T1P_T2P,1,P,P,8,9,7,5,14,finger print,Did you see the finger print?,0.12,0.016,JPG\,chain01,pen04b,birthdaycandle,watermelon01,broom01,scissors01,measuringcup01,fingerprint,stapler01,calculator01,ashtray01,feather03a,sewingmachine01a,thermometer02b,blankImage,blankImage,blankImage,fingerprint,,,,,,,,,,,,0,63,63,62,,,,,,,,,,,,,,,,,,,,,,,,,,,,,,,,,,,516.9299749000056,517.9426649000088,517.9260238000134,518.5020472000178,518.5020472000178,None,520.1832109000243,None,left,0.5119125999626704,520.1832109000243,None,520.7121003000066,None,left,0.38228569997590967,520.7121003000066,None,,,,,,,,,,,,,,,,,,,,,,,PPT24,001,2022-07-01_16h01.59.492,ABstudy,2022.1.4,59.995632312647594,
AB,Lag1_T1P_T2P,1,P,P,5,6,4,3,9,hockey stick,Did you see the hockey stick?,0.12,0.016,JPG\,violin,pizza,toothbrush03b,pineapple01a,hockeystick,stapler03b,candy,dandelion,clock04,blankImage,blankImage,blankImage,blankImage,blankImage,blankImage,blankImage,blankImage,hockeystick,,,,,,,,,,,,0,64,64,63,,,,,,,,,,,,,,,,,,,,,,,,,,,,,,,,,,,521.115094800014,522.1301834000042,522.0968183000223,522.6735968000139,522.6735968000139,None,523.831230700016,None,left,1.3026210999814793,523.831230700016,None,525.1665478000068,None,right,0.4231245999690145,525.1665478000068,None,,,,,,,,,,,,,,,,,,,,,,,PPT24,001,2022-07-01_16h01.59.492,ABstudy,2022.1.4,59.995632312647594,
AB,Lag1_T1A_T2P,1,A,P,8,9,7,3,12,elbow,Did you see the elbow?,0.12,0.016,JPG\,watermelon01,cigarette,faucet,cymbal,cauliflower01,feather03a,cherry01,broom01,stapler01,key01,baseball01a,iron01b,blankImage,blankImage,blankImage,blankImage,blankImage,cashregister01,,,,,,,,,,,,0,65,65,251,,,,,,,,,,,,,,,,,,,,,,,,,,,,,,,,,,,525.6192314000218,526.6347032000194,526.6012766000058,527.1924923000042,527.1924923000042,None,528.6741047000105,None,right,1.1071994999947492,528.6741047000105,None,529.8045365000144,None,left,0.38481699998374097,529.8045365000144,None,,,,,,,,,,,,,,,,,,,,,,,PPT24,001,2022-07-01_16h01.59.492,ABstudy,2022.1.4,59.995632312647594,
AB,Lag1_T1P_T2P,1,P,P,6,7,5,3,10,elephant,Did you see the elephant?,0.12,0.016,JPG\,clock01a,grape01,plate01b,key01,screwdriver04b,africanelephant,stapler03b,iron01b,toothbrush03b,comb02a,blankImage,blankImage,blankImage,blankImage,blankImage,blankImage,blankImage,africanelephant,,,,,,,,,,,,0,66,66,31,,,,,,,,,,,,,,,,,,,,,,,,,,,,,,,,,,,530.2242287000117,531.2235532000195,531.2080023000017,531.8898050000134,531.8095442000194,None,533.1057456000126,None,left,0.7563170999637805,533.1057456000126,None,533.8918419000111,None,left,0.3381601999863051,533.8918419000111,None,,,,,,,,,,,,,,,,,,,,,,,PPT24,001,2022-07-01_16h01.59.492,ABstudy,2022.1.4,59.995632312647594,
AB,Lag1_T1P_T2P,1,P,P,8,9,7,4,13,kite,Did you see the kite?,0.12,0.016,JPG\,scissors01,balloon01b,eraser,feather03a,banana01,candle01,measuringcup01,kite,stapler04b,strawberry,pear01,carrot01,globe,blankImage,blankImage,blankImage,blankImage,kite,,,,,,,,,,,,0,67,67,17,,,,,,,,,,,,,,,,,,,,,,,,,,,,,,,,,,,534.2611015000148,535.2607395000232,535.2452520000224,535.8267308000068,535.8267308000068,None,537.4376123000111,None,left,0.7763135999557562,537.4376123000111,None,538.2462091000052,None,right,0.2875846999522764,538.2462091000052,None,,,,,,,,,,,,,,,,,,,,,,,PPT24,001,2022-07-01_16h01.59.492,ABstudy,2022.1.4,59.995632312647594,
AB,Lag1_T1A_T2A,1,A,A,8,9,7,3,12,punching bag,Did you see the punching bag?,0.12,0.016,JPG\,key01,apple07,ring01,leaf02a,hammer01,tableknife02,violin,sponge01,baseball01a,thermometer02b,celery,calculator01,blankImage,blankImage,blankImage,blankImage,blankImage,bathtub,,,,,,,,,,,,0,68,68,291,,,,,,,,,,,,,,,,,,,,,,,,,,,,,,,,,,,538.5657158000104,539.5807794000139,539.5475263000117,540.118096500024,540.118096500024,None,541.6851344000024,None,right,1.401251899980707,541.6851344000024,None,543.1177659000095,None,right,2.9361842999933288,543.1177659000095,None,,,,,,,,,,,,,,,,,,,,,,,PPT24,001,2022-07-01_16h01.59.492,ABstudy,2022.1.4,59.995632312647594,
AB,Lag5_T1P_T2P,5,P,P,6,11,5,5,16,sword,Did you see the sword?,0.12,0.016,JPG\,chain01,speaker04,avocado01,watermelon01,scarf,sword01,lamp04a,fork03c,toaster01,slipper03b,stapler03a,cucumber,teabag,ashtray01,computerkeyboard02,book01b,blankImage,sword01,,,,,,,,,,,,0,69,69,143,,,,,,,,,,,,,,,,,,,,,,,,,,,,,,,,,,,546.0729836000246,547.088391199999,547.0550218000135,547.6277916000108,547.6277916000108,None,549.5654704000044,None,left,0.4879726999788545,549.5654704000044,None,550.0890561000269,None,left,0.5561915999860503,550.0890561000269,None,,,,,,,,,,,,,,,,,,,,,,,PPT24,001,2022-07-01_16h01.59.492,ABstudy,2022.1.4,59.995632312647594,
AB,Lag1_T1P_T2P,1,P,P,5,6,4,3,9,camel,Did you see the camel?,0.12,0.016,JPG\,iron01b,brick,broccoli01a,balloon01b,dromedary,stapler05,sandal,teabag,scissors01,blankImage,blankImage,blankImage,blankImage,blankImage,blankImage,blankImage,blankImage,dromedary,,,,,,,,,,,,0,70,70,11,,,,,,,,,,,,,,,,,,,,,,,,,,,,,,,,,,,550.6773025000002,551.6771232000028,551.6614210000262,552.2821422000125,552.2821422000125,None,553.3780499999993,None,left,0.7635600999637973,553.3780499999993,None,554.1626656000153,None,right,0.355487999971956,554.1626656000153,None,,,,,,,,,,,,,,,,,,,,,,,PPT24,001,2022-07-01_16h01.59.492,ABstudy,2022.1.4,59.995632312647594,
AB,Lag5_T1P_T2P,5,P,P,6,11,5,4,15,boxing glove,Did you see the boxing glove?,0.12,0.016,JPG\,button01,celery,birthdaycandle,apple07,avocado01,boxingglove01,dice05a,teabag,clock01a,feather03a,stapler06,scarf,orange,battery02b,thermometer02b,blankImage,blankImage,boxingglove01,,,,,,,,,,,,0,71,71,165,,,,,,,,,,,,,,,,,,,,,,,,,,,,,,,,,,,554.5534187000012,555.5638572000025,555.547166400007,556.1323438000109,556.1323438000109,None,557.9597133000207,None,left,0.542204999976093,557.9597133000207,None,558.5188067000126,None,left,1.8868504999554716,558.5188067000126,None,,,,,,,,,,,,,,,,,,,,,,,PPT24,001,2022-07-01_16h01.59.492,ABstudy,2022.1.4,59.995632312647594,
AB,Lag1_T1P_T2P,1,P,P,8,9,7,4,13,crab,Did you see the crab?,0.12,0.016,JPG\,candle01,fork03c,plate01b,violin,computerkeyboard02,candy,calculator01,crab01,stapler04b,sock01a,teabag,banana01,cd,blankImage,blankImage,blankImage,blankImage,crab01,,,,,,,,,,,,0,72,72,37,,,,,,,,,,,,,,,,,,,,,,,,,,,,,,,,,,,560.4371523000009,561.4524977000256,561.4191620000056,561.9852774000028,561.9852774000028,None,563.5782089000277,None,left,0.8829167999792844,563.5782089000277,None,564.488940500014,None,right,1.2450983999588061,564.488940500014,None,,,,,,,,,,,,,,,,,,,,,,,PPT24,001,2022-07-01_16h01.59.492,ABstudy,2022.1.4,59.995632312647594,
AB,Lag1_T1P_T2P,1,P,P,8,9,7,3,12,cactus,Did you see the cactus?,0.12,0.016,JPG\,tennisball01b,paintbrush01,medal02b,apple07,speaker04,iron01b,avocado01,cactus,stapler03b,toiletpaper01a,watermelon01,candle01,blankImage,blankImage,blankImage,blankImage,blankImage,cactus,,,,,,,,,,,,0,73,73,58,,,,,,,,,,,,,,,,,,,,,,,,,,,,,,,,,,,565.7592877999996,566.7587454000022,566.7430075000157,567.4513499000168,567.3483639000042,None,568.7853356000269,None,left,0.7483459999784827,568.7853356000269,None,569.5613717000233,None,right,0.3322551999881398,569.5613717000233,None,,,,,,,,,,,,,,,,,,,,,,,PPT24,001,2022-07-01_16h01.59.492,ABstudy,2022.1.4,59.995632312647594,
AB,Lag5_T1P_T2P,5,P,P,5,10,4,5,15,Safe,Did you see the Safe?,0.12,0.016,JPG\,candle01,shirt02,brick,orange,safe,toothbrush03b,pizza,thermometer02b,book01b,stapler01,sewingmachine01a,toaster01,candy,cymbal,potato02b,blankImage,blankImage,safe,,,,,,,,,,,,0,74,74,159,,,,,,,,,,,,,,,,,,,,,,,,,,,,,,,,,,,569.9170293000061,570.9289862000151,570.912235900003,571.514638600027,571.514638600027,None,573.3607227000175,None,left,0.4139910999801941,573.3607227000175,None,573.7983214000124,None,left,0.3601967999711633,573.7983214000124,None,,,,,,,,,,,,,,,,,,,,,,,PPT24,001,2022-07-01_16h01.59.492,ABstudy,2022.1.4,59.995632312647594,
AB,Lag5_T1P_T2P,5,P,P,6,11,5,3,14,Poker chips,Did you see the Poker chips?,0.12,0.016,JPG\,iron01b,brick,broccoli01a,balloon01b,tomato01,pokerchips,sandal,teabag,scissors01,pineapple01a,stapler04b,measuringcup01,sock01a,book01b,blankImage,blankImage,blankImage,pokerchips,,,,,,,,,,,,0,75,75,154,,,,,,,,,,,,,,,,,,,,,,,,,,,,,,,,,,,574.186813200009,575.1996838000196,575.1829856000259,575.781841900025,575.781841900025,None,577.4449815000116,None,left,0.592720399989048,577.4449815000116,None,578.0692014000088,None,right,0.3523187999671791,578.0692014000088,None,,,,,,,,,,,,,,,,,,,,,,,PPT24,001,2022-07-01_16h01.59.492,ABstudy,2022.1.4,59.995632312647594,
AB,Lag5_T1P_T2A,5,P,A,6,11,5,3,14,toy truck,Did you see the toy truck?,0.12,0.016,JPG\,globe,belt02a,sponge01,violin,fork03c,bluecheese,clock01a,microscope,balloon01b,scarf,teabag,pen04b,brick,brownsugar,blankImage,blankImage,blankImage,bluecheese,,,,,,,,,,,,0,76,76,204,,,,,,,,,,,,,,,,,,,,,,,,,,,,,,,,,,,578.455291100021,579.454909800028,579.4390826000017,580.0457155000186,580.0457155000186,None,581.6401431000268,None,right,0.9098972999781836,581.6401431000268,None,582.5736938000191,None,right,0.7770009999803733,582.5736938000191,None,,,,,,,,,,,,,,,,,,,,,,,PPT24,001,2022-07-01_16h01.59.492,ABstudy,2022.1.4,59.995632312647594,
AB,Lag5_T1P_T2A,5,P,A,5,10,4,3,13,cork,Did you see the cork?,0.12,0.016,JPG\,clock01a,grape01,plate01b,key01,cork02,feather03a,pineapple01a,iron01b,toothbrush03b,comb02a,broom01,toaster01,pizza,blankImage,blankImage,blankImage,blankImage,cork02,,,,,,,,,,,,0,77,77,209,,,,,,,,,,,,,,,,,,,,,,,,,,,,,,,,,,,583.3766953000159,584.3921109000221,584.3587600000028,584.9432295000006,584.9432295000006,None,586.5866618000146,None,left,0.8187362999888137,586.5866618000146,None,587.4286123000202,None,right,0.3939064999576658,587.4286123000202,None,,,,,,,,,,,,,,,,,,,,,,,PPT24,001,2022-07-01_16h01.59.492,ABstudy,2022.1.4,59.995632312647594,
AB,Lag5_T1P_T2P,5,P,P,5,10,4,3,13,lollipop,Did you see the lollipop?,0.12,0.016,JPG\,brownsugar,candle01,match,printer02,lollipop04,balloon01b,belt02a,potato02b,computerkeyboard02,stapler03a,rice,mushroom01,pencil01,blankImage,blankImage,blankImage,blankImage,lollipop04,,,,,,,,,,,,0,78,78,112,,,,,,,,,,,,,,,,,,,,,,,,,,,,,,,,,,,587.8521828000084,588.8635897000204,588.8467706000083,589.3473694999993,589.3473694999993,None,590.9942925000214,None,left,1.0755629999621306,590.9942925000214,None,592.1006177000236,None,right,0.43352449996746145,592.1006177000236,None,,,,,,,,,,,,,,,,,,,,,,,PPT24,001,2022-07-01_16h01.59.492,ABstudy,2022.1.4,59.995632312647594,
AB,Lag1_T1P_T2P,1,P,P,8,9,7,3,12,apron,Did you see the apron?,0.12,0.016,JPG\,avocado01,tambourine02,match,cauliflower01,paintbrush01,clock01a,pig,apron,stapler03a,cellphone,watch02a,pear01,blankImage,blankImage,blankImage,blankImage,blankImage,apron,,,,,,,,,,,,0,79,79,32,,,,,,,,,,,,,,,,,,,,,,,,,,,,,,,,,,,592.5576641000225,593.5677821999998,593.5511723000091,594.1281533000001,594.1281533000001,None,595.5673467000015,None,left,0.7991944999666885,595.5673467000015,None,596.3880390000122,None,right,0.3295334999857005,596.3880390000122,None,,,,,,,,,,,,,,,,,,,,,,,PPT24,001,2022-07-01_16h01.59.492,ABstudy,2022.1.4,59.995632312647594,
AB,Lag1_T1A_T2P,1,A,P,7,8,6,5,13,Ant,Did you see the Ant?,0.12,0.016,JPG\,rice,watermelon01,tableknife02,scarf,computerkeyboard02,cauliflower01,battery02b,stapler03b,book01b,sandal,sponge01,microscope,tomato01,blankImage,blankImage,blankImage,blankImage,sandcastle,,,,,,,,,,,,0,80,80,242,,,,,,,,,,,,,,,,,,,,,,,,,,,,,,,,,,,596.7823937000067,597.7888545000169,597.7723369000014,598.3527781000012,598.3527781000012,None,599.8835238000029,None,left,0.8505358999827877,599.8835238000029,None,600.7584337000153,None,left,2.504441399971256,600.7584337000153,None,,,,,,,,,,,,,,,,,,,,,,,PPT24,001,2022-07-01_16h01.59.492,ABstudy,2022.1.4,59.995632312647594,
AB,Lag5_T1A_T2P,5,A,P,8,13,7,3,16,ladder,Did you see the ladder?,0.12,0.016,JPG\,apple07,toiletpaper01a,pizza,dandelion,greenolive,eraser,microscope,violin,orange,lipstick02a,balloon01b,sandal,stapler01,fan,book01b,sewingmachine01a,blankImage,ostrich,,,,,,,,,,,,0,81,81,269,,,,,,,,,,,,,,,,,,,,,,,,,,,,,,,,,,,603.2965292000154,604.311950400006,604.2786083000246,604.8623636000266,604.8623636000266,None,606.7941557000158,None,right,1.2838194999785628,606.7941557000158,None,608.0991347000236,None,right,1.0580332999816164,608.0991347000236,None,,,,,,,,,,,,,,,,,,,,,,,PPT24,001,2022-07-01_16h01.59.492,ABstudy,2022.1.4,59.995632312647594,
AB,Lag5_T1A_T2A,5,A,A,5,10,4,5,15,truck,Did you see the truck?,0.12,0.016,JPG\,pizza,printer02,medal02b,spoon01,grape01,lighter01,belt02a,watermelon01,celery,battery02b,screw02,comb02a,cauliflower01,lipstick02a,potato02b,blankImage,blankImage,postalmailbox01,,,,,,,,,,,,0,82,82,297,,,,,,,,,,,,,,,,,,,,,,,,,,,,,,,,,,,609.2536613000266,610.2681126000243,610.2513820000167,610.8565668000083,610.8565668000083,None,612.6036767000041,None,right,0.970150199951604,612.6036767000041,None,613.6048638000211,None,right,0.5604455999855418,613.6048638000211,None,,,,,,,,,,,,,,,,,,,,,,,PPT24,001,2022-07-01_16h01.59.492,ABstudy,2022.1.4,59.995632312647594,
AB,Lag5_T1A_T2A,5,A,A,6,11,5,3,14,mirror,Did you see the mirror?,0.12,0.016,JPG\,foosballtable,candy,envelope03a,microscope,pencil01,leaf02a,scissors01,watermelon01,grape01,dandelion,pineapple01a,hammer01,celery,thermometer02b,blankImage,blankImage,blankImage,shower,,,,,,,,,,,,0,83,83,305,,,,,,,,,,,,,,,,,,,,,,,,,,,,,,,,,,,614.1908288000268,615.1900624000118,615.1747383000038,615.693058600009,615.6761966000195,None,617.5248667000269,None,right,0.9051466999808326,617.5248667000269,None,618.4594469000003,None,right,1.0743411999719683,618.4594469000003,None,,,,,,,,,,,,,,,,,,,,,,,PPT24,001,2022-07-01_16h01.59.492,ABstudy,2022.1.4,59.995632312647594,
AB,Lag1_T1P_T2P,1,P,P,7,8,6,3,11,harmonica,Did you see the harmonica?,0.12,0.016,JPG\,cucumber,ring01,lipstick02a,microscope,violin,garlic01a,harmonica,stapler03b,cherry01,sewingmachine01a,belt02a,blankImage,blankImage,blankImage,blankImage,blankImage,blankImage,harmonica,,,,,,,,,,,,0,84,84,43,,,,,,,,,,,,,,,,,,,,,,,,,,,,,,,,,,,619.5628096,620.5782616000215,620.5448644999997,621.1231925000029,621.1231925000029,None,622.5276730000041,None,left,0.6694736999634188,622.5276730000041,None,623.2140567000024,None,right,0.5608230999787338,623.2140567000024,None,,,,,,,,,,,,,,,,,,,,,,,PPT24,001,2022-07-01_16h01.59.492,ABstudy,2022.1.4,59.995632312647594,
AB,Lag5_T1P_T2P,5,P,P,8,13,7,3,16,banjo,Did you see the banjo?,0.12,0.016,JPG\,celery,brownsugar,key01,sunglasses04,leaf02a,toothbrush03b,dice05a,banjo,scarf,globe,paintbrush01,scissors01,stapler03a,battery02b,feather03a,cymbal,blankImage,banjo,,,,,,,,,,,,0,85,85,102,,,,,,,,,,,,,,,,,,,,,,,,,,,,,,,,,,,623.8003950999992,624.8156885000062,624.7823603000143,625.3784675000061,625.3784675000061,None,627.2358208000078,None,left,0.5140127999475226,627.2358208000078,None,627.7716090000176,None,left,0.3221056999755092,627.7716090000176,None,,,,,,,,,,,,,,,,,,,,,,,PPT24,001,2022-07-01_16h01.59.492,ABstudy,2022.1.4,59.995632312647594,
AB,Lag5_T1A_T2P,5,A,P,8,13,7,5,18,lollipop,Did you see the lollipop?,0.12,0.016,JPG\,watermelon01,banana01,ring01,pencil01,tomato01,speaker04,cucumber,thermometer02b,key01,foosballtable,violin,spoon01,stapler04b,dice05a,pen04b,mushroom01,blankImage,jeans01,,,,,,,,,,,,0,86,86,262,,,,,,,,,,,,,,,,,,,,,,,,,,,,,,,,,,,628.1322608000191,629.1364914000151,629.1198339000111,629.7383875000232,629.7383875000232,None,631.6268524000188,None,right,0.874484299973119,631.6268524000188,None,632.5231759000162,None,left,0.33043809997616336,632.5231759000162,None,,,,,,,,,,,,,,,,,,,,,,,PPT24,001,2022-07-01_16h01.59.492,ABstudy,2022.1.4,59.995632312647594,
AB,Lag5_T1P_T2P,5,P,P,6,11,5,5,16,table,Did you see the table?,0.12,0.016,JPG\,birthdaycandle,mushroom01,strawberry,match,cherry01,table01,hammer01,thermometer02b,sock01a,ring01,stapler06,banana01,toiletpaper01a,key01,sponge01,teabag,blankImage,table01,,,,,,,,,,,,0,87,87,144,,,,,,,,,,,,,,,,,,,,,,,,,,,,,,,,,,,632.8759606000094,633.8914104000141,633.8579936000169,634.3586585000157,634.3586585000157,None,636.374762100022,None,left,1.0714263999834657,636.374762100022,None,637.4790721000172,None,right,0.7036212999664713,637.4790721000172,None,,,,,,,,,,,,,,,,,,,,,,,PPT24,001,2022-07-01_16h01.59.492,ABstudy,2022.1.4,59.995632312647594,
AB,Lag5_T1P_T2P,5,P,P,8,13,7,3,16,parachute,Did you see the parachute?,0.12,0.016,JPG\,brick,plate01b,pen04b,toaster01,screwdriver04b,candle01,envelope03a,parachute,pig,ring01,orange,clock01a,stapler03b,calculator01,mushroom01,chain01,blankImage,parachute,,,,,,,,,,,,0,88,88,114,,,,,,,,,,,,,,,,,,,,,,,,,,,,,,,,,,,638.2193905000167,639.2310200000065,639.2154683000117,639.8195427000173,639.8195427000173,None,641.7793356000038,None,right,0.9222868999640923,641.7793356000038,None,642.733789800026,None,left,0.29573749998235144,642.733789800026,None,,,,,,,,,,,,,,,,,,,,,,,PPT24,001,2022-07-01_16h01.59.492,ABstudy,2022.1.4,59.995632312647594,
AB,Lag5_T1P_T2P,5,P,P,5,10,4,5,15,ear,Did you see the ear?,0.12,0.016,JPG\,fork03c,plate01b,toiletpaper01a,greenolive,ear,blueberry01,onion,calculator01,envelope03a,stapler06,book01b,pencil01,sewingmachine01a,brick,watermelon01,blankImage,blankImage,ear,,,,,,,,,,,,0,89,89,107,,,,,,,,,,,,,,,,,,,,,,,,,,,,,,,,,,,643.0546127000125,644.0683976,644.0349922000023,644.6278633000038,644.6278633000038,None,646.4621073000017,None,left,0.767196899978444,646.4621073000017,None,647.2547628000029,None,left,0.3343808999634348,647.2547628000029,None,,,,,,,,,,,,,,,,,,,,,,,PPT24,001,2022-07-01_16h01.59.492,ABstudy,2022.1.4,59.995632312647594,
AB,Lag1_T1A_T2P,1,A,P,8,9,7,3,12,seal,Did you see the seal?,0.12,0.016,JPG\,dice05a,watch02a,pig,lighter01,button01,strawberry,paintbrush01,microscope,stapler03a,pen04b,feather03a,8ball,blankImage,blankImage,blankImage,blankImage,blankImage,hockeystick,,,,,,,,,,,,0,90,90,235,,,,,,,,,,,,,,,,,,,,,,,,,,,,,,,,,,,647.624020600022,648.6394730000175,648.6061049000127,649.1858493000036,649.1858493000036,None,650.7244280000159,None,left,2.264716099976795,650.7244280000159,None,653.0248286999995,None,right,0.7964448999846354,653.0248286999995,None,,,,,,,,,,,,,,,,,,,,,,,PPT24,001,2022-07-01_16h01.59.492,ABstudy,2022.1.4,59.995632312647594,
AB,Lag1_T1P_T2A,1,P,A,7,8,6,4,12,gate,Did you see the gate?,0.12,0.016,JPG\,pen04b,speaker04,lighter01,cherry01,pintofbeer,onion,entrancegate,toothbrush03b,broom01,sewingmachine01a,book01b,iron01b,blankImage,blankImage,blankImage,blankImage,blankImage,entrancegate,,,,,,,,,,,,0,91,91,187,,,,,,,,,,,,,,,,,,,,,,,,,,,,,,,,,,,653.8468856000109,654.8623092000198,654.8289525000146,655.4170291000046,655.4170291000046,None,656.9083100999997,None,left,1.8329624999605585,656.9083100999997,None,658.7667635000253,None,right,0.710418499977095,658.7667635000253,None,,,,,,,,,,,,,,,,,,,,,,,PPT24,001,2022-07-01_16h01.59.492,ABstudy,2022.1.4,59.995632312647594,
AB,Lag1_T1P_T2P,1,P,P,8,9,7,3,12,Fire hydrant,Did you see the Fire hydrant?,0.12,0.016,JPG\,foosballtable,candy,envelope03a,microscope,pencil01,leaf02a,scissors01,firehydrant,stapler01,dandelion,pineapple01a,hammer01,blankImage,blankImage,blankImage,blankImage,blankImage,firehydrant,,,,,,,,,,,,0,92,92,83,,,,,,,,,,,,,,,,,,,,,,,,,,,,,,,,,,,659.5112664000189,660.5184831000224,660.5015089000226,661.005664700002,661.005664700002,None,662.5155665000202,None,left,0.8821822999743745,662.5155665000202,None,663.4208352000278,None,right,0.31282939997618087,663.4208352000278,None,,,,,,,,,,,,,,,,,,,,,,,PPT24,001,2022-07-01_16h01.59.492,ABstudy,2022.1.4,59.995632312647594,
AB,Lag5_T1P_T2A,5,P,A,8,13,7,5,18,telescope,Did you see the telescope?,0.12,0.016,JPG\,globe,broccoli01a,binoculars01b,iron01b,avocado01,dandelion,pineapple01a,handheldtelescope,fan,pizza,celery,blueberry01,sewingmachine01a,dice05a,watermelon01,candy,blankImage,handheldtelescope,,,,,,,,,,,,0,93,93,228,,,,,,,,,,,,,,,,,,,,,,,,,,,,,,,,,,,663.7567468000052,664.7721078000031,664.7387956000166,665.4032557000173,665.4032557000173,None,667.2781599000155,None,left,0.7760777999938,667.2781599000155,None,668.07548520001,None,right,0.3937207999697421,668.07548520001,None,,,,,,,,,,,,,,,,,,,,,,,PPT24,001,2022-07-01_16h01.59.492,ABstudy,2022.1.4,59.995632312647594,
AB,Lag5_T1P_T2P,5,P,P,5,10,4,4,14,Salt shaker,Did you see the Salt shaker?,0.12,0.016,JPG\,fork03c,belt02a,grape01,computerkeyboard02,saltshaker03a,printer02,broom01,toiletpaper01a,toaster01,stapler01,book01b,blueberry01,spoon01,apple07,blankImage,blankImage,blankImage,saltshaker03a,,,,,,,,,,,,0,94,94,96,,,,,,,,,,,,,,,,,,,,,,,,,,,,,,,,,,,668.4970403000189,669.5103399000072,669.4935828000016,670.0728291000123,670.0728291000123,None,671.7566275999998,None,right,1.6805928999674506,671.7566275999998,None,673.4641905000026,None,right,0.4689187999465503,673.4641905000026,None,,,,,,,,,,,,,,,,,,,,,,,PPT24,001,2022-07-01_16h01.59.492,ABstudy,2022.1.4,59.995632312647594,
AB,Lag5_T1A_T2P,5,A,P,7,12,6,3,15,Car,Did you see the Car?,0.12,0.016,JPG\,lighter01,hammer01,spoon01,chain01,cymbal,sponge01,lipstick02a,alligator,pig,watermelon01,cauliflower01,stapler03b,broccoli01a,tableknife02,tennisball01b,blankImage,blankImage,wallclock,,,,,,,,,,,,0,95,95,277,,,,,,,,,,,,,,,,,,,,,,,,,,,,,,,,,,,673.9670837000012,674.9823512000148,674.9489821000025,675.5252319000138,675.5252319000138,None,677.3981545000279,None,right,0.8795964999590069,677.3981545000279,None,678.3167781000084,None,left,0.2968984999752138,678.3167781000084,None,,,,,,,,,,,,,,,,,,,,,,,PPT24,001,2022-07-01_16h01.59.492,ABstudy,2022.1.4,59.995632312647594,
AB,Lag1_T1P_T2P,1,P,P,6,7,5,3,10,spider web,Did you see the spider web?,0.12,0.016,JPG\,toaster01,chain01,sponge01,baseball01a,carrot01,spiderweb,stapler03b,iron01b,grape01,brick,blankImage,blankImage,blankImage,blankImage,blankImage,blankImage,blankImage,spiderweb,,,,,,,,,,,,0,96,96,72,,,,,,,,,,,,,,,,,,,,,,,,,,,,,,,,,,,678.650740800018,679.6536777000001,679.6200773000019,680.2363521000079,680.2363521000079,None,681.4289757000224,None,left,0.7682814999716356,681.4289757000224,None,682.2234582000237,None,right,0.6538359999540262,682.2234582000237,None,,,,,,,,,,,,,,,,,,,,,,,PPT24,001,2022-07-01_16h01.59.492,ABstudy,2022.1.4,59.995632312647594,
AB,Lag1_T1P_T2A,1,P,A,6,7,5,5,12,Tombstone,Did you see the Tombstone?,0.12,0.016,JPG\,cigarette,ashtray01,envelope03a,sandal,chain01,tombstone,broccoli01a,tomato01,dandelion,candle01,lemon02,button01,blankImage,blankImage,blankImage,blankImage,blankImage,tombstone,,,,,,,,,,,,0,97,97,196,,,,,,,,,,,,,,,,,,,,,,,,,,,,,,,,,,,682.9107676000276,683.9248568000039,683.9080987000198,684.4770783000276,684.4770783000276,None,685.986961800023,None,left,0.80211569997482,685.986961800023,None,686.8108074000047,None,right,0.34639029996469617,686.8108074000047,None,,,,,,,,,,,,,,,,,,,,,,,PPT24,001,2022-07-01_16h01.59.492,ABstudy,2022.1.4,59.995632312647594,
AB,Lag5_T1P_T2P,5,P,P,8,13,7,3,16,shrimp,Did you see the shrimp?,0.12,0.016,JPG\,globe,belt02a,sponge01,violin,fork03c,tomato01,clock01a,cocktailshrimp02,balloon01b,scarf,teabag,pen04b,stapler03a,brownsugar,speaker04,screwdriver04b,blankImage,cocktailshrimp02,,,,,,,,,,,,0,98,98,169,,,,,,,,,,,,,,,,,,,,,,,,,,,,,,,,,,,687.1813200000033,688.1954974000109,688.1621511000267,688.7541715000116,688.7541715000116,None,690.6754535000073,None,left,0.7777321999601554,690.6754535000073,None,691.4838549000269,None,right,0.32897579998825677,691.4838549000269,None,,,,,,,,,,,,,,,,,,,,,,,PPT24,001,2022-07-01_16h01.59.492,ABstudy,2022.1.4,59.995632312647594,
AB,Lag5_T1P_T2P,5,P,P,7,12,6,4,16,Fireplace,Did you see the Fireplace?,0.12,0.016,JPG\,printer02,leaf02a,cauliflower01,sock01a,brownsugar,paintbrush01,fireplace,orange,belt02a,shirt02,key01,stapler01,cigarette,scissors01,envelope03a,blueberry01,blankImage,fireplace,,,,,,,,,,,,0,99,99,88,,,,,,,,,,,,,,,,,,,,,,,,,,,,,,,,,,,691.8377216000226,692.8504269000259,692.833764400013,693.4167667000147,693.4167667000147,None,695.3724487000145,None,left,0.8573327999911271,695.3724487000145,None,696.2535996000224,None,right,0.416442499961704,696.2535996000224,None,,,,,,,,,,,,,,,,,,,,,,,PPT24,001,2022-07-01_16h01.59.492,ABstudy,2022.1.4,59.995632312647594,
AB,Lag1_T1P_T2P,1,P,P,8,9,7,3,12,Eiffel tower,Did you see the Eiffel tower?,0.12,0.016,JPG\,celery,tennisball01b,calculator01,pear01,screw02,orange,button01,eiffeltower,stapler03b,apple07,iron01b,brownsugar,blankImage,blankImage,blankImage,blankImage,blankImage,eiffeltower,,,,,,,,,,,,0,100,100,40,,,,,,,,,,,,,,,,,,,,,,,,,,,,,,,,,,,696.6916151000187,697.7049808000156,697.6882948999992,698.2658783000079,698.2658783000079,None,699.6418607000087,None,left,1.6348937999864575,699.6418607000087,None,701.3085867000045,None,right,0.35299049998866394,701.3085867000045,None,,,,,,,,,,,,,,,,,,,,,,,PPT24,001,2022-07-01_16h01.59.492,ABstudy,2022.1.4,59.995632312647594,
AB,Lag5_T1P_T2A,5,P,A,8,13,7,4,17,knife,Did you see the knife?,0.12,0.016,JPG\,lighter01,hammer01,spoon01,chain01,cymbal,sponge01,lipstick02a,knife03,pig,watermelon01,cauliflower01,lemon02,broccoli01a,tableknife02,tennisball01b,toothbrush03b,blankImage,knife03,,,,,,,,,,,,0,101,101,214,,,,,,,,,,,,,,,,,,,,,,,,,,,,,,,,,,,701.7452752000245,702.760030800011,702.7433471000113,703.3320529000193,703.3320529000193,None,705.2281599000271,None,left,1.1211565999838058,705.2281599000271,None,706.3807326000242,None,right,0.38507919997209683,706.3807326000242,None,,,,,,,,,,,,,,,,,,,,,,,PPT24,001,2022-07-01_16h01.59.492,ABstudy,2022.1.4,59.995632312647594,
AB,Lag5_T1P_T2P,5,P,P,8,13,7,5,18,bed,Did you see the bed?,0.12,0.016,JPG\,pencil01,broccoli01a,button01,sponge01,watermelon01,lipstick02a,comb02a,bed,lighter01,sock01a,spoon01,blueberry01,stapler04b,onion,grape01,avocado01,blankImage,bed,,,,,,,,,,,,0,102,102,124,,,,,,,,,,,,,,,,,,,,,,,,,,,,,,,,,,,706.8003834000265,707.8152207000239,707.7818948000204,708.3659688000043,708.3659688000043,None,710.3782894000178,None,left,0.45845269999699667,710.3782894000178,None,710.8685319000215,None,left,0.24113819998456165,710.8685319000215,None,,,,,,,,,,,,,,,,,,,,,,,PPT24,001,2022-07-01_16h01.59.492,ABstudy,2022.1.4,59.995632312647594,
AB,Lag1_T1P_T2P,1,P,P,8,9,7,3,12,snow globe,Did you see the Snow globe?,0.12,0.016,JPG\,eraser,measuringcup01,chain01,birthdaycandle,ring01,rice,8ball,stapler04b,stapler01,celery,microscope,sunglasses04,blankImage,blankImage,blankImage,blankImage,blankImage,snowglobe,,,,,,,,,,,,0,103,103,56,,,,,,,,,,,,,,,,,,,,,,,,,,,,,,,,,,,711.1403507000068,712.1529348000186,712.1362051000178,712.7563310000114,712.7563310000114,None,714.1765635000193,None,right,0.8369468999735545,714.1765635000193,None,715.0388254999998,None,right,0.95835619996069,715.0388254999998,None,,,,,,,,,,,,,,,,,,,,,,,PPT24,001,2022-07-01_16h01.59.492,ABstudy,2022.1.4,59.995632312647594,
AB,Lag5_T1A_T2P,5,A,P,7,12,6,4,16,church,Did you see the church?,0.12,0.016,JPG\,printer02,leaf02a,cauliflower01,sock01a,brownsugar,paintbrush01,pig,orange,belt02a,shirt02,key01,stapler06,cigarette,scissors01,envelope03a,blueberry01,blankImage,ant,,,,,,,,,,,,0,104,104,279,,,,,,,,,,,,,,,,,,,,,,,,,,,,,,,,,,,716.0254094000265,717.0408785000036,717.0074697000091,717.5895596000191,717.5895596000191,None,719.5867092000262,None,right,1.4264020999835338,719.5867092000262,None,721.0452395000029,None,left,0.5518261999532115,721.0452395000029,None,,,,,,,,,,,,,,,,,,,,,,,PPT24,001,2022-07-01_16h01.59.492,ABstudy,2022.1.4,59.995632312647594,
AB,Lag1_T1P_T2P,1,P,P,5,6,4,3,9,kangaroo,Did you see the kangaroo?,0.12,0.016,JPG\,candle01,shirt02,brick,orange,kangaroo,stapler03a,pizza,thermometer02b,book01b,blankImage,blankImage,blankImage,blankImage,blankImage,blankImage,blankImage,blankImage,kangaroo,,,,,,,,,,,,0,105,105,16,,,,,,,,,,,,,,,,,,,,,,,,,,,,,,,,,,,721.6332374000049,722.6467370000028,722.6299644000246,723.2084023000207,723.2084023000207,None,724.2917520000192,None,left,0.8506004999799188,724.2917520000192,None,725.1668892000162,None,right,0.29457569995429367,725.1668892000162,None,,,,,,,,,,,,,,,,,,,,,,,PPT24,001,2022-07-01_16h01.59.492,ABstudy,2022.1.4,59.995632312647594,
AB,Lag1_T1A_T2P,1,A,P,8,9,7,4,13,Toolbox,Did you see the Toolbox?,0.12,0.016,JPG\,pizza,printer02,medal02b,spoon01,grape01,lighter01,belt02a,watermelon01,stapler03b,battery02b,screw02,comb02a,cauliflower01,blankImage,blankImage,blankImage,blankImage,ladybug03,,,,,,,,,,,,0,106,106,237,,,,,,,,,,,,,,,,,,,,,,,,,,,,,,,,,,,725.4906688000192,726.5006223000237,726.4842389000114,727.0788370000082,727.0788370000082,None,728.7300399000233,None,right,0.9715785999724176,728.7300399000233,None,729.7203791000065,None,left,0.3323143999732565,729.7203791000065,None,,,,,,,,,,,,,,,,,,,,,,,PPT24,001,2022-07-01_16h01.59.492,ABstudy,2022.1.4,59.995632312647594,
AB,Lag5_T1P_T2P,5,P,P,7,12,6,5,17,tie,Did you see the tie?,0.12,0.016,JPG\,iron01b,orange,birthdaycandle,potato02b,cauliflower01,pencil01,tie02,candle08b,celery,tableknife02,pen04b,stapler06,ring01,rice,lemon02,tomato01,blankImage,tie02,,,,,,,,,,,,0,107,107,161,,,,,,,,,,,,,,,,,,,,,,,,,,,,,,,,,,,730.072791100014,731.0881758000178,731.054889800027,731.6488314000017,731.6488314000017,None,733.5882305000268,None,left,0.6090631999832112,733.5882305000268,None,734.2246254000056,None,left,0.22850389996892773,734.2246254000056,None,,,,,,,,,,,,,,,,,,,,,,,PPT24,001,2022-07-01_16h01.59.492,ABstudy,2022.1.4,59.995632312647594,
AB,Lag5_T1A_T2P,5,A,P,7,12,6,4,16,ear,Did you see the ear?,0.12,0.016,JPG\,candle01,shirt02,brick,orange,greenolive,toothbrush03b,pizza,thermometer02b,book01b,toiletpaper01a,sewingmachine01a,stapler01,candy,cymbal,potato02b,plate01b,blankImage,chair,,,,,,,,,,,,0,108,108,257,,,,,,,,,,,,,,,,,,,,,,,,,,,,,,,,,,,734.4785324000113,735.4925523000129,735.4592614000139,736.0509305000014,736.0509305000014,None,738.0251954000269,None,right,0.8681674999825191,738.0251954000269,None,738.9132846000139,None,right,0.5321239999611862,738.9132846000139,None,,,,,,,,,,,,,,,,,,,,,,,PPT24,001,2022-07-01_16h01.59.492,ABstudy,2022.1.4,59.995632312647594,
AB,Lag5_T1P_T2A,5,P,A,5,10,4,4,14,Ship in a bottle,Did you see the Ship in a bottle?,0.12,0.016,JPG\,sewingmachine01a,thermometer02b,sponge01,eraser,shipinabottle,fork03c,pizza,violin,belt02a,medal02b,pineapple01a,tennisball01b,dandelion,cauliflower01,blankImage,blankImage,blankImage,shipinabottle,,,,,,,,,,,,0,109,109,208,,,,,,,,,,,,,,,,,,,,,,,,,,,,,,,,,,,739.4711721000203,740.4811648000032,740.4641945000039,741.057014400023,741.057014400023,None,742.7576079000137,None,right,4.375214399973629,742.7576079000137,None,747.1550369000179,None,right,0.7542559999565128,747.1550369000179,None,,,,,,,,,,,,,,,,,,,,,,,PPT24,001,2022-07-01_16h01.59.492,ABstudy,2022.1.4,59.995632312647594,
AB,Lag1_T1P_T2P,1,P,P,6,7,5,4,11,no parking sign,Did you see the no parking sign?,0.12,0.016,JPG\,fork03c,belt02a,grape01,computerkeyboard02,lemon02,parkingsign,stapler05,toiletpaper01a,toaster01,lipstick02a,book01b,blankImage,blankImage,blankImage,blankImage,blankImage,blankImage,parkingsign,,,,,,,,,,,,0,110,110,47,,,,,,,,,,,,,,,,,,,,,,,,,,,,,,,,,,,747.9450498000078,748.9561780000222,748.9394863000198,749.5182194000226,749.5182194000226,None,750.8487429000088,None,left,0.8121594999684021,750.8487429000088,None,751.6924116000009,None,right,0.8407931999536231,751.6924116000009,None,,,,,,,,,,,,,,,,,,,,,,,PPT24,001,2022-07-01_16h01.59.492,ABstudy,2022.1.4,59.995632312647594,
AB,Lag5_T1P_T2P,5,P,P,5,10,4,3,13,Jellyfish,Did you see the Jellyfish?,0.12,0.016,JPG\,printer02,envelope03a,potato02b,calculator01,jellyfish,cigarette,ashtray01,pig,broom01,stapler06,candle08b,battery02b,strawberry,blankImage,blankImage,blankImage,blankImage,jellyfish,,,,,,,,,,,,0,111,111,91,,,,,,,,,,,,,,,,,,,,,,,,,,,,,,,,,,,752.5654220000142,753.5774182000023,753.5607796000259,754.1503239000158,754.1503239000158,None,755.7474610000208,None,right,1.4981226999661885,755.7474610000208,None,757.2648559000227,None,right,0.4679119999927934,757.2648559000227,None,,,,,,,,,,,,,,,,,,,,,,,PPT24,001,2022-07-01_16h01.59.492,ABstudy,2022.1.4,59.995632312647594,
AB,Lag5_T1P_T2P,5,P,P,6,11,5,4,15,sword,Did you see the sword?,0.12,0.016,JPG\,8ball,banana01,scissors01,pig,shirt02,broadsword,pear01,sponge01,fork03c,tableknife02,stapler06,match,toothbrush03b,birthdaycandle,candle01,blankImage,blankImage,broadsword,,,,,,,,,,,,0,112,112,167,,,,,,,,,,,,,,,,,,,,,,,,,,,,,,,,,,,757.7675048000237,758.7827689000114,758.7493386999995,759.3326302000205,759.3326302000205,None,761.1460863000248,None,right,0.7792474999732804,761.1460863000248,None,761.9522058000148,None,right,1.0858191999723203,761.9522058000148,None,,,,,,,,,,,,,,,,,,,,,,,PPT24,001,2022-07-01_16h01.59.492,ABstudy,2022.1.4,59.995632312647594,
AB,Lag1_T1P_T2A,1,P,A,5,6,4,4,10,bird,Did you see the bird?,0.12,0.016,JPG\,toaster01,scarf,toiletpaper01a,calculator01,swallow,sewingmachine01a,fan,teabag,strawberry,balloon01b,blankImage,blankImage,blankImage,blankImage,blankImage,blankImage,blankImage,swallow,,,,,,,,,,,,0,113,113,195,,,,,,,,,,,,,,,,,,,,,,,,,,,,,,,,,,,763.0722540000279,764.0877302000008,764.0542819000257,764.6459748000198,764.6459748000198,None,765.8841522000148,None,left,1.4411797999637201,765.8841522000148,None,767.3580352000135,None,right,0.2945683999569155,767.3580352000135,None,,,,,,,,,,,,,,,,,,,,,,,PPT24,001,2022-07-01_16h01.59.492,ABstudy,2022.1.4,59.995632312647594,
AB,Lag5_T1P_T2A,5,P,A,6,11,5,4,15,Spear,Did you see the Spear?,0.12,0.016,JPG\,belt02a,measuringcup01,spoon01,chain01,greenolive,spear02,computerkeyboard02,onion,fan,strawberry,candle01,broom01,binoculars01b,ashtray01,pingpongpaddle01c,blankImage,blankImage,spear02,,,,,,,,,,,,0,114,114,227,,,,,,,,,,,,,,,,,,,,,,,,,,,,,,,,,,,767.6793437000015,768.6923060000117,768.6757409000129,769.2490276000171,769.2490276000171,None,771.0850253000099,None,left,0.7038097999757156,771.0850253000099,None,771.8120997000078,None,right,0.3526355999929365,771.8120997000078,None,,,,,,,,,,,,,,,,,,,,,,,PPT24,001,2022-07-01_16h01.59.492,ABstudy,2022.1.4,59.995632312647594,
AB,Lag1_T1P_T2A,1,P,A,5,6,4,5,11,Moon,Did you see the Moon?,0.12,0.016,JPG\,lamp04a,broccoli01a,alligator,garlic01a,moon,brownsugar,avocado01,ring01,leaf02a,cellphone,medal02b,blankImage,blankImage,blankImage,blankImage,blankImage,blankImage,moon,,,,,,,,,,,,0,115,115,190,,,,,,,,,,,,,,,,,,,,,,,,,,,,,,,,,,,772.1982820000267,773.2134686000063,773.1801243000082,773.7549590000126,773.7549590000126,None,775.1613417000044,None,right,1.9325255999574438,775.1613417000044,None,777.117461900023,None,right,0.9836554999637883,777.117461900023,None,,,,,,,,,,,,,,,,,,,,,,,PPT24,001,2022-07-01_16h01.59.492,ABstudy,2022.1.4,59.995632312647594,
AB,Lag1_T1P_T2P,1,P,P,5,6,4,4,10,Ladybug,Did you see the Ladybug?,0.12,0.016,JPG\,key01,apple07,ring01,leaf02a,ladybug03,stapler04b,violin,sponge01,baseball01a,thermometer02b,blankImage,blankImage,blankImage,blankImage,blankImage,blankImage,blankImage,ladybug03,,,,,,,,,,,,0,116,116,65,,,,,,,,,,,,,,,,,,,,,,,,,,,,,,,,,,,778.1697085000051,779.1703762000252,779.1549186000193,779.8527913000144,779.7614528000122,None,780.9405461000279,None,left,0.7846213999728207,780.9405461000279,None,781.7561297000211,None,right,0.3369294999865815,781.7561297000211,None,,,,,,,,,,,,,,,,,,,,,,,PPT24,001,2022-07-01_16h01.59.492,ABstudy,2022.1.4,59.995632312647594,
AB,Lag1_T1P_T2P,1,P,P,6,7,5,5,12,snowman,Did you see the snowman?,0.12,0.016,JPG\,comb02a,watch02a,scissors01,dice05a,tableknife02,snowman,stapler03a,printer02,dandelion,spoon01,ashtray01,battery02b,blankImage,blankImage,blankImage,blankImage,blankImage,snowman,,,,,,,,,,,,0,117,117,4,,,,,,,,,,,,,,,,,,,,,,,,,,,,,,,,,,,782.1279461000231,783.1403121000039,783.123783100018,783.705027500022,783.705027500022,None,785.2354615000077,None,left,1.0496858999540564,785.2354615000077,None,786.3097778000229,None,right,0.4152318999695126,786.3097778000229,None,,,,,,,,,,,,,,,,,,,,,,,PPT24,001,2022-07-01_16h01.59.492,ABstudy,2022.1.4,59.995632312647594,
AB,Lag1_T1A_T2A,1,A,A,8,9,7,4,13,sword fish,Did you see the sword fish?,0.12,0.016,JPG\,pizza,strawberry,potato02b,speaker04,battery02b,iron01b,dice05a,cellphone,globe,banana01,medal02b,baseball01a,toaster01,blankImage,blankImage,blankImage,blankImage,ear,,,,,,,,,,,,0,118,118,295,,,,,,,,,,,,,,,,,,,,,,,,,,,,,,,,,,,786.7458705000172,787.7612487000006,787.7278893000039,788.3232757000078,788.3232757000078,None,789.9117077000265,None,right,2.189079199975822,789.9117077000265,None,792.1323474000092,None,right,0.4335488999495283,792.1323474000092,None,,,,,,,,,,,,,,,,,,,,,,,PPT24,001,2022-07-01_16h01.59.492,ABstudy,2022.1.4,59.995632312647594,
AB,Lag5_T1P_T2P,5,P,P,7,12,6,4,16,Wolf,Did you see the Wolf?,0.12,0.016,JPG\,brick,eraser,cucumber,ashtray01,thermometer02b,binoculars01b,greywolf,screwdriver04b,grape01,brownsugar,battery02b,stapler03b,dice05a,avocado01,birthdaycandle,watch02a,blankImage,greywolf,,,,,,,,,,,,0,119,119,89,,,,,,,,,,,,,,,,,,,,,,,,,,,,,,,,,,,792.5849462000187,793.5846453000268,793.5690212000045,794.1600952000008,794.1600952000008,None,796.1994172000268,None,left,0.9974701999744866,796.1994172000268,None,797.220721700025,None,right,0.32771209997008555,797.220721700025,None,,,,,,,,,,,,,,,,,,,,,,,PPT24,001,2022-07-01_16h01.59.492,ABstudy,2022.1.4,59.995632312647594,
AB,Lag1_T1A_T2P,1,A,P,8,9,7,4,13,Fireplace,Did you see the Fireplace?,0.12,0.016,JPG\,scissors01,ashtray01,garlic01a,medal02b,cigarette,candle08b,leaf02a,envelope03a,stapler06,rice,toiletpaper01a,greenolive,cymbal,blankImage,blankImage,blankImage,blankImage,dartboard,,,,,,,,,,,,0,120,120,252,,,,,,,,,,,,,,,,,,,,,,,,,,,,,,,,,,,797.5755640999996,798.5890140000265,798.5722490000189,799.2187557000143,799.1449044000183,None,800.641827000014,None,right,1.6349151999747846,800.641827000014,None,802.3094993000268,None,left,0.3270181999541819,802.3094993000268,None,,,,,,,,,,,,,,,,,,,,,,,PPT24,001,2022-07-01_16h01.59.492,ABstudy,2022.1.4,59.995632312647594,
AB,Lag5_T1P_T2P,5,P,P,5,10,4,5,15,baseball bat,Did you see the baseball bat?,0.12,0.016,JPG\,pizza,printer02,medal02b,spoon01,baseballbat,lighter01,belt02a,watermelon01,celery,stapler04b,screw02,comb02a,cauliflower01,lipstick02a,potato02b,blankImage,blankImage,baseballbat,,,,,,,,,,,,0,121,121,123,,,,,,,,,,,,,,,,,,,,,,,,,,,,,,,,,,,802.6621985000093,803.6771299000247,803.6437774000224,804.2370503000275,804.2370503000275,None,806.130682100018,None,right,0.8021248999866657,806.130682100018,None,806.9637683000183,None,left,0.4970138999633491,806.9637683000183,None,,,,,,,,,,,,,,,,,,,,,,,PPT24,001,2022-07-01_16h01.59.492,ABstudy,2022.1.4,59.995632312647594,
AB,Lag5_T1P_T2A,5,P,A,7,12,6,4,16,Bear,Did you see the Bear?,0.12,0.016,JPG\,comb02a,key01,medal02b,battery02b,lighter01,microscope,grizzly,sandal,pig,cellphone,computerkeyboard02,calculator01,cymbal,clock04,cucumber,avocado01,blankImage,grizzly,,,,,,,,,,,,0,122,122,213,,,,,,,,,,,,,,,,,,,,,,,,,,,,,,,,,,,807.4845392000279,808.4986324000056,808.4652618000109,809.0568233000231,809.0568233000231,None,811.0323990000179,None,left,0.8201696999603882,811.0323990000179,None,811.8853511000052,None,right,0.2949421999801416,811.8853511000052,None,,,,,,,,,,,,,,,,,,,,,,,PPT24,001,2022-07-01_16h01.59.492,ABstudy,2022.1.4,59.995632312647594,
AB,Lag1_T1P_T2P,1,P,P,8,9,7,3,12,zebra,Did you see the zebra?,0.12,0.016,JPG\,apple07,toiletpaper01a,pizza,dandelion,greenolive,eraser,microscope,zebra,stapler03b,lipstick02a,balloon01b,sandal,blankImage,blankImage,blankImage,blankImage,blankImage,zebra,,,,,,,,,,,,0,123,123,28,,,,,,,,,,,,,,,,,,,,,,,,,,,,,,,,,,,812.2486747000075,813.2535013000015,813.2368114000128,813.8331072000146,813.8331072000146,None,815.2731213000079,None,left,1.4037478999525774,815.2731213000079,None,816.7065789000189,None,left,1.2029624999850057,816.7065789000189,None,,,,,,,,,,,,,,,,,,,,,,,PPT24,001,2022-07-01_16h01.59.492,ABstudy,2022.1.4,59.995632312647594,
AB,Lag1_T1A_T2P,1,A,P,5,6,4,5,11,rake,Did you see the rake?,0.12,0.016,JPG\,candy,brownsugar,dice05a,cd,sock01a,stapler01,button01,potato02b,feather03a,grape01,dandelion,blankImage,blankImage,blankImage,blankImage,blankImage,blankImage,greatwhiteshark,,,,,,,,,,,,0,124,124,256,,,,,,,,,,,,,,,,,,,,,,,,,,,,,,,,,,,817.9435926000006,818.9589586000075,818.9254834000021,819.5104928000073,819.5104928000073,None,820.8140760000097,None,right,1.542311199969845,820.8140760000097,None,822.3796373000077,None,right,0.593590199976461,822.3796373000077,None,,,,,,,,,,,,,,,,,,,,,,,PPT24,001,2022-07-01_16h01.59.492,ABstudy,2022.1.4,59.995632312647594,
AB,Lag1_T1P_T2P,1,P,P,8,9,7,3,12,bridge,Did you see the bridge?,0.12,0.016,JPG\,speaker04,sewingmachine01a,eraser,violin,globe,belt02a,sunglasses04,bridge,stapler01,greenolive,alligator,pear01,blankImage,blankImage,blankImage,blankImage,blankImage,bridge,,,,,,,,,,,,0,125,125,78,,,,,,,,,,,,,,,,,,,,,,,,,,,,,,,,,,,823.0007081000076,824.0142136000213,823.9974970000039,824.5982581000135,824.5982581000135,None,826.0547291000257,None,left,0.6868649999669287,826.0547291000257,None,826.7667388000118,None,left,0.3097934999677818,826.7667388000118,None,,,,,,,,,,,,,,,,,,,,,,,PPT24,001,2022-07-01_16h01.59.492,ABstudy,2022.1.4,59.995632312647594,
AB,Lag5_T1A_T2P,5,A,P,6,11,5,5,16,baseball bat,Did you see the baseball bat?,0.12,0.016,JPG\,avocado01,aceofdiamond,match,cauliflower01,paintbrush01,clock01a,pig,cd,balloon01b,cellphone,stapler01,pear01,toaster01,sponge01,orange,blueberry01,blankImage,stool01,,,,,,,,,,,,0,126,126,273,,,,,,,,,,,,,,,,,,,,,,,,,,,,,,,,,,,827.1026917000127,828.1181265000196,828.0848192000121,828.6642079000012,828.6642079000012,None,830.677542600024,None,right,0.9432570999779273,830.677542600024,None,831.6405850000156,None,left,0.6120322999486234,831.6405850000156,None,,,,,,,,,,,,,,,,,,,,,,,PPT24,001,2022-07-01_16h01.59.492,ABstudy,2022.1.4,59.995632312647594,
AB,Lag1_T1P_T2P,1,P,P,7,8,6,3,11,Daddy Long Legs,Did you see the Daddy Long Legs?,0.12,0.016,JPG\,lighter01,hammer01,spoon01,chain01,cymbal,sponge01,daddylonglegs,stapler03b,pig,watermelon01,cauliflower01,blankImage,blankImage,blankImage,blankImage,blankImage,blankImage,daddylonglegs,,,,,,,,,,,,0,127,127,86,,,,,,,,,,,,,,,,,,,,,,,,,,,,,,,,,,,832.2762610000209,833.2899384000048,833.2733332000207,833.862884400005,833.862884400005,None,835.173803600017,None,left,0.7123798999818973,835.173803600017,None,835.9097461000201,None,right,0.30254959999001585,835.9097461000201,None,,,,,,,,,,,,,,,,,,,,,,,PPT24,001,2022-07-01_16h01.59.492,ABstudy,2022.1.4,59.995632312647594,
AB,Lag5_T1A_T2A,5,A,A,7,12,6,3,15,Christmas lights,Did you see the Christmas lights?,0.12,0.016,JPG\,toiletpaper01a,mushroom01,medal02b,sandal,rice,cd,feather03a,pizza,candle08b,garlic01a,toaster01,belt02a,cigarette,violin,lemon02,blankImage,blankImage,rockbass,,,,,,,,,,,,0,128,128,299,,,,,,,,,,,,,,,,,,,,,,,,,,,,,,,,,,,836.2487405000138,837.2609652000247,837.244145100005,837.8189711000014,837.8189711000014,None,839.6576345000067,None,right,0.8831440999638289,839.6576345000067,None,840.5636037000222,None,right,0.6104314999829512,840.5636037000222,None,,,,,,,,,,,,,,,,,,,,,,,PPT24,001,2022-07-01_16h01.59.492,ABstudy,2022.1.4,59.995632312647594,
AB,Lag5_T1P_T2P,5,P,P,7,12,6,5,17,statue,Did you see the statue?,0.12,0.016,JPG\,pear01,clock01a,cymbal,match,ashtray01,globe,statue,button01,lemon02,pen04b,dice05a,stapler06,toothbrush03b,screwdriver04b,feather03a,key01,blankImage,statue,,,,,,,,,,,,0,129,129,100,,,,,,,,,,,,,,,,,,,,,,,,,,,,,,,,,,,841.1986812000105,842.1990019000077,842.1823013000248,842.764625700016,842.764625700016,None,844.7062810000207,None,left,0.41182509998907335,844.7062810000207,None,845.1356267000083,None,left,0.2534892999683507,845.1356267000083,None,,,,,,,,,,,,,,,,,,,,,,,PPT24,001,2022-07-01_16h01.59.492,ABstudy,2022.1.4,59.995632312647594,
AB,Lag1_T1P_T2P,1,P,P,6,7,5,5,12,Snowboard,Did you see the Snowboard?,0.12,0.016,JPG\,belt02a,measuringcup01,spoon01,chain01,greenolive,snowboard,stapler01,onion,fan,strawberry,candle01,broom01,blankImage,blankImage,blankImage,blankImage,blankImage,snowboard,,,,,,,,,,,,0,130,130,49,,,,,,,,,,,,,,,,,,,,,,,,,,,,,,,,,,,845.4237893000245,846.4365930000204,846.4198817000142,847.0005768000265,847.0005768000265,None,848.4830175000243,None,right,2.9854579999810085,848.4830175000243,None,851.4915151000023,None,left,0.42499049997422844,851.4915151000023,None,,,,,,,,,,,,,,,,,,,,,,,PPT24,001,2022-07-01_16h01.59.492,ABstudy,2022.1.4,59.995632312647594,
AB,Lag1_T1P_T2P,1,P,P,6,7,5,3,10,drum sticks,Did you see the drum sticks?,0.12,0.016,JPG\,pineapple01a,tennisball01b,computerkeyboard02,feather03a,belt02a,drumstick,stapler03b,blueberry01,medal02b,alligator,blankImage,blankImage,blankImage,blankImage,blankImage,blankImage,blankImage,drumstick,,,,,,,,,,,,0,131,131,61,,,,,,,,,,,,,,,,,,,,,,,,,,,,,,,,,,,851.9442006000027,852.959579300019,852.9261692000146,853.5031431000098,853.5031431000098,None,854.6571891000203,None,left,0.803511099977186,854.6571891000203,None,855.4930141000077,None,right,0.3197418999916408,855.4930141000077,None,,,,,,,,,,,,,,,,,,,,,,,PPT24,001,2022-07-01_16h01.59.492,ABstudy,2022.1.4,59.995632312647594,
AB,Lag1_T1P_T2P,1,P,P,7,8,6,3,11,trampoline,Did you see the trampoline?,0.12,0.016,JPG\,dice05a,watch02a,pig,lighter01,button01,strawberry,trampoline,stapler03a,plate01b,pen04b,feather03a,blankImage,blankImage,blankImage,blankImage,blankImage,blankImage,trampoline,,,,,,,,,,,,0,132,132,73,,,,,,,,,,,,,,,,,,,,,,,,,,,,,,,,,,,855.8424554000085,856.8477342000115,856.8321458999999,857.5217048000195,857.4501246,None,858.7291919000272,None,left,0.7881822999625001,858.7291919000272,None,859.5504898000218,None,right,0.3259670999541413,859.5504898000218,None,,,,,,,,,,,,,,,,,,,,,,,PPT24,001,2022-07-01_16h01.59.492,ABstudy,2022.1.4,59.995632312647594,
AB,Lag1_T1P_T2P,1,P,P,7,8,6,5,13,school bus,Did you see the school bus?,0.12,0.016,JPG\,aceofdiamond,banana01,scissors01,pig,shirt02,leaf02a,schoolbus,stapler05,fork03c,tableknife02,balloon01b,match,toothbrush03b,blankImage,blankImage,blankImage,blankImage,schoolbus,,,,,,,,,,,,0,133,133,24,,,,,,,,,,,,,,,,,,,,,,,,,,,,,,,,,,,859.9026046000072,860.9174906000262,860.8840934000036,861.4701335999998,861.4701335999998,None,863.0582696000056,None,left,0.7473895999719389,863.0582696000056,None,863.840088500001,None,left,0.25257139999303035,863.840088500001,None,,,,,,,,,,,,,,,,,,,,,,,PPT24,001,2022-07-01_16h01.59.492,ABstudy,2022.1.4,59.995632312647594,
AB,Lag5_T1P_T2A,5,P,A,7,12,6,5,17,shoulder,Did you see the shoulder?,0.12,0.016,JPG\,battery02b,sunglasses04,pear01,tennisball01b,clock01a,speaker04,shoulder,spoon01,alligator,pineapple01a,avocado01,grape01,blueberry01,violin,strawberry,sock01a,blankImage,shoulder,,,,,,,,,,,,0,134,134,224,,,,,,,,,,,,,,,,,,,,,,,,,,,,,,,,,,,864.1228971000237,865.1383096000063,865.1049646000029,865.6847983000043,865.6847983000043,None,867.6991389000032,None,left,0.9696473999938462,867.6991389000032,None,868.692687600007,None,right,0.35238669998943806,868.692687600007,None,,,,,,,,,,,,,,,,,,,,,,,PPT24,001,2022-07-01_16h01.59.492,ABstudy,2022.1.4,59.995632312647594,
AB,Lag1_T1P_T2P,1,P,P,8,9,7,4,13,Doughnut,Did you see the Doughnut?,0.12,0.016,JPG\,brick,eraser,cucumber,ashtray01,thermometer02b,binoculars01b,lipstick02a,donut,stapler01,brownsugar,battery02b,iron01b,dice05a,blankImage,blankImage,blankImage,blankImage,donut,,,,,,,,,,,,0,135,135,39,,,,,,,,,,,,,,,,,,,,,,,,,,,,,,,,,,,869.079012400005,870.0933894000191,870.0766976000159,870.6699350000126,870.6699350000126,None,872.2642068999994,None,left,0.7720454999653157,872.2642068999994,None,873.0634352000197,None,right,0.4695235999824945,873.0634352000197,None,,,,,,,,,,,,,,,,,,,,,,,PPT24,001,2022-07-01_16h01.59.492,ABstudy,2022.1.4,59.995632312647594,
AB,Lag5_T1A_T2P,5,A,P,6,11,5,4,15,fish,Did you see the fish?,0.12,0.016,JPG\,pingpongpaddle01c,banana01,scissors01,pig,shirt02,leaf02a,pear01,sponge01,fork03c,tableknife02,stapler03a,match,toothbrush03b,birthdaycandle,candle01,blankImage,blankImage,lighthouse,,,,,,,,,,,,0,136,136,265,,,,,,,,,,,,,,,,,,,,,,,,,,,,,,,,,,,873.5668211000157,874.5812806000176,874.5478490000241,875.1455610000121,875.1455610000121,None,876.9376849000109,None,right,0.9071406999719329,876.9376849000109,None,877.8690287000209,None,left,0.43965519999619573,877.8690287000209,None,,,,,,,,,,,,,,,,,,,,,,,PPT24,001,2022-07-01_16h01.59.492,ABstudy,2022.1.4,59.995632312647594,
AB,Lag1_T1A_T2P,1,A,P,8,9,7,5,14,clock,Did you see the clock?,0.12,0.016,JPG\,speaker04,sewingmachine01a,eraser,violin,globe,belt02a,sunglasses04,cymbal,stapler01,greenolive,alligator,pear01,watch02a,screwdriver04b,blankImage,blankImage,blankImage,peacock,,,,,,,,,,,,0,137,137,240,,,,,,,,,,,,,,,,,,,,,,,,,,,,,,,,,,,878.3401978000184,879.3522900000098,879.3356131000037,879.916821700026,879.916821700026,None,881.6426540000248,None,right,0.9218529999488965,881.6426540000248,None,882.5893394000013,None,left,0.4236794999742415,882.5893394000013,None,,,,,,,,,,,,,,,,,,,,,,,PPT24,001,2022-07-01_16h01.59.492,ABstudy,2022.1.4,59.995632312647594,
