TrialType,CondType,Lag,T1_PA,T2_PA,T1Loc,T2Loc,PreDistractor,PostDistractor,TotalImg,cueWord,T1cue,StimLength,isi,PicFolder,Img1,Img2,Img3,Img4,Img5,Img6,Img7,Img8,Img9,Img10,Img11,Img12,Img13,Img14,Img15,Img16,Img17,T1_Identity,ImageType,T1PA,T2PA,Picture,Image,FullPathName,FilePath,Practice_Trials.thisRepN,Practice_Trials.thisTrialN,Practice_Trials.thisN,Practice_Trials.thisIndex,trials.thisRepN,trials.thisTrialN,trials.thisN,trials.thisIndex,trials_2.thisRepN,trials_2.thisTrialN,trials_2.thisN,trials_2.thisIndex,Practice_Ins.started,Practice_Ins.stopped,End_Prac_Ins.keys,End_Prac_Ins.rt,End_Prac_Ins.started,End_Prac_Ins.stopped,text_2.started,text_2.stopped,Fixation_Cross_2.started,Fixation_Cross_2.stopped,Rapid_Image_Present_2.started,Rapid_Image_Present_2.stopped,key_resp.keys,key_resp.rt,key_resp.started,key_resp.stopped,T1Response_2.started,T1Response_2.stopped,T2Response_2.started,T2Response_2.stopped,key_resp_4.keys,key_resp_4.rt,key_resp_4.started,key_resp_4.stopped,text.started,text.stopped,End_Instructions.keys,End_Instructions.rt,End_Instructions.started,End_Instructions.stopped,text_5.started,text_5.stopped,FC.started,FC.stopped,Rapid_Image_Present.started,Rapid_Image_Present.stopped,T1Response.started,T1Response.stopped,key_resp_2.keys,key_resp_2.rt,key_resp_2.started,key_resp_2.stopped,T2Response.started,T2Response.stopped,key_resp_3.keys,key_resp_3.rt,key_resp_3.started,key_resp_3.stopped,text_6.started,text_6.stopped,Fin_ins.keys,Fin_ins.rt,Fin_ins.started,Fin_ins.stopped,MemTest.started,MemTest.stopped,MemResponse.keys,MemResponse.rt,MemResponse.started,MemResponse.stopped,Display.started,Display.stopped,text_7.started,text_7.stopped,endOfExperiment.started,endOfExperiment.stopped,key_resp_5.keys,key_resp_5.rt,key_resp_5.started,key_resp_5.stopped,participant,session,date,expName,psychopyVersion,frameRate,
,,,,,,,,,,,,,,,,,,,,,,,,,,,,,,,,,,,,,,,,,,,,,,,,,,,,12.10939610004425,None,space,33.46363310003653,12.10939610004425,None,,,,,,,,,,,,,,,,,,,,,,,,,,,,,,,,,,,,,,,,,,,,,,,,,,,,,,,,,,,,,,,,,PPT35,001,2022-07-06_09h03.35.813,ABstudy,2022.1.4,59.952865061510394,
AB_Prac,Lag5_T1P_T2P,5,P,P,5,10,4,5,15,washing machine,Did you see the washing machine?,0.5,0.016,JPG\,waterbottle03,wheel01,flashlight02b,zucchini01,washingmachine,headphones02b,nutcracker01,paintroller01,paperclip03,stapler06,ribbon04,electricrazor,bottleofredwine01,pitabread,pot02a,blankImage,blankImage,washingmachine,,,,,,,,0,0,0,4,,,,,,,,,,,,,,,45.656488300068304,46.664169700001366,46.64758069999516,47.276942200027406,47.276942200027406,None,right,1.630532400100492,54.87100690009538,None,54.87100690009538,None,56.524068400030956,None,left,1.0244657000293955,56.524068400030956,None,,,,,,,,,,,,,,,,,,,,,,,,,,,,,,,,,,,,,,,,,,,,,,,PPT35,001,2022-07-06_09h03.35.813,ABstudy,2022.1.4,59.952865061510394,
AB_Prac,Lag5_T1P_T2A,5,P,A,6,11,5,5,16,Wheat,Did you see the Wheat?,0.5,0.016,JPG\,bottleopener01,dentalfloss03b,cooler01,icecreamcone01a,paperclip01b,wheat,pencilsharpener02a,plasticbasket01a,toycar04,apricot,hairclip02,rock01a,honeydewmelon,antenna,blackberry,cardboardbox,blankImage,wheat,,,,,,,,0,1,1,7,,,,,,,,,,,,,,,57.58238989999518,58.59270560008008,58.576432100031525,59.15660600003321,59.15660600003321,None,left,1.0716249999823049,67.15783000004012,None,67.15783000004012,None,68.25209680001717,None,right,0.8337141999509186,68.25209680001717,None,,,,,,,,,,,,,,,,,,,,,,,,,,,,,,,,,,,,,,,,,,,,,,,PPT35,001,2022-07-06_09h03.35.813,ABstudy,2022.1.4,59.952865061510394,
AB_Prac,Lag5_T1P_T2A,5,P,A,6,11,5,5,16,bread,Did you see the bread?,0.5,0.016,JPG\,cleaver01,clipboard,dustpan,hikingshoe01,notebook03a,baguette01,playingcard,pliers02b,styrofoamcup,rollingpin01a,swimgoggles,wineglass01,fryingpan02a,safetypin,syringe01,thimble,blankImage,baguette01,,,,,,,,0,2,2,8,,,,,,,,,,,,,,,69.10696980007924,70.12063340004534,70.10394250007812,70.68803220009431,70.68803220009431,None,left,1.0734660000307485,78.73095630004536,None,78.73095630004536,None,79.8303630000446,None,right,0.6229655001079664,79.8303630000446,None,,,,,,,,,,,,,,,,,,,,,,,,,,,,,,,,,,,,,,,,,,,,,,,PPT35,001,2022-07-06_09h03.35.813,ABstudy,2022.1.4,59.952865061510394,
AB_Prac,Lag1_T1P_T2P,1,P,P,8,9,7,5,14,Tennis racket,Did you see the Tennis racket?,0.5,0.016,JPG\,coconut,computermouse06,croissant01,deodorant02a,pillow01a,peanut01,boot02b,tennisracket,stapler03b,crayon,eggplant,marker01a,plant01,radish01,blankImage,blankImage,blankImage,tennisracket,,,,,,,,0,3,3,0,,,,,,,,,,,,,,,80.48612670006696,81.49864340003114,81.48196610005107,82.09517810004763,82.09517810004763,None,left,0.8491523999255151,89.09985970007256,None,89.09985970007256,None,89.97385820001364,None,left,0.6956047000130638,89.97385820001364,None,,,,,,,,,,,,,,,,,,,,,,,,,,,,,,,,,,,,,,,,,,,,,,,PPT35,001,2022-07-06_09h03.35.813,ABstudy,2022.1.4,59.952865061510394,
AB_Prac,Lag5_T1A_T2A,5,A,A,6,11,5,5,16,castle,Did you see the castle?,0.5,0.016,JPG\,tape02a,englishmuffin,flask,ladle02a,monitor,peach01,keychain,squeegee01b,telephone01b,whisk,walkman,syringe02,baguette01,coaster,box01a,coffeepot03a,blankImage,None,,,,,,,,0,4,4,11,,,,,,,,,,,,,,,90.6942502000602,91.7090170000447,91.69211380009074,92.27366120007355,92.27366120007355,None,right,1.2199255999876186,100.28927670000121,None,100.28927670000121,None,101.53548270009924,None,right,1.1411619998980314,101.53548270009924,None,,,,,,,,,,,,,,,,,,,,,,,,,,,,,,,,,,,,,,,,,,,,,,,PPT35,001,2022-07-06_09h03.35.813,ABstudy,2022.1.4,59.952865061510394,
AB_Prac,Lag1_T1P_T2A,1,P,A,5,6,4,5,11,Webcam,Did you see the Webcam?,0.5,0.016,JPG\,pictureframe04,binder03b,straw,adjustablewrench01b,webcam,cane,hairdryer02a,icepack,kitchenscale01a,lifejacket,piggybank,blankImage,blankImage,blankImage,blankImage,blankImage,blankImage,webcam,,,,,,,,0,5,5,6,,,,,,,,,,,,,,,102.70704700006172,103.72114780009724,103.704364300007,104.29367180005647,104.29367180005647,None,left,1.4203711999580264,109.83212190004997,None,109.83212190004997,None,111.27847420005128,None,right,0.6219605000223964,111.27847420005128,None,,,,,,,,,,,,,,,,,,,,,,,,,,,,,,,,,,,,,,,,,,,,,,,PPT35,001,2022-07-06_09h03.35.813,ABstudy,2022.1.4,59.952865061510394,
AB_Prac,Lag1_T1P_T2A,1,P,A,8,9,7,5,14,flower,Did you see the flower?,0.5,0.016,JPG\,razor01,axe01,binder03b,bowl01,kettle01,lettuce,lime,plasticflower01b,mitten04,pencilcase01,plunger02,strawbasket01,toothpick02,wallet02a,blankImage,blankImage,blankImage,plasticflower01b,,,,,,,,0,6,6,5,,,,,,,,,,,,,,,111.93950690003112,112.94893740001135,112.93013790005352,113.5183952000225,113.5183952000225,None,left,0.9266482000239193,120.53424990002532,None,120.53424990002532,None,121.48860330006573,None,right,0.4841993999434635,121.48860330006573,None,,,,,,,,,,,,,,,,,,,,,,,,,,,,,,,,,,,,,,,,,,,,,,,PPT35,001,2022-07-06_09h03.35.813,ABstudy,2022.1.4,59.952865061510394,
AB_Prac,Lag1_T1P_T2P,1,P,P,6,7,5,5,12,triangle,Did you see the triangle?,0.5,0.016,JPG\,ginger,mousetrap,plum01,slipper01b,dropper01,triangle,stapler04b,pants,raspberry01,rope03,scale01a,vase01,blankImage,blankImage,blankImage,blankImage,blankImage,triangle,,,,,,,,0,7,7,1,,,,,,,,,,,,,,,121.99316770001315,123.00679420004599,122.99009450001176,123.57592550001573,123.57592550001573,None,left,1.492657299968414,129.60064980003517,None,129.60064980003517,None,131.11502050003037,None,right,0.5934295000042766,131.11502050003037,None,,,,,,,,,,,,,,,,,,,,,,,,,,,,,,,,,,,,,,,,,,,,,,,PPT35,001,2022-07-06_09h03.35.813,ABstudy,2022.1.4,59.952865061510394,
AB_Prac,Lag5_T1P_T2P,5,P,P,7,12,6,3,15,vacuum,Did you see the vacuum?,0.5,0.016,JPG\,fork07b,lightbulb01,manshoe,saw02b,shoelace,soap03a,vacuumcleaner01,floortile01,necklace,doll,cabbage,stapler03a,hanger02a,laptop01a,nailpolish03b,blankImage,blankImage,vacuumcleaner01,,,,,,,,0,8,8,2,,,,,,,,,,,,,,,131.74264060007408,132.74988640006632,132.73326980008278,133.3144526000833,133.3144526000833,None,left,0.6231332999886945,140.85393910005223,None,140.85393910005223,None,141.50847610004712,None,left,0.43261030002031475,141.50847610004712,None,,,,,,,,,,,,,,,,,,,,,,,,,,,,,,,,,,,,,,,,,,,,,,,PPT35,001,2022-07-06_09h03.35.813,ABstudy,2022.1.4,59.952865061510394,
AB_Prac,Lag5_T1A_T2P,5,A,P,6,11,5,3,14,dog,Did you see the dog?,0.5,0.016,JPG\,bucket01a,doorlock,cookiecutter,fireextinguisher01,gluestick,highlighter02b,sportbag,spraybottle01,suitcase,thread02,stapler05,walnut01c,icecubetray01a,vikingmask01b,blankImage,blankImage,blankImage,None,,,,,,,,0,9,9,9,,,,,,,,,,,,,,,141.9739949000068,142.976571300067,142.9432117000688,143.5401538000442,143.5401538000442,None,left,1.4478031999897212,150.58110880001914,None,150.58110880001914,None,152.05343880003784,None,right,0.6153680999996141,152.05343880003784,None,,,,,,,,,,,,,,,,,,,,,,,,,,,,,,,,,,,,,,,,,,,,,,,PPT35,001,2022-07-06_09h03.35.813,ABstudy,2022.1.4,59.952865061510394,
AB_Prac,Lag1_T1A_T2A,1,A,A,8,9,7,3,12,Moose,Did you see the Moose?,0.5,0.016,JPG\,clothespin03b,corkscrew03a,drillbit03a,fusilli03a,needlenosepliers01,perfume01a,pistachio,scrubbingbrush05b,spatula03,toothpastetube,hinge,toydinosaur,blankImage,blankImage,blankImage,blankImage,blankImage,None,,,,,,,,0,10,10,10,,,,,,,,,,,,,,,152.69668210006785,153.70374560006894,153.68699280009605,154.26518170000054,154.26518170000054,None,left,1.1885614999337122,160.27239719999488,None,160.27239719999488,None,161.4796463000821,None,left,0.5092795999953523,161.4796463000821,None,,,,,,,,,,,,,,,,,,,,,,,,,,,,,,,,,,,,,,,,,,,,,,,PPT35,001,2022-07-06_09h03.35.813,ABstudy,2022.1.4,59.952865061510394,
AB_Prac,Lag5_T1P_T2P,5,P,P,5,10,4,5,15,Vulture,Did you see the Vulture?,0.5,0.016,JPG\,shorts01,toast,ramekin01,bib,vulture,cracker02,date,glasses01a,hat03b,stapler01,measuringtape01,nail,pill,drum01,starfish01,blankImage,blankImage,vulture,,,,,,,,0,11,11,3,,,,,,,,,,,,,,,162.01253110007383,163.01374930003658,162.99704090005253,163.5977727000136,163.5977727000136,None,left,1.1026191000128165,171.16624080005568,None,171.16624080005568,None,172.29034120007418,None,left,0.4018176000099629,172.29034120007418,None,,,,,,,,,,,,,,,,,,,,,,,,,,,,,,,,,,,,,,,,,,,,,,,PPT35,001,2022-07-06_09h03.35.813,ABstudy,2022.1.4,59.952865061510394,
,,,,,,,,,,,,,,,,,,,,,,,,,,,,,,,,,,,,,,,,,,,,,,,,,,,,,,,,,,,,,,,,,,,,,,,,,,,,172.72498980001546,None,space,10.823910099919885,172.72498980001546,None,,,,,,,,,,,,,,,,,,,,,,,,,,,,,,,,,,,,,,,,,PPT35,001,2022-07-06_09h03.35.813,ABstudy,2022.1.4,59.952865061510394,
AB,Lag1_T1P_T2A,1,P,A,7,8,6,3,11,Seagull,Did you see the Seagull?,0.12,0.016,JPG\,toiletpaper01a,mushroom01,medal02b,sandal,rice,cd,seagull,pizza,candle08b,garlic01a,toaster01,blankImage,blankImage,blankImage,blankImage,blankImage,blankImage,seagull,,,,,,,,,,,,0,0,0,176,,,,,,,,,,,,,,,,,,,,,,,,,,,,,,,,,,,184.2153685000958,185.21843010000885,185.20170520001557,185.86563590005971,185.86563590005971,None,187.18606320000254,None,left,0.8747414000099525,187.18606320000254,None,188.0883706000168,None,right,0.3640340999700129,188.0883706000168,None,,,,,,,,,,,,,,,,,,,,,,,PPT35,001,2022-07-06_09h03.35.813,ABstudy,2022.1.4,59.952865061510394,
AB,Lag1_T1A_T2P,1,A,P,7,8,6,5,13,Horseshoe,Did you see the Horseshoe?,0.12,0.016,JPG\,leaf02a,apple07,cd,pineapple01a,envelope03a,paintbrush01,pig,stapler06,rice,feather03a,lemon02,balloon01b,avocado01,blankImage,blankImage,blankImage,blankImage,rooster,,,,,,,,,,,,0,1,1,241,,,,,,,,,,,,,,,,,,,,,,,,,,,,,,,,,,,188.47499900008552,189.48966310010292,189.4730878000846,190.05337040009908,190.05337040009908,None,191.673116400023,None,left,1.2114289000164717,191.673116400023,None,192.9097952999873,None,right,0.39080539997667074,192.9097952999873,None,,,,,,,,,,,,,,,,,,,,,,,PPT35,001,2022-07-06_09h03.35.813,ABstudy,2022.1.4,59.952865061510394,
AB,Lag5_T1P_T2P,5,P,P,7,12,6,5,17,truck,Did you see the truck?,0.12,0.016,JPG\,binoculars01b,speaker04,sandal,envelope03a,plate01b,comb02a,boxtruck,chain01,measuringcup01,key01,medal02b,stapler05,tennisball01b,pizza,cigarette,sunglasses04,blankImage,boxtruck,,,,,,,,,,,,0,2,2,166,,,,,,,,,,,,,,,,,,,,,,,,,,,,,,,,,,,193.3323914000066,194.34469180007,194.32780740002636,194.89965260005556,194.89965260005556,None,196.82566020009108,None,left,1.9152443999191746,196.82566020009108,None,198.76531100005377,None,left,0.43972379993647337,198.76531100005377,None,,,,,,,,,,,,,,,,,,,,,,,PPT35,001,2022-07-06_09h03.35.813,ABstudy,2022.1.4,59.952865061510394,
AB,Lag5_T1P_T2P,5,P,P,5,10,4,5,15,penguin,Did you see the penguin?,0.12,0.016,JPG\,watermelon01,cigarette,pintofbeer,cymbal,penguin,feather03a,cherry01,broom01,battery02b,stapler05,baseball01a,iron01b,garlic01a,computerkeyboard02,pig,blankImage,blankImage,penguin,,,,,,,,,,,,0,3,3,137,,,,,,,,,,,,,,,,,,,,,,,,,,,,,,,,,,,199.23486520000733,200.25036569999065,200.21706540009473,200.8090463000117,200.8090463000117,None,202.5361182000488,None,left,1.1406376999802887,202.5361182000488,None,203.70387470000423,None,left,0.3480796000221744,203.70387470000423,None,,,,,,,,,,,,,,,,,,,,,,,PPT35,001,2022-07-06_09h03.35.813,ABstudy,2022.1.4,59.952865061510394,
AB,Lag5_T1P_T2P,5,P,P,6,11,5,4,15,boxing glove,Did you see the boxing glove?,0.12,0.016,JPG\,button01,celery,birthdaycandle,apple07,avocado01,boxingglove01,dice05a,teabag,clock01a,feather03a,stapler06,scarf,orange,battery02b,thermometer02b,blankImage,blankImage,boxingglove01,,,,,,,,,,,,0,4,4,165,,,,,,,,,,,,,,,,,,,,,,,,,,,,,,,,,,,204.0817345000105,205.08864960004576,205.07189840008505,205.65667210007086,205.65667210007086,None,207.55309980001766,None,left,1.2275643000612035,207.55309980001766,None,208.80879830010235,None,left,0.27616619993932545,208.80879830010235,None,,,,,,,,,,,,,,,,,,,,,,,PPT35,001,2022-07-06_09h03.35.813,ABstudy,2022.1.4,59.952865061510394,
AB,Lag1_T1P_T2P,1,P,P,7,8,6,4,12,skunk,Did you see the skunk?,0.12,0.016,JPG\,fan,tomato01,candy,screwdriver04b,alligator,cd,skunk,stapler03b,button01,plate01b,brownsugar,lighter01,blankImage,blankImage,blankImage,blankImage,blankImage,skunk,,,,,,,,,,,,0,5,5,48,,,,,,,,,,,,,,,,,,,,,,,,,,,,,,,,,,,209.11138060002122,210.12673260003794,210.09336950001307,210.6824197000824,210.6824197000824,None,212.15735910006333,None,left,0.5110793999629095,212.15735910006333,None,212.69588340003975,None,left,0.2290455000475049,212.69588340003975,None,,,,,,,,,,,,,,,,,,,,,,,PPT35,001,2022-07-06_09h03.35.813,ABstudy,2022.1.4,59.952865061510394,
AB,Lag1_T1P_T2P,1,P,P,7,8,6,4,12,Christmas Tree,Did you see the Christmas Tree?,0.12,0.016,JPG\,sandal,fan,printer02,cellphone,mushroom01,candle08b,firtree,stapler03a,lamp04a,hammer01,teabag,aceofdiamond,blankImage,blankImage,blankImage,blankImage,blankImage,firtree,,,,,,,,,,,,0,6,6,6,,,,,,,,,,,,,,,,,,,,,,,,,,,,,,,,,,,212.95657080004457,213.96413840004243,213.94747790007386,214.53631890006363,214.53631890006363,None,216.05358890001662,None,right,1.2872244999743998,216.05358890001662,None,217.36726530001033,None,left,0.3494024999672547,217.36726530001033,None,,,,,,,,,,,,,,,,,,,,,,,PPT35,001,2022-07-06_09h03.35.813,ABstudy,2022.1.4,59.952865061510394,
AB,Lag1_T1P_T2P,1,P,P,6,7,5,5,12,bat,Did you see the bat?,0.12,0.016,JPG\,comb02a,key01,medal02b,battery02b,lighter01,bat,stapler05,sandal,pig,cellphone,computerkeyboard02,calculator01,blankImage,blankImage,blankImage,blankImage,blankImage,bat,,,,,,,,,,,,0,7,7,35,,,,,,,,,,,,,,,,,,,,,,,,,,,,,,,,,,,217.73686040006578,218.7519561999943,218.7186331000412,219.29967710003257,219.29967710003257,None,220.77033420000225,None,left,0.5218890000833198,220.77033420000225,None,221.32145749998745,None,left,0.427695200080052,221.32145749998745,None,,,,,,,,,,,,,,,,,,,,,,,PPT35,001,2022-07-06_09h03.35.813,ABstudy,2022.1.4,59.952865061510394,
AB,Lag5_T1A_T2A,5,A,A,7,12,6,3,15,Christmas lights,Did you see the Christmas lights?,0.12,0.016,JPG\,toiletpaper01a,mushroom01,medal02b,sandal,rice,cd,feather03a,pizza,candle08b,garlic01a,toaster01,belt02a,cigarette,violin,lemon02,blankImage,blankImage,rockbass,,,,,,,,,,,,0,8,8,299,,,,,,,,,,,,,,,,,,,,,,,,,,,,,,,,,,,221.78055630007293,222.7898409999907,222.77324560005218,223.36829970008694,223.36829970008694,None,225.25690250005573,None,right,0.8915466000325978,225.25690250005573,None,226.17624150007032,None,right,0.3243205000180751,226.17624150007032,None,,,,,,,,,,,,,,,,,,,,,,,PPT35,001,2022-07-06_09h03.35.813,ABstudy,2022.1.4,59.952865061510394,
AB,Lag1_T1P_T2P,1,P,P,5,6,4,3,9,elephant,Did you see the elephant?,0.12,0.016,JPG\,celery,brownsugar,key01,sunglasses04,arugula,stapler04b,dice05a,tennisball01b,scarf,blankImage,blankImage,blankImage,blankImage,blankImage,blankImage,blankImage,blankImage,arugula,,,,,,,,,,,,0,9,9,54,,,,,,,,,,,,,,,,,,,,,,,,,,,,,,,,,,,226.5323411000427,227.5442373000551,227.52756790001877,228.13322220009286,228.13322220009286,None,229.218698300072,None,left,1.0494273999938741,229.218698300072,None,230.29691919998731,None,right,0.26024580001831055,230.29691919998731,None,,,,,,,,,,,,,,,,,,,,,,,PPT35,001,2022-07-06_09h03.35.813,ABstudy,2022.1.4,59.952865061510394,
AB,Lag1_T1P_T2A,1,P,A,5,6,4,5,11,Toaster oven,Did you see the Toaster oven?,0.12,0.016,JPG\,fork03c,toothbrush03b,cellphone,fan,toasteroven,clock01a,ring01,eraser,sunglasses04,thermometer02b,violin,blankImage,blankImage,blankImage,blankImage,blankImage,blankImage,toasteroven,,,,,,,,,,,,0,10,10,200,,,,,,,,,,,,,,,,,,,,,,,,,,,,,,,,,,,230.5877196000656,231.59853250009473,231.58180740009993,232.17200860008597,232.17200860008597,None,233.5195191000821,None,left,1.100485699949786,233.5195191000821,None,234.6513601000188,None,right,0.5690630000317469,234.6513601000188,None,,,,,,,,,,,,,,,,,,,,,,,PPT35,001,2022-07-06_09h03.35.813,ABstudy,2022.1.4,59.952865061510394,
AB,Lag1_T1P_T2A,1,P,A,5,6,4,5,11,Electric toothbrush,Did you see the Electric toothbrush?,0.12,0.016,JPG\,carrot01,greenolive,fork03c,chain01,electrictoothbrush01c,watermelon01,tableknife02,printer02,comb02a,toaster01,orange,blankImage,blankImage,blankImage,blankImage,blankImage,blankImage,electrictoothbrush01c,,,,,,,,,,,,0,11,11,186,,,,,,,,,,,,,,,,,,,,,,,,,,,,,,,,,,,235.2609400000656,236.26973759999964,236.25297090003733,236.82726030005142,236.82726030005142,None,238.2087193999905,None,left,0.9315957999788225,238.2087193999905,None,239.1722799000563,None,right,0.3199128000997007,239.1722799000563,None,,,,,,,,,,,,,,,,,,,,,,,PPT35,001,2022-07-06_09h03.35.813,ABstudy,2022.1.4,59.952865061510394,
AB,Lag5_T1P_T2P,5,P,P,5,10,4,5,15,Ipad,Did you see the Ipad?,0.12,0.016,JPG\,fork03c,toothbrush03b,cellphone,fan,ipad02,clock01a,ring01,eraser,sunglasses04,stapler06,violin,brownsugar,blueberry01,pear01,pencil01,blankImage,blankImage,ipad02,,,,,,,,,,,,0,12,12,150,,,,,,,,,,,,,,,,,,,,,,,,,,,,,,,,,,,239.52673700009473,240.54067040001974,240.52396590006538,241.1012637000531,241.1012637000531,None,242.93569910002407,None,right,1.3807725000660866,242.93569910002407,None,244.34423680009786,None,right,0.2521580000175163,244.34423680009786,None,,,,,,,,,,,,,,,,,,,,,,,PPT35,001,2022-07-06_09h03.35.813,ABstudy,2022.1.4,59.952865061510394,
AB,Lag5_T1A_T2P,5,A,P,7,12,6,5,17,funnel,Did you see the funnel?,0.12,0.016,JPG\,iron01b,orange,birthdaycandle,potato02b,cauliflower01,pencil01,key01,candle08b,celery,tableknife02,pen04b,stapler04b,ring01,rice,lemon02,tomato01,blankImage,englishcucumber,,,,,,,,,,,,0,13,13,259,,,,,,,,,,,,,,,,,,,,,,,,,,,,,,,,,,,244.63279410009272,245.6451318000909,245.62878970010206,246.2078100000508,246.2078100000508,None,248.23026340000797,None,left,0.8708660000702366,248.23026340000797,None,249.132877200027,None,right,0.2628862999845296,249.132877200027,None,,,,,,,,,,,,,,,,,,,,,,,PPT35,001,2022-07-06_09h03.35.813,ABstudy,2022.1.4,59.952865061510394,
AB,Lag5_T1P_T2P,5,P,P,6,11,5,5,16,Car,Did you see the Car?,0.12,0.016,JPG\,leaf02a,apple07,cd,pineapple01a,envelope03a,car,pig,canoftennisballs,rice,feather03a,stapler03a,balloon01b,avocado01,calculator01,watermelon01,teabag,blankImage,car,,,,,,,,,,,,0,14,14,127,,,,,,,,,,,,,,,,,,,,,,,,,,,,,,,,,,,249.42765040008817,250.43406580004375,250.4174564999994,251.04684570000973,251.04684570000973,None,252.95763349998742,None,left,0.9661489999853075,252.95763349998742,None,253.9539020000957,None,left,0.3461096999235451,253.9539020000957,None,,,,,,,,,,,,,,,,,,,,,,,PPT35,001,2022-07-06_09h03.35.813,ABstudy,2022.1.4,59.952865061510394,
AB,Lag1_T1P_T2P,1,P,P,5,6,4,4,10,skateboard,Did you see the skateboard?,0.12,0.016,JPG\,binoculars01b,cymbal,pizza,candy,skateboard,stapler05,grape01,thermometer02b,speaker04,lemon02,blankImage,blankImage,blankImage,blankImage,blankImage,blankImage,blankImage,skateboard,,,,,,,,,,,,0,15,15,25,,,,,,,,,,,,,,,,,,,,,,,,,,,,,,,,,,,254.3251675000647,255.33844369999133,255.32200010004453,255.8945142000448,255.8945142000448,None,257.1276241000742,None,left,1.3087595999240875,257.1276241000742,None,258.45834420004394,None,right,0.393839200027287,258.45834420004394,None,,,,,,,,,,,,,,,,,,,,,,,PPT35,001,2022-07-06_09h03.35.813,ABstudy,2022.1.4,59.952865061510394,
AB,Lag5_T1P_T2P,5,P,P,7,12,6,4,16,Bird feeder,Did you see the Bird feeder?,0.12,0.016,JPG\,watermelon01,banana01,ring01,pencil01,tomato01,speaker04,birdfeeder,thermometer02b,key01,foosballtable,violin,stapler06,clock04,dice05a,pen04b,mushroom01,blankImage,birdfeeder,,,,,,,,,,,,0,16,16,164,,,,,,,,,,,,,,,,,,,,,,,,,,,,,,,,,,,258.88610310002696,259.8930793000618,259.87651730002835,260.47489539999515,260.47489539999515,None,262.37881610007025,None,left,1.00917199999094,262.37881610007025,None,263.4133290000027,None,left,0.4069014999549836,263.4133290000027,None,,,,,,,,,,,,,,,,,,,,,,,PPT35,001,2022-07-06_09h03.35.813,ABstudy,2022.1.4,59.952865061510394,
AB,Lag1_T1P_T2P,1,P,P,5,6,4,5,11,Basketball,Did you see the Basketball?,0.12,0.016,JPG\,pencil01,microscope,banana01,computerkeyboard02,basketball01,stapler04b,scissors01,sock01a,book01b,onion,dice05a,blankImage,blankImage,blankImage,blankImage,blankImage,blankImage,basketball01,,,,,,,,,,,,0,17,17,34,,,,,,,,,,,,,,,,,,,,,,,,,,,,,,,,,,,263.91031420009676,264.91489680006634,264.89757989998907,265.48457299999427,265.48457299999427,None,266.80669770005625,None,left,0.7816310999915004,266.80669770005625,None,267.6174874000717,None,left,0.28310559992678463,267.6174874000717,None,,,,,,,,,,,,,,,,,,,,,,,PPT35,001,2022-07-06_09h03.35.813,ABstudy,2022.1.4,59.952865061510394,
AB,Lag1_T1A_T2A,1,A,A,5,6,4,4,10,rose,Did you see the rose?,0.12,0.016,JPG\,sock01a,spoon01,alligator,comb02a,printer02,medal02b,lamp04a,cymbal,greenolive,computerkeyboard02,blankImage,blankImage,blankImage,blankImage,blankImage,blankImage,blankImage,cruiseship,,,,,,,,,,,,0,18,18,293,,,,,,,,,,,,,,,,,,,,,,,,,,,,,,,,,,,267.92100480000954,268.93550930009224,268.9020084000658,269.47745680005755,269.47745680005755,None,270.6891463000793,None,right,0.9315165999578312,270.6891463000793,None,271.6379853000399,None,right,0.2947091000387445,271.6379853000399,None,,,,,,,,,,,,,,,,,,,,,,,PPT35,001,2022-07-06_09h03.35.813,ABstudy,2022.1.4,59.952865061510394,
AB,Lag1_T1P_T2P,1,P,P,8,9,7,5,14,lawn mower,Did you see the lawn mower?,0.12,0.016,JPG\,battery02b,sunglasses04,pear01,tennisball01b,clock01a,speaker04,binoculars01b,lawnmower,stapler05,pineapple01a,avocado01,grape01,blueberry01,violin,blankImage,blankImage,blankImage,lawnmower,,,,,,,,,,,,0,19,19,46,,,,,,,,,,,,,,,,,,,,,,,,,,,,,,,,,,,272.00706730003003,273.0226789000444,273.0059751000954,273.5914937000489,273.5914937000489,None,275.2032290000934,None,left,0.8408804999198765,275.2032290000934,None,276.0757334000664,None,right,0.35349330003373325,276.0757334000664,None,,,,,,,,,,,,,,,,,,,,,,,PPT35,001,2022-07-06_09h03.35.813,ABstudy,2022.1.4,59.952865061510394,
AB,Lag1_T1P_T2A,1,P,A,7,8,6,4,12,gate,Did you see the gate?,0.12,0.016,JPG\,pen04b,speaker04,lighter01,cherry01,pintofbeer,onion,entrancegate,toothbrush03b,broom01,sewingmachine01a,book01b,iron01b,blankImage,blankImage,blankImage,blankImage,blankImage,entrancegate,,,,,,,,,,,,0,20,20,187,,,,,,,,,,,,,,,,,,,,,,,,,,,,,,,,,,,276.4746583000524,277.47716470004525,277.44378480000887,278.0209194000345,278.0209194000345,None,279.4722009000834,None,right,2.0435336999362335,279.4722009000834,None,281.5481105000945,None,right,0.3607013000873849,281.5481105000945,None,,,,,,,,,,,,,,,,,,,,,,,PPT35,001,2022-07-06_09h03.35.813,ABstudy,2022.1.4,59.952865061510394,
AB,Lag1_T1P_T2P,1,P,P,6,7,5,5,12,owl,Did you see the owl?,0.12,0.016,JPG\,paintbrush01,eraser,medal02b,hammer01,speaker04,greathornowl,stapler01,comb02a,plate01b,clock01a,button01,globe,blankImage,blankImage,blankImage,blankImage,blankImage,greathornowl,,,,,,,,,,,,0,21,21,1,,,,,,,,,,,,,,,,,,,,,,,,,,,,,,,,,,,281.9363456000574,282.9490917000221,282.93235040002037,283.503580300021,283.503580300021,None,284.9663198000053,None,left,1.4298045000759885,284.9663198000053,None,286.41955460002646,None,right,0.3202279000543058,286.41955460002646,None,,,,,,,,,,,,,,,,,,,,,,,PPT35,001,2022-07-06_09h03.35.813,ABstudy,2022.1.4,59.952865061510394,
AB,Lag5_T1P_T2P,5,P,P,5,10,4,3,13,bathtub,Did you see the bathtub?,0.12,0.016,JPG\,belt02a,sunglasses04,computerkeyboard02,cherry01,bathtub,eraser,watch02a,dice05a,blueberry01,stapler04b,match,leaf02a,iron01b,blankImage,blankImage,blankImage,blankImage,bathtub,,,,,,,,,,,,0,22,22,103,,,,,,,,,,,,,,,,,,,,,,,,,,,,,,,,,,,286.77031870000064,287.7706793000689,287.7541785000358,288.3724661000306,288.3724661000306,None,289.9510089000687,None,left,2.260734900017269,289.9510089000687,None,292.2419676000718,None,right,0.2820687999483198,292.2419676000718,None,,,,,,,,,,,,,,,,,,,,,,,PPT35,001,2022-07-06_09h03.35.813,ABstudy,2022.1.4,59.952865061510394,
AB,Lag1_T1A_T2P,1,A,P,8,9,7,4,13,Fireplace,Did you see the Fireplace?,0.12,0.016,JPG\,scissors01,ashtray01,garlic01a,medal02b,cigarette,candle08b,leaf02a,envelope03a,stapler06,rice,toiletpaper01a,greenolive,cymbal,blankImage,blankImage,blankImage,blankImage,dartboard,,,,,,,,,,,,0,23,23,252,,,,,,,,,,,,,,,,,,,,,,,,,,,,,,,,,,,292.59877280006185,293.6100431000814,293.5933593000518,294.17055690009147,294.17055690009147,None,295.6169433000032,None,right,1.251041500014253,295.6169433000032,None,296.896454700036,None,right,0.5236453000688925,296.896454700036,None,,,,,,,,,,,,,,,,,,,,,,,PPT35,001,2022-07-06_09h03.35.813,ABstudy,2022.1.4,59.952865061510394,
AB,Lag1_T1P_T2A,1,P,A,8,9,7,4,13,boat,Did you see the boat?,0.12,0.016,JPG\,fork03c,dandelion,dice05a,belt02a,onion,watch02a,key01,boat,eraser,medal02b,greenolive,shirt02,candle08b,blankImage,blankImage,blankImage,blankImage,boat,,,,,,,,,,,,0,24,24,199,,,,,,,,,,,,,,,,,,,,,,,,,,,,,,,,,,,297.4621146999998,298.4646830999991,298.43134580005426,299.00075490004383,299.00075490004383,None,300.6644085000735,None,left,2.339628499932587,300.6644085000735,None,303.036042700056,None,right,0.5041078999638557,303.036042700056,None,,,,,,,,,,,,,,,,,,,,,,,PPT35,001,2022-07-06_09h03.35.813,ABstudy,2022.1.4,59.952865061510394,
AB,Lag5_T1P_T2P,5,P,P,8,13,7,5,18,skis,Did you see the skis?,0.12,0.016,JPG\,tennisball01b,paintbrush01,medal02b,apple07,speaker04,iron01b,avocado01,downhillski,belt02a,toiletpaper01a,watermelon01,candle01,stapler01,cymbal,ashtray01,screwdriver04b,blankImage,downhillski,,,,,,,,,,,,0,25,25,106,,,,,,,,,,,,,,,,,,,,,,,,,,,,,,,,,,,303.57282440003473,304.58799820009153,304.55461440002546,305.14496480009984,305.14496480009984,None,307.05931879999116,None,left,1.2963702999986708,307.05931879999116,None,308.37475379998796,None,right,0.476743399980478,308.37475379998796,None,,,,,,,,,,,,,,,,,,,,,,,PPT35,001,2022-07-06_09h03.35.813,ABstudy,2022.1.4,59.952865061510394,
AB,Lag1_T1P_T2P,1,P,P,8,9,7,3,12,apron,Did you see the apron?,0.12,0.016,JPG\,avocado01,tambourine02,match,cauliflower01,paintbrush01,clock01a,pig,apron,stapler03a,cellphone,watch02a,pear01,blankImage,blankImage,blankImage,blankImage,blankImage,apron,,,,,,,,,,,,0,26,26,32,,,,,,,,,,,,,,,,,,,,,,,,,,,,,,,,,,,308.8750023000175,309.8761865000706,309.8595396000892,310.4804383000592,310.4804383000592,None,311.93548850005027,None,left,1.1324442999903113,311.93548850005027,None,313.096568100038,None,right,0.30759300000499934,313.096568100038,None,,,,,,,,,,,,,,,,,,,,,,,PPT35,001,2022-07-06_09h03.35.813,ABstudy,2022.1.4,59.952865061510394,
AB,Lag5_T1P_T2P,5,P,P,5,10,4,4,14,Salt shaker,Did you see the Salt shaker?,0.12,0.016,JPG\,fork03c,belt02a,grape01,computerkeyboard02,saltshaker03a,printer02,broom01,toiletpaper01a,toaster01,stapler01,book01b,blueberry01,spoon01,apple07,blankImage,blankImage,blankImage,saltshaker03a,,,,,,,,,,,,0,27,27,96,,,,,,,,,,,,,,,,,,,,,,,,,,,,,,,,,,,313.43822510004975,314.4472770000575,314.4305998000782,315.02622210001573,315.02622210001573,None,316.70738660008647,None,left,0.8725646999664605,316.70738660008647,None,317.60066180001013,None,right,0.36365890002343804,317.60066180001013,None,,,,,,,,,,,,,,,,,,,,,,,PPT35,001,2022-07-06_09h03.35.813,ABstudy,2022.1.4,59.952865061510394,
AB,Lag5_T1A_T2P,5,A,P,7,12,6,4,16,hand,Did you see the hand?,0.12,0.016,JPG\,celery,tennisball01b,calculator01,pear01,screw02,orange,button01,cellphone,onion,apple07,iron01b,stapler05,banana01,paintbrush01,dandelion,toothbrush03b,blankImage,bull,,,,,,,,,,,,0,28,28,281,,,,,,,,,,,,,,,,,,,,,,,,,,,,,,,,,,,317.98917300009634,319.0015553000849,318.984895600006,319.5608856000472,319.5608856000472,None,321.5056393000996,None,right,3.2421090999851003,321.5056393000996,None,324.7741692001,None,left,0.5185086999554187,324.7741692001,None,,,,,,,,,,,,,,,,,,,,,,,PPT35,001,2022-07-06_09h03.35.813,ABstudy,2022.1.4,59.952865061510394,
AB,Lag5_T1P_T2P,5,P,P,7,12,6,3,15,lips,Did you see the lips?,0.12,0.016,JPG\,cigarette,fork03c,greenolive,broccoli01a,avocado01,tennisball01b,lip,leaf02a,pig,fan,clock01a,stapler03a,envelope03a,birthdaycandle,teabag,blankImage,blankImage,lip,,,,,,,,,,,,0,29,29,95,,,,,,,,,,,,,,,,,,,,,,,,,,,,,,,,,,,325.32475340005476,326.32570240006316,326.30898970004637,326.9012538000243,326.9012538000243,None,328.7331295000622,None,left,0.9193276999285445,328.7331295000622,None,329.67899170005694,None,right,0.6685030000517145,329.67899170005694,None,,,,,,,,,,,,,,,,,,,,,,,PPT35,001,2022-07-06_09h03.35.813,ABstudy,2022.1.4,59.952865061510394,
AB,Lag1_T1A_T2A,1,A,A,7,8,6,5,13,Poker chips,Did you see the Poker chips?,0.12,0.016,JPG\,violin,pizza,toothbrush03b,pineapple01a,banana01,ashtray01,candy,dandelion,clock04,sock01a,microscope,speaker04,calculator01,blankImage,blankImage,blankImage,blankImage,cigar,,,,,,,,,,,,0,30,30,289,,,,,,,,,,,,,,,,,,,,,,,,,,,,,,,,,,,330.4290294999955,331.43088630004786,331.4141642000759,331.99887810007203,331.99887810007203,None,333.5526072999928,None,right,1.5482935999752954,333.5526072999928,None,335.1179815999931,None,right,0.35069399990607053,335.1179815999931,None,,,,,,,,,,,,,,,,,,,,,,,PPT35,001,2022-07-06_09h03.35.813,ABstudy,2022.1.4,59.952865061510394,
AB,Lag1_T1P_T2P,1,P,P,8,9,7,4,13,mattress,Did you see the mattress?,0.12,0.016,JPG\,button01,celery,birthdaycandle,apple07,avocado01,tennisball01b,dice05a,mattress,stapler01,feather03a,tomato01,scarf,orange,blankImage,blankImage,blankImage,blankImage,mattress,,,,,,,,,,,,0,31,31,22,,,,,,,,,,,,,,,,,,,,,,,,,,,,,,,,,,,335.48922420002054,336.5026820000494,336.48599860002287,337.0669079000363,337.0669079000363,None,338.69939660001546,None,left,1.2967306999489665,338.69939660001546,None,340.02289430005476,None,right,1.0623373000416905,340.02289430005476,None,,,,,,,,,,,,,,,,,,,,,,,PPT35,001,2022-07-06_09h03.35.813,ABstudy,2022.1.4,59.952865061510394,
AB,Lag5_T1P_T2P,5,P,P,6,11,5,5,16,motorcycle,Did you see the motorcycle?,0.12,0.016,JPG\,cucumber,ring01,lipstick02a,microscope,violin,motorcycle,celery,lighter01,cherry01,sewingmachine01a,stapler04b,key01,binoculars01b,medal02b,watermelon01,dice05a,blankImage,motorcycle,,,,,,,,,,,,0,32,32,93,,,,,,,,,,,,,,,,,,,,,,,,,,,,,,,,,,,341.1112085999921,342.12478620000184,342.10808130004443,342.6906686000293,342.6906686000293,None,344.608263000031,None,left,0.8681210000067949,344.608263000031,None,345.49617330008186,None,right,0.2921176999807358,345.49617330008186,None,,,,,,,,,,,,,,,,,,,,,,,PPT35,001,2022-07-06_09h03.35.813,ABstudy,2022.1.4,59.952865061510394,
AB,Lag5_T1A_T2P,5,A,P,7,12,6,5,17,Rollerblade,Did you see the Rollerblade?,0.12,0.016,JPG\,binoculars01b,cymbal,pizza,candy,paintbrush01,sponge01,grape01,thermometer02b,speaker04,lemon02,lipstick02a,stapler03b,candle01,8ball,plate01b,pen04b,blankImage,lion,,,,,,,,,,,,0,33,33,266,,,,,,,,,,,,,,,,,,,,,,,,,,,,,,,,,,,345.82916419999674,346.83129140001256,346.813395800069,347.41024640004616,347.41024640004616,None,349.33887490001507,None,right,2.1854333999799564,349.33887490001507,None,351.55106940004043,None,left,0.4291457999497652,351.55106940004043,None,,,,,,,,,,,,,,,,,,,,,,,PPT35,001,2022-07-06_09h03.35.813,ABstudy,2022.1.4,59.952865061510394,
AB,Lag1_T1P_T2A,1,P,A,7,8,6,4,12,bird,Did you see the bird?,0.12,0.016,JPG\,speaker04,sewingmachine01a,eraser,violin,globe,belt02a,tern,cymbal,cd,greenolive,alligator,pear01,blankImage,blankImage,blankImage,blankImage,blankImage,tern,,,,,,,,,,,,0,34,34,177,,,,,,,,,,,,,,,,,,,,,,,,,,,,,,,,,,,352.00461190007627,353.01910969999153,352.98573499999475,353.58858030010015,353.58858030010015,None,355.0787702000234,None,left,1.3578021000139415,355.0787702000234,None,356.45724620006513,None,right,0.3148787000682205,356.45724620006513,None,,,,,,,,,,,,,,,,,,,,,,,PPT35,001,2022-07-06_09h03.35.813,ABstudy,2022.1.4,59.952865061510394,
AB,Lag1_T1P_T2P,1,P,P,6,7,5,3,10,elephant,Did you see the elephant?,0.12,0.016,JPG\,clock01a,grape01,plate01b,key01,screwdriver04b,africanelephant,stapler03b,iron01b,toothbrush03b,comb02a,blankImage,blankImage,blankImage,blankImage,blankImage,blankImage,blankImage,africanelephant,,,,,,,,,,,,0,35,35,31,,,,,,,,,,,,,,,,,,,,,,,,,,,,,,,,,,,356.80059820006136,357.8070681000827,357.79034410009626,358.3704508000519,358.3704508000519,None,359.6230283000041,None,left,1.1819129000650719,359.6230283000041,None,360.82697640010156,None,right,0.3688159000594169,360.82697640010156,None,,,,,,,,,,,,,,,,,,,,,,,PPT35,001,2022-07-06_09h03.35.813,ABstudy,2022.1.4,59.952865061510394,
AB,Lag1_T1P_T2A,1,P,A,7,8,6,3,11,Snowshoe,Did you see the Snowshoe?,0.12,0.016,JPG\,birthdaycandle,mushroom01,strawberry,match,cherry01,eraser,snowshoe,thermometer02b,sock01a,ring01,feather03a,blankImage,blankImage,blankImage,blankImage,blankImage,blankImage,snowshoe,,,,,,,,,,,,0,36,36,194,,,,,,,,,,,,,,,,,,,,,,,,,,,,,,,,,,,361.23248330003116,362.2450271000853,362.2283244000282,362.72899780003354,362.72899780003354,None,364.15150510007516,None,left,1.204905099933967,364.15150510007516,None,365.3814447000623,None,right,0.2539494000375271,365.3814447000623,None,,,,,,,,,,,,,,,,,,,,,,,PPT35,001,2022-07-06_09h03.35.813,ABstudy,2022.1.4,59.952865061510394,
AB,Lag1_T1P_T2P,1,P,P,5,6,4,5,11,football,Did you see the football?,0.12,0.016,JPG\,globe,belt02a,sponge01,violin,soccerball,stapler01,clock01a,microscope,balloon01b,scarf,teabag,blankImage,blankImage,blankImage,blankImage,blankImage,blankImage,soccerball,,,,,,,,,,,,0,37,37,26,,,,,,,,,,,,,,,,,,,,,,,,,,,,,,,,,,,365.7053332000505,366.7161837000167,366.6995512000285,367.28266620007344,367.28266620007344,None,368.55062670004554,None,left,0.7972925000358373,368.55062670004554,None,369.3699901000364,None,right,0.251218399964273,369.3699901000364,None,,,,,,,,,,,,,,,,,,,,,,,PPT35,001,2022-07-06_09h03.35.813,ABstudy,2022.1.4,59.952865061510394,
AB,Lag1_T1P_T2A,1,P,A,7,8,6,3,11,fish,Did you see the fish?,0.12,0.016,JPG\,rice,watermelon01,tableknife02,scarf,computerkeyboard02,cauliflower01,salmon,binoculars01b,book01b,sandal,sponge01,blankImage,blankImage,blankImage,blankImage,blankImage,blankImage,salmon,,,,,,,,,,,,0,38,38,179,,,,,,,,,,,,,,,,,,,,,,,,,,,,,,,,,,,369.66196260007564,370.67049590009265,370.6537456000224,371.2764669000171,371.2764669000171,None,372.583346700063,None,left,0.6764863999560475,372.583346700063,None,373.2893119000364,None,right,0.21175909996964037,373.2893119000364,None,,,,,,,,,,,,,,,,,,,,,,,PPT35,001,2022-07-06_09h03.35.813,ABstudy,2022.1.4,59.952865061510394,
AB,Lag1_T1P_T2P,1,P,P,7,8,6,3,11,Sand castle,Did you see the Sand castle?,0.12,0.016,JPG\,thermometer02b,candle08b,comb02a,toothbrush03b,brick,computerkeyboard02,sandcastle,stapler06,candy,birthdaycandle,clock04,blankImage,blankImage,blankImage,blankImage,blankImage,blankImage,sandcastle,,,,,,,,,,,,0,39,39,70,,,,,,,,,,,,,,,,,,,,,,,,,,,,,,,,,,,373.58527450007387,374.5905291000381,374.5738180000335,375.14217830006965,375.14217830006965,None,376.49061610002536,None,left,0.7697307000635192,376.49061610002536,None,377.29372280009557,None,right,0.20639030006714165,377.29372280009557,None,,,,,,,,,,,,,,,,,,,,,,,PPT35,001,2022-07-06_09h03.35.813,ABstudy,2022.1.4,59.952865061510394,
AB,Lag5_T1P_T2P,5,P,P,6,11,5,4,15,sword,Did you see the sword?,0.12,0.016,JPG\,8ball,banana01,scissors01,pig,shirt02,broadsword,pear01,sponge01,fork03c,tableknife02,stapler06,match,toothbrush03b,birthdaycandle,candle01,blankImage,blankImage,broadsword,,,,,,,,,,,,0,40,40,167,,,,,,,,,,,,,,,,,,,,,,,,,,,,,,,,,,,377.52715740003623,378.52804610005114,378.51181100006215,379.0759015000658,379.0759015000658,None,380.99181850010063,None,left,1.1006409999681637,380.99181850010063,None,382.1148880000692,None,left,0.2647645999677479,382.1148880000692,None,,,,,,,,,,,,,,,,,,,,,,,PPT35,001,2022-07-06_09h03.35.813,ABstudy,2022.1.4,59.952865061510394,
AB,Lag1_T1P_T2P,1,P,P,5,6,4,3,9,mail box,Did you see the mail box?,0.12,0.016,JPG\,watermelon01,banana01,ring01,pencil01,mailbox02,stapler04b,cucumber,thermometer02b,key01,blankImage,blankImage,blankImage,blankImage,blankImage,blankImage,blankImage,blankImage,mailbox02,,,,,,,,,,,,0,41,41,21,,,,,,,,,,,,,,,,,,,,,,,,,,,,,,,,,,,382.4047619000776,383.416056200047,383.39940550003666,384.03440140001476,384.03440140001476,None,385.0633471000474,None,left,1.2131389999995008,385.0633471000474,None,386.3022253999952,None,right,0.2220396000193432,386.3022253999952,None,,,,,,,,,,,,,,,,,,,,,,,PPT35,001,2022-07-06_09h03.35.813,ABstudy,2022.1.4,59.952865061510394,
AB,Lag5_T1P_T2A,5,P,A,6,11,5,5,16,World map,Did you see the World map?,0.12,0.016,JPG\,cigarette,pig,banana01,strawberry,clock01a,worldmap,spoon01,blueberry01,battery02b,pineapple01a,chain01,paintbrush01,candy,pen04b,teabag,birthdaycandle,blankImage,worldmap,,,,,,,,,,,,0,42,42,205,,,,,,,,,,,,,,,,,,,,,,,,,,,,,,,,,,,386.55429200001527,387.5534886000678,387.5368739000987,388.1074584000744,388.1074584000744,None,389.9940012000734,None,left,0.5704525000182912,389.9940012000734,None,390.5899454000173,None,right,0.21336269995663315,390.5899454000173,None,,,,,,,,,,,,,,,,,,,,,,,PPT35,001,2022-07-06_09h03.35.813,ABstudy,2022.1.4,59.952865061510394,
AB,Lag5_T1P_T2P,5,P,P,6,11,5,3,14,Poker chips,Did you see the Poker chips?,0.12,0.016,JPG\,iron01b,brick,broccoli01a,balloon01b,tomato01,pokerchips,sandal,teabag,scissors01,pineapple01a,stapler04b,measuringcup01,sock01a,book01b,blankImage,blankImage,blankImage,pokerchips,,,,,,,,,,,,0,43,43,154,,,,,,,,,,,,,,,,,,,,,,,,,,,,,,,,,,,390.82491570001,391.82463670009747,391.8078440000536,392.3972688000649,392.3972688000649,None,394.067311800085,None,left,0.6728239000076428,394.067311800085,None,394.76050960004795,None,left,0.2838970000157133,394.76050960004795,None,,,,,,,,,,,,,,,,,,,,,,,PPT35,001,2022-07-06_09h03.35.813,ABstudy,2022.1.4,59.952865061510394,
AB,Lag1_T1P_T2P,1,P,P,6,7,5,3,10,jelly beans,Did you see the jelly beans?,0.12,0.016,JPG\,lipstick02a,cucumber,candle08b,printer02,grape01,jellybean,stapler01,lighter01,belt02a,balloon01b,blankImage,blankImage,blankImage,blankImage,blankImage,blankImage,blankImage,jellybean,,,,,,,,,,,,0,44,44,15,,,,,,,,,,,,,,,,,,,,,,,,,,,,,,,,,,,395.11357640009373,396.1287070000544,396.11211870005354,396.71321130008437,396.71321130008437,None,397.92419020005036,None,left,1.3915198999457061,397.92419020005036,None,399.33324040006846,None,right,0.21445770002901554,399.33324040006846,None,,,,,,,,,,,,,,,,,,,,,,,PPT35,001,2022-07-06_09h03.35.813,ABstudy,2022.1.4,59.952865061510394,
AB,Lag5_T1P_T2A,5,P,A,8,13,7,4,17,Drum set,Did you see the Drum set?,0.12,0.016,JPG\,pencil01,microscope,banana01,computerkeyboard02,celery,cellphone,scissors01,drumset,book01b,onion,dice05a,binoculars01b,baseball01a,iron01b,screw02,fork03c,blankImage,drumset,,,,,,,,,,,,0,45,45,212,,,,,,,,,,,,,,,,,,,,,,,,,,,,,,,,,,,399.5756466999883,400.5830172999995,400.56631510006264,401.13786450005136,401.13786450005136,None,403.0533000000287,None,left,0.9587238000240177,403.0533000000287,None,404.0377875000704,None,right,0.23022180004045367,404.0377875000704,None,,,,,,,,,,,,,,,,,,,,,,,PPT35,001,2022-07-06_09h03.35.813,ABstudy,2022.1.4,59.952865061510394,
AB,Lag1_T1P_T2A,1,P,A,6,7,5,4,11,bird,Did you see the bird?,0.12,0.016,JPG\,foosballtable,candy,envelope03a,microscope,pencil01,cedarwaxwing,scissors01,watermelon01,grape01,dandelion,pineapple01a,blankImage,blankImage,blankImage,blankImage,blankImage,blankImage,cedarwaxwing,,,,,,,,,,,,0,46,46,182,,,,,,,,,,,,,,,,,,,,,,,,,,,,,,,,,,,404.35690170002636,405.37126160005573,405.35463110008277,405.8551102000056,405.8551102000056,None,407.2229967000894,None,left,0.9962875999044627,407.2229967000894,None,408.2408248001011,None,right,0.25970609998330474,408.2408248001011,None,,,,,,,,,,,,,,,,,,,,,,,PPT35,001,2022-07-06_09h03.35.813,ABstudy,2022.1.4,59.952865061510394,
AB,Lag1_T1P_T2P,1,P,P,6,7,5,3,10,handcuffs,Did you see the handcuffs?,0.12,0.016,JPG\,sewingmachine01a,scarf,carrot01,book01b,eraser,handcuffs,stapler05,lipstick02a,printer02,garlic01a,blankImage,blankImage,blankImage,blankImage,blankImage,blankImage,blankImage,handcuffs,,,,,,,,,,,,0,47,47,2,,,,,,,,,,,,,,,,,,,,,,,,,,,,,,,,,,,408.53058390005026,409.5421889000572,409.5254421000136,410.11075490002986,410.11075490002986,None,411.34221570007503,None,left,0.7414564999053255,411.34221570007503,None,412.11136040010024,None,left,0.3331328999483958,412.11136040010024,None,,,,,,,,,,,,,,,,,,,,,,,PPT35,001,2022-07-06_09h03.35.813,ABstudy,2022.1.4,59.952865061510394,
AB,Lag1_T1P_T2P,1,P,P,7,8,6,4,12,cow,Did you see the cow?,0.12,0.016,JPG\,fork03c,plate01b,toiletpaper01a,greenolive,rice,blueberry01,cow,stapler01,envelope03a,orange,book01b,pencil01,blankImage,blankImage,blankImage,blankImage,blankImage,cow,,,,,,,,,,,,0,48,48,59,,,,,,,,,,,,,,,,,,,,,,,,,,,,,,,,,,,412.4649737,413.47938070003875,413.4459230999928,414.0498126000166,414.0498126000166,None,415.49470640008803,None,left,2.4132254999130964,415.49470640008803,None,417.93372770003043,None,left,0.6306924000382423,417.93372770003043,None,,,,,,,,,,,,,,,,,,,,,,,PPT35,001,2022-07-06_09h03.35.813,ABstudy,2022.1.4,59.952865061510394,
AB,Lag1_T1P_T2P,1,P,P,8,9,7,4,13,dart board,Did you see the dart board?,0.12,0.016,JPG\,rice,watermelon01,tableknife02,scarf,computerkeyboard02,cauliflower01,battery02b,dartboard,stapler01,sandal,sponge01,microscope,tomato01,blankImage,blankImage,blankImage,blankImage,dartboard,,,,,,,,,,,,0,49,49,80,,,,,,,,,,,,,,,,,,,,,,,,,,,,,,,,,,,418.58536330005154,419.58549440000206,419.5688044000417,420.1333298000973,420.1333298000973,None,421.8202895000577,None,left,0.5038903999375179,421.8202895000577,None,422.3548651000019,None,left,0.24927010003011674,422.3548651000019,None,,,,,,,,,,,,,,,,,,,,,,,PPT35,001,2022-07-06_09h03.35.813,ABstudy,2022.1.4,59.952865061510394,
AB,Lag1_T1P_T2P,1,P,P,7,8,6,3,11,locker,Did you see the locker?,0.12,0.016,JPG\,toiletpaper01a,lipstick02a,potato02b,speaker04,globe,strawberry,locker,stapler04b,sock01a,candle08b,pen04b,blankImage,blankImage,blankImage,blankImage,blankImage,blankImage,locker,,,,,,,,,,,,0,50,50,19,,,,,,,,,,,,,,,,,,,,,,,,,,,,,,,,,,,422.6257240000414,423.6394898000872,423.6227287000511,424.23108230007347,424.23108230007347,None,425.56065280002076,None,right,1.6267507000593469,425.56065280002076,None,427.2096649000887,None,left,0.36219550005625933,427.2096649000887,None,,,,,,,,,,,,,,,,,,,,,,,PPT35,001,2022-07-06_09h03.35.813,ABstudy,2022.1.4,59.952865061510394,
AB,Lag1_T1P_T2P,1,P,P,6,7,5,4,11,no parking sign,Did you see the no parking sign?,0.12,0.016,JPG\,fork03c,belt02a,grape01,computerkeyboard02,lemon02,parkingsign,stapler05,toiletpaper01a,toaster01,lipstick02a,book01b,blankImage,blankImage,blankImage,blankImage,blankImage,blankImage,parkingsign,,,,,,,,,,,,0,51,51,47,,,,,,,,,,,,,,,,,,,,,,,,,,,,,,,,,,,427.59455250005703,428.59478450007737,428.57813580008224,429.1564180999994,429.1564180999994,None,430.5999462000327,None,left,0.8194767999229953,430.5999462000327,None,431.44718120002653,None,left,0.16441570001188666,431.44718120002653,None,,,,,,,,,,,,,,,,,,,,,,,PPT35,001,2022-07-06_09h03.35.813,ABstudy,2022.1.4,59.952865061510394,
AB,Lag1_T1P_T2P,1,P,P,6,7,5,5,12,Snowboard,Did you see the Snowboard?,0.12,0.016,JPG\,belt02a,measuringcup01,spoon01,chain01,greenolive,snowboard,stapler01,onion,fan,strawberry,candle01,broom01,blankImage,blankImage,blankImage,blankImage,blankImage,snowboard,,,,,,,,,,,,0,52,52,49,,,,,,,,,,,,,,,,,,,,,,,,,,,,,,,,,,,431.63571040006354,432.64847310003825,432.63179690006655,433.219962400035,433.219962400035,None,434.7090190000599,None,right,1.406631699996069,434.7090190000599,None,436.13532850006595,None,left,0.6204606000101194,436.13532850006595,None,,,,,,,,,,,,,,,,,,,,,,,PPT35,001,2022-07-06_09h03.35.813,ABstudy,2022.1.4,59.952865061510394,
AB,Lag1_T1P_T2A,1,P,A,7,8,6,4,12,Steering wheel,Did you see the Steering wheel?,0.12,0.016,JPG\,alligator,banana01,apple07,tomato01,button01,spoon01,steeringwheel,fork03c,canoftennisballs,potato02b,grape01,leaf02a,blankImage,blankImage,blankImage,blankImage,blankImage,steeringwheel,,,,,,,,,,,,0,53,53,198,,,,,,,,,,,,,,,,,,,,,,,,,,,,,,,,,,,436.7884155000793,437.8035351000726,437.7702924000332,438.27065550000407,438.27065550000407,None,439.82931970001664,None,left,0.9344265999970958,439.82931970001664,None,440.7897137000691,None,right,0.26990970002952963,440.7897137000691,None,,,,,,,,,,,,,,,,,,,,,,,PPT35,001,2022-07-06_09h03.35.813,ABstudy,2022.1.4,59.952865061510394,
AB,Lag1_T1P_T2A,1,P,A,7,8,6,4,12,gorilla,Did you see the gorilla?,0.12,0.016,JPG\,scissors01,ashtray01,garlic01a,medal02b,cigarette,candle08b,gorilla,envelope03a,cucumber,rice,toiletpaper01a,greenolive,blankImage,blankImage,blankImage,blankImage,blankImage,gorilla,,,,,,,,,,,,0,54,54,189,,,,,,,,,,,,,,,,,,,,,,,,,,,,,,,,,,,441.10519850009587,442.10769940004684,442.0743691000389,442.6447979999939,442.6447979999939,None,444.1476645000512,None,right,2.575977599946782,444.1476645000512,None,446.74582150008064,None,right,0.29793989995960146,446.74582150008064,None,,,,,,,,,,,,,,,,,,,,,,,PPT35,001,2022-07-06_09h03.35.813,ABstudy,2022.1.4,59.952865061510394,
AB,Lag1_T1P_T2P,1,P,P,7,8,6,3,11,swing,Did you see the swing?,0.12,0.016,JPG\,sewingmachine01a,thermometer02b,sponge01,eraser,broccoli01a,fork03c,swing,stapler03b,belt02a,medal02b,pineapple01a,blankImage,blankImage,blankImage,blankImage,blankImage,blankImage,swing,,,,,,,,,,,,0,55,55,30,,,,,,,,,,,,,,,,,,,,,,,,,,,,,,,,,,,447.06648040004075,448.0805659000762,448.0636763999937,448.64629619999323,448.64629619999323,None,450.03989000001457,None,right,0.8924756000051275,450.03989000001457,None,450.950865300023,None,left,1.0202499000588432,450.950865300023,None,,,,,,,,,,,,,,,,,,,,,,,PPT35,001,2022-07-06_09h03.35.813,ABstudy,2022.1.4,59.952865061510394,
AB,Lag1_T1P_T2P,1,P,P,8,9,7,3,12,mail box,Did you see the mail box?,0.12,0.016,JPG\,paintbrush01,dice05a,watermelon01,broccoli01a,hammer01,leaf02a,match,mailbox01,stapler05,fan,lipstick02a,grape01,blankImage,blankImage,blankImage,blankImage,blankImage,mailbox01,,,,,,,,,,,,0,56,56,20,,,,,,,,,,,,,,,,,,,,,,,,,,,,,,,,,,,452.00664500007406,453.01870840007905,453.00204150006175,453.59088870009873,453.59088870009873,None,455.0788945000386,None,right,0.7323702999856323,455.0788945000386,None,455.8379939000588,None,right,0.18988940003328025,455.8379939000588,None,,,,,,,,,,,,,,,,,,,,,,,PPT35,001,2022-07-06_09h03.35.813,ABstudy,2022.1.4,59.952865061510394,
AB,Lag5_T1P_T2P,5,P,P,5,10,4,4,14,License Plate,Did you see the License Plate?,0.12,0.016,JPG\,toaster01,chain01,sponge01,baseball01a,licenseplate,belt02a,book01b,iron01b,grape01,stapler06,celery,onion,mushroom01,toothbrush03b,blankImage,blankImage,blankImage,licenseplate,,,,,,,,,,,,0,57,57,120,,,,,,,,,,,,,,,,,,,,,,,,,,,,,,,,,,,456.06750620005187,457.07283080008347,457.05607570009306,457.6336629000725,457.6336629000725,None,459.3033934000414,None,left,1.0361833999631926,459.3033934000414,None,460.3604943000246,None,right,0.4681797999655828,460.3604943000246,None,,,,,,,,,,,,,,,,,,,,,,,PPT35,001,2022-07-06_09h03.35.813,ABstudy,2022.1.4,59.952865061510394,
AB,Lag5_T1P_T2P,5,P,P,7,12,6,3,15,marble,Did you see the marble?,0.12,0.016,JPG\,cigarette,ashtray01,envelope03a,sandal,chain01,cucumber,marble,tomato01,dandelion,candle01,lemon02,stapler03b,potato02b,cymbal,clock01a,blankImage,blankImage,marble,,,,,,,,,,,,0,58,58,146,,,,,,,,,,,,,,,,,,,,,,,,,,,,,,,,,,,460.8689500000328,461.87716600007843,461.86045949999243,462.43495870009065,462.43495870009065,None,464.3012144000968,None,left,1.1266714999219403,464.3012144000968,None,465.4476338000968,None,left,0.37138869997579604,465.4476338000968,None,,,,,,,,,,,,,,,,,,,,,,,PPT35,001,2022-07-06_09h03.35.813,ABstudy,2022.1.4,59.952865061510394,
AB,Lag5_T1P_T2P,5,P,P,7,12,6,4,16,window,Did you see the window?,0.12,0.016,JPG\,cigarette,pig,banana01,strawberry,clock01a,plate01b,dormer,blueberry01,battery02b,pineapple01a,chain01,stapler01,candy,pen04b,teabag,birthdaycandle,blankImage,dormer,,,,,,,,,,,,0,59,59,170,,,,,,,,,,,,,,,,,,,,,,,,,,,,,,,,,,,465.85044450010173,466.8656126999995,466.83223810000345,467.4104320000624,467.4104320000624,None,469.2848104001023,None,left,0.4479687000857666,469.2848104001023,None,469.75203219999094,None,left,0.2192514999769628,469.75203219999094,None,,,,,,,,,,,,,,,,,,,,,,,PPT35,001,2022-07-06_09h03.35.813,ABstudy,2022.1.4,59.952865061510394,
AB,Lag1_T1P_T2P,1,P,P,7,8,6,3,11,tree,Did you see the tree?,0.12,0.016,JPG\,pear01,clock01a,cymbal,match,ashtray01,globe,tree,stapler03b,lemon02,pen04b,dice05a,blankImage,blankImage,blankImage,blankImage,blankImage,blankImage,tree,,,,,,,,,,,,0,60,60,51,,,,,,,,,,,,,,,,,,,,,,,,,,,,,,,,,,,470.0047840999905,471.0198109000921,470.9864533999935,471.5637204000959,471.5637204000959,None,472.9456776001025,None,left,0.4819414000958204,472.9456776001025,None,473.4568657000782,None,left,0.20279260003007948,473.4568657000782,None,,,,,,,,,,,,,,,,,,,,,,,PPT35,001,2022-07-06_09h03.35.813,ABstudy,2022.1.4,59.952865061510394,
AB,Lag5_T1P_T2P,5,P,P,5,10,4,3,13,lollipop,Did you see the lollipop?,0.12,0.016,JPG\,brownsugar,candle01,match,printer02,lollipop04,balloon01b,belt02a,potato02b,computerkeyboard02,stapler03a,rice,mushroom01,pencil01,blankImage,blankImage,blankImage,blankImage,lollipop04,,,,,,,,,,,,0,61,61,112,,,,,,,,,,,,,,,,,,,,,,,,,,,,,,,,,,,473.69616719998885,474.7071676000487,474.69010860007256,475.1905568999937,475.1905568999937,None,476.8318041000748,None,right,1.4120530999498442,476.8318041000748,None,478.2604745000135,None,left,0.5596036000642926,478.2604745000135,None,,,,,,,,,,,,,,,,,,,,,,,PPT35,001,2022-07-06_09h03.35.813,ABstudy,2022.1.4,59.952865061510394,
AB,Lag1_T1P_T2P,1,P,P,6,7,5,5,12,snowman,Did you see the snowman?,0.12,0.016,JPG\,comb02a,watch02a,scissors01,dice05a,tableknife02,snowman,stapler03a,printer02,dandelion,spoon01,ashtray01,battery02b,blankImage,blankImage,blankImage,blankImage,blankImage,snowman,,,,,,,,,,,,0,62,62,4,,,,,,,,,,,,,,,,,,,,,,,,,,,,,,,,,,,478.8485202000011,479.8621302000247,479.84535680001136,480.4269956999924,480.4269956999924,None,481.9078381001018,None,left,2.2316800000844523,481.9078381001018,None,484.16631640004925,None,right,0.5573111999547109,484.16631640004925,None,,,,,,,,,,,,,,,,,,,,,,,PPT35,001,2022-07-06_09h03.35.813,ABstudy,2022.1.4,59.952865061510394,
AB,Lag5_T1P_T2P,5,P,P,8,13,7,5,18,pipe,Did you see the pipe?,0.12,0.016,JPG\,scissors01,ashtray01,garlic01a,medal02b,cigarette,candle08b,leaf02a,smokingpipe,cucumber,rice,toiletpaper01a,greenolive,stapler01,cellphone,tableknife02,spoon01,blankImage,smokingpipe,,,,,,,,,,,,0,63,63,138,,,,,,,,,,,,,,,,,,,,,,,,,,,,,,,,,,,484.7551228000084,485.7680692001013,485.75142079999205,486.3180898000719,486.3180898000719,None,488.27198210009374,None,left,0.4604045999003574,488.27198210009374,None,488.7540760000702,None,left,0.2897001999663189,488.7540760000702,None,,,,,,,,,,,,,,,,,,,,,,,PPT35,001,2022-07-06_09h03.35.813,ABstudy,2022.1.4,59.952865061510394,
AB,Lag5_T1P_T2P,5,P,P,6,11,5,5,16,table,Did you see the table?,0.12,0.016,JPG\,birthdaycandle,mushroom01,strawberry,match,cherry01,table01,hammer01,thermometer02b,sock01a,ring01,stapler06,banana01,toiletpaper01a,key01,sponge01,teabag,blankImage,table01,,,,,,,,,,,,0,64,64,144,,,,,,,,,,,,,,,,,,,,,,,,,,,,,,,,,,,489.07472470006905,490.08896040008403,490.072214200045,490.5730061000213,490.5565858000191,None,492.6225998000009,None,left,0.8444657000945881,492.6225998000009,None,493.4932468000334,None,right,0.23776589997578412,493.4932468000334,None,,,,,,,,,,,,,,,,,,,,,,,PPT35,001,2022-07-06_09h03.35.813,ABstudy,2022.1.4,59.952865061510394,
AB,Lag1_T1A_T2P,1,A,P,8,9,7,5,14,Wolf,Did you see the Wolf?,0.12,0.016,JPG\,carrot01,watch02a,clock04,microscope,toiletpaper01a,potato02b,alligator,ring01,stapler03b,watermelon01,cd,pencil01,measuringcup01,balloon01b,blankImage,blankImage,blankImage,dreamcatcher,,,,,,,,,,,,0,65,65,253,,,,,,,,,,,,,,,,,,,,,,,,,,,,,,,,,,,493.7692836000351,494.77659150003456,494.7598971000407,495.3559246000368,495.3559246000368,None,497.10781529999804,None,right,0.8716766000725329,497.10781529999804,None,497.9968105000444,None,right,0.2621950999600813,497.9968105000444,None,,,,,,,,,,,,,,,,,,,,,,,PPT35,001,2022-07-06_09h03.35.813,ABstudy,2022.1.4,59.952865061510394,
AB,Lag5_T1A_T2P,5,A,P,6,11,5,5,16,bed,Did you see the bed?,0.12,0.016,JPG\,cellphone,tomato01,comb02a,candy,celery,cucumber,toaster01,fan,feather03a,pen04b,stapler03b,blueberry01,plate01b,cherry01,baseball01a,candle08b,blankImage,toolbox02,,,,,,,,,,,,0,66,66,274,,,,,,,,,,,,,,,,,,,,,,,,,,,,,,,,,,,498.3500953000039,499.36496100004297,499.3482562000863,499.95415720005985,499.95415720005985,None,501.83925200009253,None,right,1.2037357999943197,501.83925200009253,None,503.0686111000832,None,left,0.7109348999802023,503.0686111000832,None,,,,,,,,,,,,,,,,,,,,,,,PPT35,001,2022-07-06_09h03.35.813,ABstudy,2022.1.4,59.952865061510394,
AB,Lag5_T1A_T2P,5,A,P,7,12,6,4,16,flower,Did you see the flower?,0.12,0.016,JPG\,printer02,envelope03a,potato02b,calculator01,tableknife02,cigarette,ashtray01,pig,broom01,greenolive,candle08b,stapler03a,strawberry,candle01,foosballtable,tennisball01b,blankImage,calendar,,,,,,,,,,,,0,67,67,282,,,,,,,,,,,,,,,,,,,,,,,,,,,,,,,,,,,503.81331800005864,504.8200822999934,504.8034167001024,505.3854272000026,505.3854272000026,None,507.43324440007564,None,right,1.041805199929513,507.43324440007564,None,508.5070943000028,None,right,0.5761422999203205,508.5070943000028,None,,,,,,,,,,,,,,,,,,,,,,,PPT35,001,2022-07-06_09h03.35.813,ABstudy,2022.1.4,59.952865061510394,
AB,Lag5_T1P_T2P,5,P,P,7,12,6,5,17,Badminton Racket,Did you see the Badminton Racket?,0.12,0.016,JPG\,paintbrush01,dice05a,watermelon01,broccoli01a,hammer01,leaf02a,badmintonracket,tennisball01b,lemon02,fan,lipstick02a,stapler04b,envelope03a,sponge01,foosballtable,orange,blankImage,badmintonracket,,,,,,,,,,,,0,68,68,163,,,,,,,,,,,,,,,,,,,,,,,,,,,,,,,,,,,509.1112430000212,510.1253899000585,510.1086718000006,510.6957562000025,510.6957562000025,None,512.6778928000713,None,left,0.5258580999216065,512.6778928000713,None,513.2283098000335,None,left,0.3273840999463573,513.2283098000335,None,,,,,,,,,,,,,,,,,,,,,,,PPT35,001,2022-07-06_09h03.35.813,ABstudy,2022.1.4,59.952865061510394,
AB,Lag5_T1P_T2P,5,P,P,5,10,4,5,15,scorpion,Did you see the scorpion?,0.12,0.016,JPG\,fan,tomato01,candy,screwdriver04b,scorpion,cd,thermometer02b,apple07,button01,stapler01,brownsugar,lighter01,clock01a,envelope03a,clock04,blankImage,blankImage,scorpion,,,,,,,,,,,,0,69,69,97,,,,,,,,,,,,,,,,,,,,,,,,,,,,,,,,,,,513.5822008000687,514.5967570000794,514.5633383000968,515.1638268000679,515.1638268000679,None,517.0013122000964,None,right,0.9215917999390513,517.0013122000964,None,517.9500689000124,None,left,0.3652818000409752,517.9500689000124,None,,,,,,,,,,,,,,,,,,,,,,,PPT35,001,2022-07-06_09h03.35.813,ABstudy,2022.1.4,59.952865061510394,
AB,Lag5_T1P_T2P,5,P,P,8,13,7,5,18,Kiwi,Did you see the Kiwi?,0.12,0.016,JPG\,violin,pizza,toothbrush03b,pineapple01a,banana01,ashtray01,candy,kiwi03,clock04,sock01a,microscope,speaker04,stapler04b,sunglasses04,lipstick02a,blueberry01,blankImage,kiwi03,,,,,,,,,,,,0,70,70,111,,,,,,,,,,,,,,,,,,,,,,,,,,,,,,,,,,,518.3430449001025,519.3513953000074,519.3348649000982,519.9118814000394,519.9118814000394,None,521.827575400006,None,left,0.49558960006106645,521.827575400006,None,522.3544516999973,None,left,0.1848065999802202,522.3544516999973,None,,,,,,,,,,,,,,,,,,,,,,,PPT35,001,2022-07-06_09h03.35.813,ABstudy,2022.1.4,59.952865061510394,
AB,Lag5_T1A_T2P,5,A,P,5,10,4,5,15,Sushi,Did you see the Sushi?,0.12,0.016,JPG\,pineapple01a,leaf02a,grape01,toiletpaper01a,match,tennisball01b,spoon01,chain01,pig,stapler04b,ring01,lemon02,dice05a,pizza,potato02b,blankImage,blankImage,crown,,,,,,,,,,,,0,71,71,285,,,,,,,,,,,,,,,,,,,,,,,,,,,,,,,,,,,522.6345537001034,523.6390773000894,523.6223498000763,524.2209709000308,524.2209709000308,None,525.9751751000294,None,right,0.6357214000308886,525.9751751000294,None,526.6419593000319,None,left,0.3452404000563547,526.6419593000319,None,,,,,,,,,,,,,,,,,,,,,,,PPT35,001,2022-07-06_09h03.35.813,ABstudy,2022.1.4,59.952865061510394,
AB,Lag1_T1A_T2P,1,A,P,8,9,7,3,12,elbow,Did you see the elbow?,0.12,0.016,JPG\,watermelon01,cigarette,faucet,cymbal,cauliflower01,feather03a,cherry01,broom01,stapler01,key01,baseball01a,iron01b,blankImage,blankImage,blankImage,blankImage,blankImage,cashregister01,,,,,,,,,,,,0,72,72,251,,,,,,,,,,,,,,,,,,,,,,,,,,,,,,,,,,,527.012238400057,528.0267883000197,527.9932356000645,528.5774744000519,528.5774744000519,None,530.1145108999917,None,right,0.9689709000522271,530.1145108999917,None,531.1129065999994,None,right,0.6190375000005588,531.1129065999994,None,,,,,,,,,,,,,,,,,,,,,,,PPT35,001,2022-07-06_09h03.35.813,ABstudy,2022.1.4,59.952865061510394,
AB,Lag5_T1P_T2P,5,P,P,8,13,7,4,17,Accordion,Did you see the Accordion?,0.12,0.016,JPG\,toiletpaper01a,lipstick02a,potato02b,speaker04,globe,strawberry,carrot01,accordion01,sock01a,candle08b,pen04b,calculator01,stapler01,brick,pear01,fork03c,blankImage,accordion01,,,,,,,,,,,,0,73,73,162,,,,,,,,,,,,,,,,,,,,,,,,,,,,,,,,,,,531.7679774001008,532.7812446000753,532.7644845000468,533.3510618000291,533.3510618000291,None,535.3008406000445,None,left,0.4628319999901578,535.3008406000445,None,535.7843615000602,None,left,0.1713854999979958,535.7843615000602,None,,,,,,,,,,,,,,,,,,,,,,,PPT35,001,2022-07-06_09h03.35.813,ABstudy,2022.1.4,59.952865061510394,
AB,Lag5_T1P_T2P,5,P,P,5,10,4,3,13,Sushi,Did you see the Sushi?,0.12,0.016,JPG\,carrot01,greenolive,fork03c,chain01,makiroll,watermelon01,tableknife02,printer02,comb02a,stapler03b,orange,rice,fan,blankImage,blankImage,blankImage,blankImage,makiroll,,,,,,,,,,,,0,74,74,135,,,,,,,,,,,,,,,,,,,,,,,,,,,,,,,,,,,535.9865670000436,537.0021316000493,536.9687577000586,537.575628300081,537.575628300081,None,539.1593281000387,None,left,0.46822529996279627,539.1593281000387,None,539.6559144000057,None,left,0.14792599994689226,539.6559144000057,None,,,,,,,,,,,,,,,,,,,,,,,PPT35,001,2022-07-06_09h03.35.813,ABstudy,2022.1.4,59.952865061510394,
AB,Lag5_T1P_T2A,5,P,A,6,11,5,3,14,toy truck,Did you see the toy truck?,0.12,0.016,JPG\,globe,belt02a,sponge01,violin,fork03c,bluecheese,clock01a,microscope,balloon01b,scarf,teabag,pen04b,brick,brownsugar,blankImage,blankImage,blankImage,bluecheese,,,,,,,,,,,,0,75,75,204,,,,,,,,,,,,,,,,,,,,,,,,,,,,,,,,,,,539.8323619000148,540.8391237000469,540.8225023000268,541.40250690002,541.40250690002,None,543.0249112000456,None,right,0.7863092999905348,543.0249112000456,None,543.8422729000449,None,right,0.16995490004774183,543.8422729000449,None,,,,,,,,,,,,,,,,,,,,,,,PPT35,001,2022-07-06_09h03.35.813,ABstudy,2022.1.4,59.952865061510394,
AB,Lag1_T1P_T2P,1,P,P,5,6,4,3,9,kangaroo,Did you see the kangaroo?,0.12,0.016,JPG\,candle01,shirt02,brick,orange,kangaroo,stapler03a,pizza,thermometer02b,book01b,blankImage,blankImage,blankImage,blankImage,blankImage,blankImage,blankImage,blankImage,kangaroo,,,,,,,,,,,,0,76,76,16,,,,,,,,,,,,,,,,,,,,,,,,,,,,,,,,,,,544.0447914000833,545.0601825000485,545.0267344000749,545.5939077000367,545.5939077000367,None,546.7047292999923,None,left,0.5867572000715882,546.7047292999923,None,547.3126544000115,None,left,0.1389691000804305,547.3126544000115,None,,,,,,,,,,,,,,,,,,,,,,,PPT35,001,2022-07-06_09h03.35.813,ABstudy,2022.1.4,59.952865061510394,
AB,Lag5_T1P_T2P,5,P,P,6,11,5,4,15,Witch hat,Did you see the Witch hat?,0.12,0.016,JPG\,pizza,watch02a,greenolive,cucumber,match,witchhat,scissors01,broom01,globe,cherry01,stapler03a,cigarette,microscope,cellphone,speaker04,blankImage,blankImage,witchhat,,,,,,,,,,,,0,77,77,101,,,,,,,,,,,,,,,,,,,,,,,,,,,,,,,,,,,547.4840490000788,548.4971186000621,548.4804622000083,549.0726477000862,549.0726477000862,None,550.8712822000962,None,left,0.8596711999271065,550.8712822000962,None,551.750441799988,None,right,0.23630009999033064,551.750441799988,None,,,,,,,,,,,,,,,,,,,,,,,PPT35,001,2022-07-06_09h03.35.813,ABstudy,2022.1.4,59.952865061510394,
AB,Lag1_T1P_T2P,1,P,P,5,6,4,5,11,owl,Did you see the owl?,0.12,0.016,JPG\,cellphone,tomato01,comb02a,candy,barnowl,stapler03a,toaster01,fan,feather03a,pen04b,lemon02,blankImage,blankImage,blankImage,blankImage,blankImage,blankImage,barnowl,,,,,,,,,,,,0,78,78,33,,,,,,,,,,,,,,,,,,,,,,,,,,,,,,,,,,,552.0199782000855,553.0348717999877,553.0014256000286,553.6308030000655,553.6308030000655,None,554.9644271000288,None,left,0.3507699999026954,554.9644271000288,None,555.3373077000724,None,left,0.13080299994908273,555.3373077000724,None,,,,,,,,,,,,,,,,,,,,,,,PPT35,001,2022-07-06_09h03.35.813,ABstudy,2022.1.4,59.952865061510394,
AB,Lag5_T1A_T2P,5,A,P,7,12,6,3,15,hockey puck,Did you see the hockey puck?,0.12,0.016,JPG\,toiletpaper01a,lipstick02a,potato02b,speaker04,globe,strawberry,carrot01,plate01b,sock01a,candle08b,pen04b,stapler04b,foosballtable,brick,pear01,blankImage,blankImage,frisbee,,,,,,,,,,,,0,79,79,260,,,,,,,,,,,,,,,,,,,,,,,,,,,,,,,,,,,555.4932401000988,556.5051076000091,556.4882084000856,557.0665308000753,557.0665308000753,None,558.8596268000547,None,right,0.7994449000107124,558.8596268000547,None,559.6915662999963,None,right,0.14472300000488758,559.6915662999963,None,,,,,,,,,,,,,,,,,,,,,,,PPT35,001,2022-07-06_09h03.35.813,ABstudy,2022.1.4,59.952865061510394,
AB,Lag5_T1P_T2P,5,P,P,8,13,7,3,16,shrimp,Did you see the shrimp?,0.12,0.016,JPG\,globe,belt02a,sponge01,violin,fork03c,tomato01,clock01a,cocktailshrimp02,balloon01b,scarf,teabag,pen04b,stapler03a,brownsugar,speaker04,screwdriver04b,blankImage,cocktailshrimp02,,,,,,,,,,,,0,80,80,169,,,,,,,,,,,,,,,,,,,,,,,,,,,,,,,,,,,559.8641464000102,560.8760163000552,560.8594413000392,561.441801100038,561.441801100038,None,563.3373156000162,None,right,0.47430890006944537,563.3373156000162,None,563.8290800000541,None,right,0.14968679996673018,563.8290800000541,None,,,,,,,,,,,,,,,,,,,,,,,PPT35,001,2022-07-06_09h03.35.813,ABstudy,2022.1.4,59.952865061510394,
AB,Lag1_T1P_T2P,1,P,P,7,8,6,3,11,Daddy Long Legs,Did you see the Daddy Long Legs?,0.12,0.016,JPG\,lighter01,hammer01,spoon01,chain01,cymbal,sponge01,daddylonglegs,stapler03b,pig,watermelon01,cauliflower01,blankImage,blankImage,blankImage,blankImage,blankImage,blankImage,daddylonglegs,,,,,,,,,,,,0,81,81,86,,,,,,,,,,,,,,,,,,,,,,,,,,,,,,,,,,,563.9997872000095,565.0135640000226,564.980197600089,565.5597769999877,565.5597769999877,None,566.9059493000386,None,left,0.9927836999995634,566.9059493000386,None,567.9163860999979,None,right,0.27851230010855943,567.9163860999979,None,,,,,,,,,,,,,,,,,,,,,,,PPT35,001,2022-07-06_09h03.35.813,ABstudy,2022.1.4,59.952865061510394,
AB,Lag5_T1P_T2P,5,P,P,6,11,5,3,14,ladder,Did you see the ladder?,0.12,0.016,JPG\,celery,orange,scissors01,balloon01b,avocado01,stepladder,mushroom01,sewingmachine01a,lighter01,dice05a,stapler01,fan,cd,sock01a,blankImage,blankImage,blankImage,stepladder,,,,,,,,,,,,0,82,82,119,,,,,,,,,,,,,,,,,,,,,,,,,,,,,,,,,,,568.2600610000081,569.2675976000028,569.2509329000022,569.8658683000831,569.8658683000831,None,571.4777038000757,None,left,0.4932487999321893,571.4777038000757,None,571.9875929000555,None,left,0.12771550007164478,571.9875929000555,None,,,,,,,,,,,,,,,,,,,,,,,PPT35,001,2022-07-06_09h03.35.813,ABstudy,2022.1.4,59.952865061510394,
AB,Lag5_T1A_T2A,5,A,A,6,11,5,5,16,shrimp,Did you see the shrimp?,0.12,0.016,JPG\,speaker04,sewingmachine01a,eraser,violin,globe,belt02a,sunglasses04,cymbal,cd,greenolive,alligator,pear01,watch02a,screwdriver04b,banana01,cigarette,blankImage,rollerblade,,,,,,,,,,,,0,83,83,300,,,,,,,,,,,,,,,,,,,,,,,,,,,,,,,,,,,572.1440158000914,573.1552952000638,573.1383385000518,573.7196701000212,573.7196701000212,None,575.7040640000487,None,right,0.794825499993749,575.7040640000487,None,576.5248866000911,None,right,0.15809599997010082,576.5248866000911,None,,,,,,,,,,,,,,,,,,,,,,,PPT35,001,2022-07-06_09h03.35.813,ABstudy,2022.1.4,59.952865061510394,
AB,Lag5_T1P_T2P,5,P,P,8,13,7,3,16,Chefs hat,Did you see the Chefs hat?,0.12,0.016,JPG\,rice,watermelon01,tableknife02,scarf,computerkeyboard02,cauliflower01,battery02b,chefshat,book01b,sandal,sponge01,microscope,stapler01,fork03c,thermometer02b,apple07,blankImage,chefshat,,,,,,,,,,,,0,84,84,128,,,,,,,,,,,,,,,,,,,,,,,,,,,,,,,,,,,576.7123057000572,577.7260351000587,577.7093086000532,578.2901590000838,578.2901590000838,None,580.2632350000786,None,right,1.1241980999475345,580.2632350000786,None,581.4131262000883,None,right,0.2784395999042317,581.4131262000883,None,,,,,,,,,,,,,,,,,,,,,,,PPT35,001,2022-07-06_09h03.35.813,ABstudy,2022.1.4,59.952865061510394,
AB,Lag1_T1P_T2A,1,P,A,5,6,4,5,11,Sailboat,Did you see the Sailboat?,0.12,0.016,JPG\,chain01,speaker04,avocado01,watermelon01,sailboat,comb02a,lamp04a,fork03c,toaster01,slipper03b,scissors01,blankImage,blankImage,blankImage,blankImage,blankImage,blankImage,sailboat,,,,,,,,,,,,0,85,85,193,,,,,,,,,,,,,,,,,,,,,,,,,,,,,,,,,,,581.7200609000865,582.7315112000797,582.7149340000469,583.3021052000113,583.3021052000113,None,584.7132914999966,None,left,0.5706891000736505,584.7132914999966,None,585.300462000072,None,right,0.22247399995103478,585.300462000072,None,,,,,,,,,,,,,,,,,,,,,,,PPT35,001,2022-07-06_09h03.35.813,ABstudy,2022.1.4,59.952865061510394,
AB,Lag5_T1P_T2P,5,P,P,7,12,6,5,17,elbow,Did you see the elbow?,0.12,0.016,JPG\,candle01,fork03c,plate01b,violin,computerkeyboard02,candy,elbow,paintbrush01,cherry01,sock01a,teabag,stapler01,cd,lighter01,book01b,tennisball01b,blankImage,elbow,,,,,,,,,,,,0,86,86,87,,,,,,,,,,,,,,,,,,,,,,,,,,,,,,,,,,,585.5538340000203,586.568175900029,586.5352932000533,587.1131567000411,587.1131567000411,None,589.1013493000064,None,right,0.6772614000365138,589.1013493000064,None,589.8047601000872,None,left,0.2631347000133246,589.8047601000872,None,,,,,,,,,,,,,,,,,,,,,,,PPT35,001,2022-07-06_09h03.35.813,ABstudy,2022.1.4,59.952865061510394,
AB,Lag1_T1P_T2P,1,P,P,6,7,5,4,11,bowling pin,Did you see the bowling pin?,0.12,0.016,JPG\,strawberry,leaf02a,clock04,candle01,avocado01,bowlingpin,stapler03a,brownsugar,ring01,lemon02,fork03c,blankImage,blankImage,blankImage,blankImage,blankImage,blankImage,bowlingpin,,,,,,,,,,,,0,87,87,8,,,,,,,,,,,,,,,,,,,,,,,,,,,,,,,,,,,590.0977752000326,591.106022400083,591.0893291000975,591.6862059000414,591.6862059000414,None,593.0669887000695,None,left,0.7922264999942854,593.0669887000695,None,593.8755843000254,None,right,0.1994776000501588,593.8755843000254,None,,,,,,,,,,,,,,,,,,,,,,,PPT35,001,2022-07-06_09h03.35.813,ABstudy,2022.1.4,59.952865061510394,
AB,Lag5_T1P_T2P,5,P,P,7,12,6,3,15,Eye patch,Did you see the Eye patch?,0.12,0.016,JPG\,candle01,paintbrush01,scissors01,fan,microscope,toothbrush03b,eyepatch,watermelon01,teabag,pencil01,lemon02,stapler05,shirt02,cauliflower01,cd,blankImage,blankImage,eyepatch,,,,,,,,,,,,0,88,88,108,,,,,,,,,,,,,,,,,,,,,,,,,,,,,,,,,,,594.0991786000086,595.1102228000527,595.0935122000519,595.6546179000288,595.6546179000288,None,597.4749721999979,None,left,0.463890100014396,597.4749721999979,None,597.96293290006,None,left,0.14507820003200322,597.96293290006,None,,,,,,,,,,,,,,,,,,,,,,,PPT35,001,2022-07-06_09h03.35.813,ABstudy,2022.1.4,59.952865061510394,
AB,Lag5_T1A_T2P,5,A,P,6,11,5,4,15,fish,Did you see the fish?,0.12,0.016,JPG\,pingpongpaddle01c,banana01,scissors01,pig,shirt02,leaf02a,pear01,sponge01,fork03c,tableknife02,stapler03a,match,toothbrush03b,birthdaycandle,candle01,blankImage,blankImage,lighthouse,,,,,,,,,,,,0,89,89,265,,,,,,,,,,,,,,,,,,,,,,,,,,,,,,,,,,,598.1351379000116,599.1475744000636,599.1308661000803,599.7194622000679,599.7194622000679,None,601.5091928000329,None,right,1.1347016000654548,601.5091928000329,None,602.6676650000736,None,right,1.2157702000113204,602.6676650000736,None,,,,,,,,,,,,,,,,,,,,,,,PPT35,001,2022-07-06_09h03.35.813,ABstudy,2022.1.4,59.952865061510394,
AB,Lag1_T1P_T2A,1,P,A,8,9,7,5,14,Fridge,Did you see the Fridge?,0.12,0.016,JPG\,cherry01,cymbal,envelope03a,foosballtable,shirt02,cellphone,sewingmachine01a,fridge,battery02b,apple07,pencil01,screwdriver04b,strawberry,sunglasses04,blankImage,blankImage,blankImage,fridge,,,,,,,,,,,,0,90,90,173,,,,,,,,,,,,,,,,,,,,,,,,,,,,,,,,,,,603.9080734000308,604.919942400069,604.9033683000598,605.4706090000691,605.4706090000691,None,607.2197258000961,None,right,1.1275797000853345,607.2197258000961,None,608.3732084000949,None,right,0.149940500035882,608.3732084000949,None,,,,,,,,,,,,,,,,,,,,,,,PPT35,001,2022-07-06_09h03.35.813,ABstudy,2022.1.4,59.952865061510394,
AB,Lag1_T1P_T2P,1,P,P,6,7,5,3,10,fortune cookie,Did you see the fortune cookie?,0.12,0.016,JPG\,scissors01,grape01,mushroom01,toiletpaper01a,greenolive,fortunecookie,stapler03b,ashtray01,carrot01,pineapple01a,blankImage,blankImage,blankImage,blankImage,blankImage,blankImage,blankImage,fortunecookie,,,,,,,,,,,,0,91,91,42,,,,,,,,,,,,,,,,,,,,,,,,,,,,,,,,,,,608.5922900000587,609.6079003000632,609.5912595000118,610.1689464000519,610.1689464000519,None,611.316436800058,None,right,1.4463575999252498,611.316436800058,None,612.7944582999917,None,right,0.6642137001035735,612.7944582999917,None,,,,,,,,,,,,,,,,,,,,,,,PPT35,001,2022-07-06_09h03.35.813,ABstudy,2022.1.4,59.952865061510394,
AB,Lag1_T1P_T2P,1,P,P,7,8,6,3,11,cloud,Did you see the cloud?,0.12,0.016,JPG\,lighter01,hammer01,spoon01,chain01,cymbal,sponge01,cloud,stapler06,pig,watermelon01,cauliflower01,blankImage,blankImage,blankImage,blankImage,blankImage,blankImage,cloud,,,,,,,,,,,,0,92,92,36,,,,,,,,,,,,,,,,,,,,,,,,,,,,,,,,,,,613.4819012000225,614.4961186000146,614.4794103000313,615.1293565999949,615.0524540999904,None,616.4125397000462,None,left,0.7346034999936819,616.4125397000462,None,617.1649600000819,None,right,0.4545037999050692,617.1649600000819,None,,,,,,,,,,,,,,,,,,,,,,,PPT35,001,2022-07-06_09h03.35.813,ABstudy,2022.1.4,59.952865061510394,
AB,Lag5_T1A_T2P,5,A,P,5,10,4,4,14,mail box,Did you see the mail box?,0.12,0.016,JPG\,button01,celery,birthdaycandle,apple07,avocado01,tennisball01b,dice05a,teabag,clock01a,stapler05,tomato01,scarf,orange,battery02b,blankImage,blankImage,blankImage,jeep,,,,,,,,,,,,0,93,93,263,,,,,,,,,,,,,,,,,,,,,,,,,,,,,,,,,,,617.6549015000928,618.6671543000266,618.6503674000269,619.2244271000382,619.2244271000382,None,620.9299658000236,None,right,1.0892723000142723,620.9299658000236,None,622.0370081000729,None,right,0.5583936999319121,622.0370081000729,None,,,,,,,,,,,,,,,,,,,,,,,PPT35,001,2022-07-06_09h03.35.813,ABstudy,2022.1.4,59.952865061510394,
AB,Lag1_T1A_T2A,1,A,A,5,6,4,3,9,Pigeon,Did you see the Pigeon?,0.12,0.016,JPG\,candle01,paintbrush01,scissors01,fan,microscope,toothbrush03b,candle08b,watermelon01,teabag,blankImage,blankImage,blankImage,blankImage,blankImage,blankImage,blankImage,blankImage,floorlamp,,,,,,,,,,,,0,94,94,286,,,,,,,,,,,,,,,,,,,,,,,,,,,,,,,,,,,622.6209447000874,623.6214634000789,623.6049007000402,624.1631010000128,624.1631010000128,None,625.3313316000858,None,right,0.864049099967815,625.3313316000858,None,626.2251174000558,None,right,0.3774058000417426,626.2251174000558,None,,,,,,,,,,,,,,,,,,,,,,,PPT35,001,2022-07-06_09h03.35.813,ABstudy,2022.1.4,59.952865061510394,
AB,Lag5_T1P_T2P,5,P,P,6,11,5,3,14,shower head,Did you see the shower head?,0.12,0.016,JPG\,belt02a,measuringcup01,spoon01,chain01,greenolive,showerhead01,computerkeyboard02,onion,fan,strawberry,stapler01,broom01,binoculars01b,ashtray01,blankImage,blankImage,blankImage,showerhead01,,,,,,,,,,,,0,95,95,98,,,,,,,,,,,,,,,,,,,,,,,,,,,,,,,,,,,626.633827200043,627.6423202001024,627.6256182000507,628.2040231000865,628.2040231000865,None,629.8947235000087,None,left,0.6456913000438362,629.8947235000087,None,630.5619241000386,None,right,0.9126313000451773,630.5619241000386,None,,,,,,,,,,,,,,,,,,,,,,,PPT35,001,2022-07-06_09h03.35.813,ABstudy,2022.1.4,59.952865061510394,
AB,Lag5_T1P_T2P,5,P,P,6,11,5,4,15,shovel,Did you see the shovel?,0.12,0.016,JPG\,carrot01,watch02a,clock04,microscope,toiletpaper01a,shovel01,alligator,ring01,brick,watermelon01,stapler03b,pencil01,measuringcup01,balloon01b,computerkeyboard02,blankImage,blankImage,shovel01,,,,,,,,,,,,0,96,96,139,,,,,,,,,,,,,,,,,,,,,,,,,,,,,,,,,,,631.4994851000374,632.5139287000056,632.4805940000806,633.0574807000812,633.0574807000812,None,634.8947732000379,None,right,1.0037135999882594,634.8947732000379,None,635.9172864001011,None,right,0.501393900020048,635.9172864001011,None,,,,,,,,,,,,,,,,,,,,,,,PPT35,001,2022-07-06_09h03.35.813,ABstudy,2022.1.4,59.952865061510394,
AB,Lag1_T1P_T2P,1,P,P,5,6,4,3,9,Pumpkin,Did you see the Pumpkin?,0.12,0.016,JPG\,binoculars01b,speaker04,sandal,envelope03a,pumpkin,stapler03b,battery02b,chain01,measuringcup01,blankImage,blankImage,blankImage,blankImage,blankImage,blankImage,blankImage,blankImage,pumpkin,,,,,,,,,,,,0,97,97,23,,,,,,,,,,,,,,,,,,,,,,,,,,,,,,,,,,,636.4543769999873,637.4690645000665,637.435755200102,638.1034762000199,638.1034762000199,None,639.1528574000113,None,right,0.6420988000463694,639.1528574000113,None,639.821396100102,None,right,0.5577039999188855,639.821396100102,None,,,,,,,,,,,,,,,,,,,,,,,PPT35,001,2022-07-06_09h03.35.813,ABstudy,2022.1.4,59.952865061510394,
AB,Lag1_T1P_T2P,1,P,P,7,8,6,4,12,rooster,Did you see the rooster?,0.12,0.016,JPG\,pizza,strawberry,potato02b,speaker04,battery02b,iron01b,rooster,stapler03b,globe,banana01,medal02b,baseball01a,blankImage,blankImage,blankImage,blankImage,blankImage,rooster,,,,,,,,,,,,0,98,98,69,,,,,,,,,,,,,,,,,,,,,,,,,,,,,,,,,,,640.4085591000039,641.4229181000264,641.4062688000267,642.0715047999984,641.9841503000353,None,643.4622144000605,None,left,0.4526179999811575,643.4622144000605,None,643.9419654000085,None,left,0.25304929993581027,643.9419654000085,None,,,,,,,,,,,,,,,,,,,,,,,PPT35,001,2022-07-06_09h03.35.813,ABstudy,2022.1.4,59.952865061510394,
AB,Lag1_T1P_T2A,1,P,A,7,8,6,3,11,walkie talkie,Did you see the walkie talkie?,0.12,0.016,JPG\,teabag,envelope03a,cellphone,apple07,cauliflower01,orange,walkietalkie,book01b,hammer01,feather03a,toaster01,blankImage,blankImage,blankImage,blankImage,blankImage,blankImage,walkietalkie,,,,,,,,,,,,0,99,99,197,,,,,,,,,,,,,,,,,,,,,,,,,,,,,,,,,,,644.23008940008,645.2433740000706,645.2267147999955,645.8100166000659,645.8100166000659,None,647.1346845000517,None,left,0.7732047999743372,647.1346845000517,None,647.9292246000841,None,right,0.16989779996220022,647.9292246000841,None,,,,,,,,,,,,,,,,,,,,,,,PPT35,001,2022-07-06_09h03.35.813,ABstudy,2022.1.4,59.952865061510394,
AB,Lag5_T1P_T2P,5,P,P,8,13,7,3,16,banjo,Did you see the banjo?,0.12,0.016,JPG\,celery,brownsugar,key01,sunglasses04,leaf02a,toothbrush03b,dice05a,banjo,scarf,globe,paintbrush01,scissors01,stapler03a,battery02b,feather03a,cymbal,blankImage,banjo,,,,,,,,,,,,0,100,100,102,,,,,,,,,,,,,,,,,,,,,,,,,,,,,,,,,,,648.1295979000861,649.1306301000295,649.1138701000018,649.6988847000757,649.6988847000757,None,651.5806732000783,None,left,1.1659247999778017,651.5806732000783,None,652.7676136000082,None,left,0.15495009999722242,652.7676136000082,None,,,,,,,,,,,,,,,,,,,,,,,PPT35,001,2022-07-06_09h03.35.813,ABstudy,2022.1.4,59.952865061510394,
AB,Lag1_T1P_T2A,1,P,A,8,9,7,5,14,Parrot,Did you see the Parrot?,0.12,0.016,JPG\,candy,brownsugar,dice05a,cd,sock01a,blueberry01,button01,parrot01,feather03a,grape01,dandelion,scissors01,watch02a,candle08b,blankImage,blankImage,blankImage,parrot01,,,,,,,,,,,,0,101,101,192,,,,,,,,,,,,,,,,,,,,,,,,,,,,,,,,,,,652.9563171000918,653.9692074999912,653.9524626000784,654.5230120000197,654.5230120000197,None,656.2553563000401,None,left,0.684653399977833,656.2553563000401,None,656.9718218999915,None,right,0.24779779999516904,656.9718218999915,None,,,,,,,,,,,,,,,,,,,,,,,PPT35,001,2022-07-06_09h03.35.813,ABstudy,2022.1.4,59.952865061510394,
AB,Lag5_T1P_T2P,5,P,P,6,11,5,4,15,saxophone,Did you see the saxophone?,0.12,0.016,JPG\,pizza,strawberry,potato02b,speaker04,battery02b,saxophone,dice05a,cellphone,globe,banana01,stapler03b,baseball01a,toaster01,broom01,ring01,blankImage,blankImage,saxophone,,,,,,,,,,,,0,102,102,117,,,,,,,,,,,,,,,,,,,,,,,,,,,,,,,,,,,657.2846705000848,658.2897242000327,658.2730383999879,658.8734438000247,658.8734438000247,None,660.6050544000464,None,right,0.8872009000042453,660.6050544000464,None,661.5094920000993,None,right,0.38152359996456653,661.5094920000993,None,,,,,,,,,,,,,,,,,,,,,,,PPT35,001,2022-07-06_09h03.35.813,ABstudy,2022.1.4,59.952865061510394,
AB,Lag5_T1P_T2P,5,P,P,7,12,6,4,16,Recycling bin,Did you see the Recycling bin?,0.12,0.016,JPG\,broccoli01a,scissors01,toothbrush03b,foosballtable,iron01b,brick,recyclingbin,toiletpaper01a,cd,garlic01a,carrot01,stapler03a,envelope03a,battery02b,balloon01b,broom01,blankImage,recyclingbin,,,,,,,,,,,,0,103,103,157,,,,,,,,,,,,,,,,,,,,,,,,,,,,,,,,,,,661.9136868000496,662.9275497000199,662.9108171000844,663.5534334999975,663.4751764000393,None,665.4177099000663,None,right,0.9059133999980986,665.4177099000663,None,666.3476162001025,None,left,0.3593105999752879,666.3476162001025,None,,,,,,,,,,,,,,,,,,,,,,,PPT35,001,2022-07-06_09h03.35.813,ABstudy,2022.1.4,59.952865061510394,
AB,Lag5_T1P_T2P,5,P,P,5,10,4,5,15,hockey puck,Did you see the hockey puck?,0.12,0.016,JPG\,chain01,pen04b,birthdaycandle,watermelon01,hockeypuck,scissors01,measuringcup01,candle01,hammer01,stapler06,ashtray01,feather03a,sewingmachine01a,thermometer02b,alligator,blankImage,blankImage,hockeypuck,,,,,,,,,,,,0,104,104,110,,,,,,,,,,,,,,,,,,,,,,,,,,,,,,,,,,,666.7345158000244,667.7489878000924,667.7156031000195,668.2897516000085,668.2897516000085,None,670.03464670002,None,left,1.3370238000061363,670.03464670002,None,671.4025705000386,None,right,0.4640093999914825,671.4025705000386,None,,,,,,,,,,,,,,,,,,,,,,,PPT35,001,2022-07-06_09h03.35.813,ABstudy,2022.1.4,59.952865061510394,
AB,Lag1_T1A_T2A,1,A,A,8,9,7,3,12,popcorn,Did you see the popcorn?,0.12,0.016,JPG\,brownsugar,candle01,match,printer02,broom01,balloon01b,belt02a,potato02b,computerkeyboard02,feather03a,rice,mushroom01,blankImage,blankImage,blankImage,blankImage,blankImage,banjo,,,,,,,,,,,,0,105,105,290,,,,,,,,,,,,,,,,,,,,,,,,,,,,,,,,,,,671.9239174000686,672.9376062999945,672.9211949000601,673.4216623000102,673.4216623000102,None,674.919777900097,None,right,1.7230931000085548,674.919777900097,None,676.6745093000354,None,right,0.12844700005371124,676.6745093000354,None,,,,,,,,,,,,,,,,,,,,,,,PPT35,001,2022-07-06_09h03.35.813,ABstudy,2022.1.4,59.952865061510394,
AB,Lag1_T1P_T2P,1,P,P,8,9,7,3,12,bridge,Did you see the bridge?,0.12,0.016,JPG\,speaker04,sewingmachine01a,eraser,violin,globe,belt02a,sunglasses04,bridge,stapler01,greenolive,alligator,pear01,blankImage,blankImage,blankImage,blankImage,blankImage,bridge,,,,,,,,,,,,0,106,106,78,,,,,,,,,,,,,,,,,,,,,,,,,,,,,,,,,,,676.8269306001021,677.8423829000676,677.8090560000855,678.4170315000229,678.4170315000229,None,679.9389560000272,None,left,0.479830399970524,679.9389560000272,None,680.4451544000767,None,right,0.2456246999790892,680.4451544000767,None,,,,,,,,,,,,,,,,,,,,,,,PPT35,001,2022-07-06_09h03.35.813,ABstudy,2022.1.4,59.952865061510394,
AB,Lag5_T1P_T2A,5,P,A,8,13,7,5,18,Nunchuks,Did you see the Nunchuks?,0.12,0.016,JPG\,celery,tennisball01b,calculator01,pear01,screw02,orange,button01,nunchuk,onion,apple07,iron01b,brownsugar,banana01,paintbrush01,dandelion,toothbrush03b,blankImage,nunchuk,,,,,,,,,,,,0,107,107,218,,,,,,,,,,,,,,,,,,,,,,,,,,,,,,,,,,,680.7210908000125,681.7301590000279,681.7134785000235,682.3225072000641,682.3225072000641,None,684.2223306000233,None,left,0.4287343999603763,684.2223306000233,None,684.6825033000205,None,right,0.30449409992434084,684.6825033000205,None,,,,,,,,,,,,,,,,,,,,,,,PPT35,001,2022-07-06_09h03.35.813,ABstudy,2022.1.4,59.952865061510394,
AB,Lag1_T1P_T2P,1,P,P,6,7,5,4,11,cash register,Did you see the cash register?,0.12,0.016,JPG\,leaf02a,apple07,cd,pineapple01a,envelope03a,cashregister01,stapler03b,8ball,rice,feather03a,lemon02,blankImage,blankImage,blankImage,blankImage,blankImage,blankImage,cashregister01,,,,,,,,,,,,0,108,108,79,,,,,,,,,,,,,,,,,,,,,,,,,,,,,,,,,,,685.0187009000219,686.0338539000368,686.0005384000251,686.5763572000433,686.5763572000433,None,687.9171835000161,None,left,0.4934913000324741,687.9171835000161,None,688.4363225999987,None,right,0.21448470000177622,688.4363225999987,None,,,,,,,,,,,,,,,,,,,,,,,PPT35,001,2022-07-06_09h03.35.813,ABstudy,2022.1.4,59.952865061510394,
AB,Lag1_T1P_T2A,1,P,A,5,6,4,5,11,Moon,Did you see the Moon?,0.12,0.016,JPG\,lamp04a,broccoli01a,alligator,garlic01a,moon,brownsugar,avocado01,ring01,leaf02a,cellphone,medal02b,blankImage,blankImage,blankImage,blankImage,blankImage,blankImage,moon,,,,,,,,,,,,0,109,109,190,,,,,,,,,,,,,,,,,,,,,,,,,,,,,,,,,,,688.6727216000436,689.687501700013,689.6540919000981,690.2468713000417,690.2468713000417,None,691.5590314000146,None,right,1.4519283000845462,691.5590314000146,None,693.0406245000195,None,right,0.2416559000266716,693.0406245000195,None,,,,,,,,,,,,,,,,,,,,,,,PPT35,001,2022-07-06_09h03.35.813,ABstudy,2022.1.4,59.952865061510394,
AB,Lag1_T1P_T2P,1,P,P,8,9,7,3,12,Wheelchair,Did you see the Wheelchair?,0.12,0.016,JPG\,cigarette,pig,banana01,strawberry,clock01a,plate01b,spoon01,wheelchair,stapler03b,pineapple01a,chain01,paintbrush01,blankImage,blankImage,blankImage,blankImage,blankImage,wheelchair,,,,,,,,,,,,0,110,110,27,,,,,,,,,,,,,,,,,,,,,,,,,,,,,,,,,,,693.3120970000746,694.3255932000466,694.308947200072,694.8843464000383,694.8843464000383,None,696.3438650000608,None,left,0.44304059993010014,696.3438650000608,None,696.8114024000242,None,right,0.18342730007134378,696.8114024000242,None,,,,,,,,,,,,,,,,,,,,,,,PPT35,001,2022-07-06_09h03.35.813,ABstudy,2022.1.4,59.952865061510394,
AB,Lag5_T1A_T2A,5,A,A,5,10,4,5,15,flower,Did you see the flower?,0.12,0.016,JPG\,clock01a,cellphone,toaster01,toothbrush03b,cauliflower01,microscope,comb02a,paintbrush01,scarf,clock04,sponge01,iron01b,watch02a,celery,ring01,blankImage,blankImage,stepladder,,,,,,,,,,,,0,111,111,303,,,,,,,,,,,,,,,,,,,,,,,,,,,,,,,,,,,697.0172857000725,698.0292766999919,698.0125320000807,698.6107643001014,698.6107643001014,None,700.42674730008,None,right,1.4879018999636173,700.42674730008,None,701.9331950000487,None,right,0.14142869994975626,701.9331950000487,None,,,,,,,,,,,,,,,,,,,,,,,PPT35,001,2022-07-06_09h03.35.813,ABstudy,2022.1.4,59.952865061510394,
AB,Lag1_T1P_T2P,1,P,P,6,7,5,3,10,drum sticks,Did you see the drum sticks?,0.12,0.016,JPG\,pineapple01a,tennisball01b,computerkeyboard02,feather03a,belt02a,drumstick,stapler03b,blueberry01,medal02b,alligator,blankImage,blankImage,blankImage,blankImage,blankImage,blankImage,blankImage,drumstick,,,,,,,,,,,,0,112,112,61,,,,,,,,,,,,,,,,,,,,,,,,,,,,,,,,,,,702.1046157000819,703.1176275000907,703.1012897000182,703.6707661000546,703.6707661000546,None,704.8193588000722,None,left,0.5194349999073893,704.8193588000722,None,705.3697326000547,None,right,0.4022235000738874,705.3697326000547,None,,,,,,,,,,,,,,,,,,,,,,,PPT35,001,2022-07-06_09h03.35.813,ABstudy,2022.1.4,59.952865061510394,
AB,Lag1_T1P_T2P,1,P,P,5,6,4,5,11,golf ball,Did you see the golf ball?,0.12,0.016,JPG\,foosballtable,cigarette,pen04b,birthdaycandle,golfball,stapler05,binoculars01b,chain01,potato02b,cauliflower01,paintbrush01,blankImage,blankImage,blankImage,blankImage,blankImage,blankImage,golfball,,,,,,,,,,,,0,113,113,13,,,,,,,,,,,,,,,,,,,,,,,,,,,,,,,,,,,705.8057991000824,706.8211342000868,706.7878075999906,707.2884342999896,707.2884342999896,None,708.7699853000231,None,left,0.6882537000346929,708.7699853000231,None,709.4907222000184,None,right,0.40757260005921125,709.4907222000184,None,,,,,,,,,,,,,,,,,,,,,,,PPT35,001,2022-07-06_09h03.35.813,ABstudy,2022.1.4,59.952865061510394,
AB,Lag5_T1P_T2A,5,P,A,7,12,6,3,15,Toy soldier,Did you see the Toy soldier?,0.12,0.016,JPG\,binoculars01b,cymbal,pizza,candy,paintbrush01,sponge01,toysoldier01b,thermometer02b,speaker04,lemon02,lipstick02a,strawberry,candle01,acorn,plate01b,blankImage,blankImage,toysoldier01b,,,,,,,,,,,,0,114,114,203,,,,,,,,,,,,,,,,,,,,,,,,,,,,,,,,,,,709.9289660000941,710.9421791000059,710.9254332000855,711.5036628000671,711.5036628000671,None,713.3285830999957,None,left,0.3698926999932155,713.3285830999957,None,713.7280749999918,None,right,0.17843929992523044,713.7280749999918,None,,,,,,,,,,,,,,,,,,,,,,,PPT35,001,2022-07-06_09h03.35.813,ABstudy,2022.1.4,59.952865061510394,
AB,Lag1_T1P_T2A,1,P,A,6,7,5,5,12,foot,Did you see the foot?,0.12,0.016,JPG\,watermelon01,cigarette,weight04a,cymbal,cauliflower01,foot,cherry01,broom01,battery02b,key01,baseball01a,iron01b,blankImage,blankImage,blankImage,blankImage,blankImage,foot,,,,,,,,,,,,0,115,115,188,,,,,,,,,,,,,,,,,,,,,,,,,,,,,,,,,,,713.9306218000129,714.9459884000244,714.9127331000054,715.5007525000256,715.5007525000256,None,717.0443863000255,None,left,1.3502770999912173,717.0443863000255,None,718.4160624000942,None,right,0.09958170005120337,718.4160624000942,None,,,,,,,,,,,,,,,,,,,,,,,PPT35,001,2022-07-06_09h03.35.813,ABstudy,2022.1.4,59.952865061510394,
AB,Lag1_T1A_T2A,1,A,A,8,9,7,4,13,sword fish,Did you see the sword fish?,0.12,0.016,JPG\,pizza,strawberry,potato02b,speaker04,battery02b,iron01b,dice05a,cellphone,globe,banana01,medal02b,baseball01a,toaster01,blankImage,blankImage,blankImage,blankImage,ear,,,,,,,,,,,,0,116,116,295,,,,,,,,,,,,,,,,,,,,,,,,,,,,,,,,,,,718.5362564000534,719.5508518000133,719.5174741999945,720.1054950000253,720.1054950000253,None,721.7303038000828,None,right,0.8647484000539407,721.7303038000828,None,722.6204985000659,None,right,0.17365270003210753,722.6204985000659,None,,,,,,,,,,,,,,,,,,,,,,,PPT35,001,2022-07-06_09h03.35.813,ABstudy,2022.1.4,59.952865061510394,
AB,Lag5_T1P_T2P,5,P,P,7,12,6,5,17,Pigeon,Did you see the Pigeon?,0.12,0.016,JPG\,strawberry,leaf02a,clock04,candle01,avocado01,paintbrush01,pigeon,brownsugar,ring01,lemon02,fork03c,stapler01,cauliflower01,tableknife02,tennisball01b,thermometer02b,blankImage,pigeon,,,,,,,,,,,,0,117,117,151,,,,,,,,,,,,,,,,,,,,,,,,,,,,,,,,,,,722.825180200045,723.8382706000702,723.821558500058,724.3996065000538,724.3996065000538,None,726.3092112999875,None,left,0.3970056999241933,726.3092112999875,None,726.7241957000224,None,right,0.06209799996577203,726.7241957000224,None,,,,,,,,,,,,,,,,,,,,,,,PPT35,001,2022-07-06_09h03.35.813,ABstudy,2022.1.4,59.952865061510394,
AB,Lag1_T1A_T2P,1,A,P,5,6,4,3,9,chimney,Did you see the chimney?,0.12,0.016,JPG\,cucumber,sponge01,alligator,pear01,ashtray01,stapler06,clock04,battery02b,fork03c,blankImage,blankImage,blankImage,blankImage,blankImage,blankImage,blankImage,blankImage,trophy01,,,,,,,,,,,,0,118,118,246,,,,,,,,,,,,,,,,,,,,,,,,,,,,,,,,,,,726.8090145000024,727.8086086000549,727.7918919000076,728.3652760999976,728.3652760999976,None,729.4801500000758,None,right,2.427631599945016,729.4801500000758,None,731.9296311000362,None,right,0.1448328000260517,731.9296311000362,None,,,,,,,,,,,,,,,,,,,,,,,PPT35,001,2022-07-06_09h03.35.813,ABstudy,2022.1.4,59.952865061510394,
AB,Lag5_T1P_T2P,5,P,P,8,13,7,5,18,Ping pong Table,Did you see the Ping pong Table?,0.12,0.016,JPG\,shirt02,match,screw02,foosballtable,blueberry01,pineapple01a,sewingmachine01a,pingpongtable,button01,comb02a,dice05a,measuringcup01,stapler04b,printer02,carrot01,watermelon01,blankImage,pingpongtable,,,,,,,,,,,,0,119,119,152,,,,,,,,,,,,,,,,,,,,,,,,,,,,,,,,,,,732.1009575000498,733.1142065000022,733.0976547000464,733.6875875000842,733.6875875000842,None,735.6446526000509,None,left,0.3672728999517858,735.6446526000509,None,736.0335966000566,None,left,0.13727680000010878,736.0335966000566,None,,,,,,,,,,,,,,,,,,,,,,,PPT35,001,2022-07-06_09h03.35.813,ABstudy,2022.1.4,59.952865061510394,
AB,Lag5_T1A_T2P,5,A,P,5,10,4,3,13,flower,Did you see the flower?,0.12,0.016,JPG\,cucumber,ring01,lipstick02a,microscope,violin,garlic01a,celery,lighter01,cherry01,stapler03a,belt02a,key01,binoculars01b,blankImage,blankImage,blankImage,blankImage,christmastree,,,,,,,,,,,,0,120,120,284,,,,,,,,,,,,,,,,,,,,,,,,,,,,,,,,,,,736.2027386000846,737.218090700102,737.1849901000969,737.7582169000525,737.7582169000525,None,739.3986481000902,None,right,1.1801266999682412,739.3986481000902,None,740.6050281000789,None,right,0.1817546000238508,740.6050281000789,None,,,,,,,,,,,,,,,,,,,,,,,PPT35,001,2022-07-06_09h03.35.813,ABstudy,2022.1.4,59.952865061510394,
AB,Lag1_T1P_T2P,1,P,P,7,8,6,5,13,horse,Did you see the horse?,0.12,0.016,JPG\,watermelon01,pencil01,microscope,blueberry01,computerkeyboard02,lamp04a,horse,stapler03b,sock01a,key01,binoculars01b,cauliflower01,ashtray01,blankImage,blankImage,blankImage,blankImage,horse,,,,,,,,,,,,0,121,121,3,,,,,,,,,,,,,,,,,,,,,,,,,,,,,,,,,,,740.8086751000956,741.8228902000701,741.7895224000094,742.3750197000336,742.3750197000336,None,743.9495458999882,None,left,0.6131901000626385,743.9495458999882,None,744.5923376000719,None,right,0.2907433999935165,744.5923376000719,None,,,,,,,,,,,,,,,,,,,,,,,PPT35,001,2022-07-06_09h03.35.813,ABstudy,2022.1.4,59.952865061510394,
AB,Lag1_T1A_T2A,1,A,A,8,9,7,3,12,punching bag,Did you see the punching bag?,0.12,0.016,JPG\,key01,apple07,ring01,leaf02a,hammer01,tableknife02,violin,sponge01,baseball01a,thermometer02b,celery,calculator01,blankImage,blankImage,blankImage,blankImage,blankImage,bathtub,,,,,,,,,,,,0,122,122,291,,,,,,,,,,,,,,,,,,,,,,,,,,,,,,,,,,,744.9163574000122,745.9270286000101,745.9103070000419,746.4960357000818,746.4960357000818,None,747.9483085999964,None,right,0.822768000070937,747.9483085999964,None,748.7965501000872,None,right,0.1905070999637246,748.7965501000872,None,,,,,,,,,,,,,,,,,,,,,,,PPT35,001,2022-07-06_09h03.35.813,ABstudy,2022.1.4,59.952865061510394,
AB,Lag5_T1P_T2P,5,P,P,6,11,5,3,14,wrench,Did you see the wrench?,0.12,0.016,JPG\,cherry01,cymbal,envelope03a,foosballtable,shirt02,stubbywrench01a,sewingmachine01a,candle08b,battery02b,apple07,stapler03b,screwdriver04b,strawberry,sunglasses04,blankImage,blankImage,blankImage,stubbywrench01a,,,,,,,,,,,,0,123,123,122,,,,,,,,,,,,,,,,,,,,,,,,,,,,,,,,,,,749.0167405999964,750.0310169000877,750.0144013999961,750.6707199000521,750.5974239000352,None,752.2910881000571,None,left,0.6478860999923199,752.2910881000571,None,752.9671598999994,None,right,0.13192940002772957,752.9671598999994,None,,,,,,,,,,,,,,,,,,,,,,,PPT35,001,2022-07-06_09h03.35.813,ABstudy,2022.1.4,59.952865061510394,
AB,Lag1_T1P_T2P,1,P,P,5,6,4,3,9,hockey stick,Did you see the hockey stick?,0.12,0.016,JPG\,violin,pizza,toothbrush03b,pineapple01a,hockeystick,stapler03b,candy,dandelion,clock04,blankImage,blankImage,blankImage,blankImage,blankImage,blankImage,blankImage,blankImage,hockeystick,,,,,,,,,,,,0,124,124,63,,,,,,,,,,,,,,,,,,,,,,,,,,,,,,,,,,,753.1214271000354,754.1350393000757,754.1016448000446,754.6814608999994,754.6814608999994,None,755.8228608000791,None,right,1.2197797999251634,755.8228608000791,None,757.0712076000636,None,left,0.24354940000921488,757.0712076000636,None,,,,,,,,,,,,,,,,,,,,,,,PPT35,001,2022-07-06_09h03.35.813,ABstudy,2022.1.4,59.952865061510394,
AB,Lag5_T1A_T2P,5,A,P,7,12,6,4,16,ear,Did you see the ear?,0.12,0.016,JPG\,candle01,shirt02,brick,orange,greenolive,toothbrush03b,pizza,thermometer02b,book01b,toiletpaper01a,sewingmachine01a,stapler01,candy,cymbal,potato02b,plate01b,blankImage,chair,,,,,,,,,,,,0,125,125,257,,,,,,,,,,,,,,,,,,,,,,,,,,,,,,,,,,,757.3533424000489,758.3558502000524,758.3225276001031,758.8971916000592,758.8971916000592,None,760.8844660000177,None,right,1.2615491000469774,760.8844660000177,None,762.1765026000794,None,left,1.9469432999612764,762.1765026000794,None,,,,,,,,,,,,,,,,,,,,,,,PPT35,001,2022-07-06_09h03.35.813,ABstudy,2022.1.4,59.952865061510394,
AB,Lag1_T1P_T2P,1,P,P,8,9,7,3,12,Fire hydrant,Did you see the Fire hydrant?,0.12,0.016,JPG\,foosballtable,candy,envelope03a,microscope,pencil01,leaf02a,scissors01,firehydrant,stapler01,dandelion,pineapple01a,hammer01,blankImage,blankImage,blankImage,blankImage,blankImage,firehydrant,,,,,,,,,,,,0,126,126,83,,,,,,,,,,,,,,,,,,,,,,,,,,,,,,,,,,,764.1516513000242,765.1629237000598,765.1461580999894,765.646630500094,765.646630500094,None,767.1454702999908,None,left,1.137350600096397,767.1454702999908,None,768.2993063000031,None,right,0.43960969999898225,768.2993063000031,None,,,,,,,,,,,,,,,,,,,,,,,PPT35,001,2022-07-06_09h03.35.813,ABstudy,2022.1.4,59.952865061510394,
AB,Lag1_T1A_T2P,1,A,P,8,9,7,5,14,clock,Did you see the clock?,0.12,0.016,JPG\,speaker04,sewingmachine01a,eraser,violin,globe,belt02a,sunglasses04,cymbal,stapler01,greenolive,alligator,pear01,watch02a,screwdriver04b,blankImage,blankImage,blankImage,peacock,,,,,,,,,,,,0,127,127,240,,,,,,,,,,,,,,,,,,,,,,,,,,,,,,,,,,,768.8066935000243,769.8170350000728,769.8003706000745,770.3907984000398,770.3907984000398,None,772.0219210000942,None,right,0.9720163999591023,772.0219210000942,None,773.0205933999969,None,left,0.4456482999958098,773.0205933999969,None,,,,,,,,,,,,,,,,,,,,,,,PPT35,001,2022-07-06_09h03.35.813,ABstudy,2022.1.4,59.952865061510394,
AB,Lag1_T1P_T2P,1,P,P,8,9,7,4,13,Hula hoop,Did you see the Hula hoop?,0.12,0.016,JPG\,brownsugar,candle01,match,printer02,broom01,balloon01b,belt02a,hulahoop,stapler04b,feather03a,rice,mushroom01,pencil01,blankImage,blankImage,blankImage,blankImage,hulahoop,,,,,,,,,,,,0,128,128,64,,,,,,,,,,,,,,,,,,,,,,,,,,,,,,,,,,,773.494185000076,774.5053879000479,774.4887585000833,774.9892549000215,774.9892549000215,None,776.7298012000974,None,left,0.9448920999420807,776.7298012000974,None,777.6919354000129,None,right,0.19968260009773076,777.6919354000129,None,,,,,,,,,,,,,,,,,,,,,,,PPT35,001,2022-07-06_09h03.35.813,ABstudy,2022.1.4,59.952865061510394,
AB,Lag5_T1P_T2P,5,P,P,5,10,4,5,15,baseball bat,Did you see the baseball bat?,0.12,0.016,JPG\,pizza,printer02,medal02b,spoon01,baseballbat,lighter01,belt02a,watermelon01,celery,stapler04b,screw02,comb02a,cauliflower01,lipstick02a,potato02b,blankImage,blankImage,baseballbat,,,,,,,,,,,,0,129,129,123,,,,,,,,,,,,,,,,,,,,,,,,,,,,,,,,,,,777.9138151000952,778.9266315000132,778.9098258999875,779.4903300000587,779.4903300000587,None,781.3477115000132,None,left,0.7437259000726044,781.3477115000132,None,782.1129822999937,None,right,1.4013096999842674,782.1129822999937,None,,,,,,,,,,,,,,,,,,,,,,,PPT35,001,2022-07-06_09h03.35.813,ABstudy,2022.1.4,59.952865061510394,
AB,Lag5_T1P_T2P,5,P,P,8,13,7,5,18,hand,Did you see the hand?,0.12,0.016,JPG\,foosballtable,candy,envelope03a,microscope,pencil01,leaf02a,scissors01,hand01b,grape01,dandelion,pineapple01a,hammer01,stapler03a,thermometer02b,ring01,sewingmachine01a,blankImage,hand01b,,,,,,,,,,,,0,130,130,131,,,,,,,,,,,,,,,,,,,,,,,,,,,,,,,,,,,783.5343420000281,784.5488236000529,784.5154163000407,785.0161319000181,785.0161319000181,None,787.0999447000213,None,left,2.2549239000072703,787.0999447000213,None,789.3868401000509,None,right,0.3190123999956995,789.3868401000509,None,,,,,,,,,,,,,,,,,,,,,,,PPT35,001,2022-07-06_09h03.35.813,ABstudy,2022.1.4,59.952865061510394,
AB,Lag5_T1A_T2P,5,A,P,8,13,7,3,16,ladder,Did you see the ladder?,0.12,0.016,JPG\,apple07,toiletpaper01a,pizza,dandelion,greenolive,eraser,microscope,violin,orange,lipstick02a,balloon01b,sandal,stapler01,fan,book01b,sewingmachine01a,blankImage,ostrich,,,,,,,,,,,,0,131,131,269,,,,,,,,,,,,,,,,,,,,,,,,,,,,,,,,,,,789.739746300038,790.7548994000535,790.7215962000191,791.3157438000198,791.3157438000198,None,793.3038667000365,None,right,1.2428803000366315,793.3038667000365,None,794.575464900001,None,right,0.2284186000470072,794.575464900001,None,,,,,,,,,,,,,,,,,,,,,,,PPT35,001,2022-07-06_09h03.35.813,ABstudy,2022.1.4,59.952865061510394,
AB,Lag1_T1P_T2A,1,P,A,6,7,5,3,10,Dragon fly,Did you see the Dragon fly?,0.12,0.016,JPG\,leaf02a,pear01,measuringcup01,cigarette,fan,dragonfly01,teabag,tableknife02,ring01,pencil01,blankImage,blankImage,blankImage,blankImage,blankImage,blankImage,blankImage,dragonfly01,,,,,,,,,,,,0,132,132,185,,,,,,,,,,,,,,,,,,,,,,,,,,,,,,,,,,,794.8342213000869,795.843006500043,795.8262452000054,796.3955254000612,796.3955254000612,None,797.6265884999884,None,left,0.4242383000673726,797.6265884999884,None,798.0788809000514,None,right,0.16318749997299165,798.0788809000514,None,,,,,,,,,,,,,,,,,,,,,,,PPT35,001,2022-07-06_09h03.35.813,ABstudy,2022.1.4,59.952865061510394,
AB,Lag5_T1P_T2P,5,P,P,7,12,6,3,15,Rollerblade,Did you see the Rollerblade?,0.12,0.016,JPG\,hammer01,sponge01,toaster01,cherry01,feather03a,mushroom01,rollerblade,pencil01,tennisball01b,brick,clock04,stapler06,teabag,garlic01a,envelope03a,blankImage,blankImage,rollerblade,,,,,,,,,,,,0,133,133,116,,,,,,,,,,,,,,,,,,,,,,,,,,,,,,,,,,,798.2684822999872,799.2801583000692,799.263427900034,799.8453718000092,799.8453718000092,None,801.6952739000553,None,left,0.45864750002510846,801.6952739000553,None,802.1828580000438,None,right,0.018996700062416494,802.1828580000438,None,,,,,,,,,,,,,,,,,,,,,,,PPT35,001,2022-07-06_09h03.35.813,ABstudy,2022.1.4,59.952865061510394,
AB,Lag1_T1P_T2P,1,P,P,5,6,4,3,9,camel,Did you see the camel?,0.12,0.016,JPG\,iron01b,brick,broccoli01a,balloon01b,dromedary,stapler05,sandal,teabag,scissors01,blankImage,blankImage,blankImage,blankImage,blankImage,blankImage,blankImage,blankImage,dromedary,,,,,,,,,,,,0,134,134,11,,,,,,,,,,,,,,,,,,,,,,,,,,,,,,,,,,,802.2351375001017,803.2505657000002,803.217179600033,803.797646400053,803.797646400053,None,804.870839200099,None,left,0.5645007999846712,804.870839200099,None,805.4527081000851,None,left,0.13354840001557022,805.4527081000851,None,,,,,,,,,,,,,,,,,,,,,,,PPT35,001,2022-07-06_09h03.35.813,ABstudy,2022.1.4,59.952865061510394,
AB,Lag5_T1P_T2P,5,P,P,6,11,5,5,16,keys,Did you see the keys?,0.12,0.016,JPG\,toiletpaper01a,mushroom01,medal02b,sandal,rice,foldingchair,feather03a,pizza,candle08b,garlic01a,stapler01,belt02a,cigarette,violin,lemon02,fork03c,blankImage,foldingchair,,,,,,,,,,,,0,135,135,125,,,,,,,,,,,,,,,,,,,,,,,,,,,,,,,,,,,805.604985400103,806.60393880005,806.5873493000399,807.1814823000459,807.1814823000459,None,809.1009389000246,None,right,0.9895892000058666,809.1009389000246,None,810.1075578000164,None,right,0.2388818000908941,810.1075578000164,None,,,,,,,,,,,,,,,,,,,,,,,PPT35,001,2022-07-06_09h03.35.813,ABstudy,2022.1.4,59.952865061510394,
AB,Lag5_T1A_T2P,5,A,P,5,10,4,5,15,Eye patch,Did you see the Eye patch?,0.12,0.016,JPG\,scissors01,balloon01b,eraser,feather03a,banana01,candle01,measuringcup01,calculator01,thermometer02b,stapler03b,pear01,carrot01,globe,baseball01a,leaf02a,blankImage,blankImage,cross01,,,,,,,,,,,,0,136,136,258,,,,,,,,,,,,,,,,,,,,,,,,,,,,,,,,,,,810.3812196000945,811.3922335000243,811.3754960000515,811.9416064000688,811.9416064000688,None,813.8050261000171,None,right,0.5733973999740556,813.8050261000171,None,814.3949481000891,None,right,0.24730980000458658,814.3949481000891,None,,,,,,,,,,,,,,,,,,,,,,,PPT35,001,2022-07-06_09h03.35.813,ABstudy,2022.1.4,59.952865061510394,
