TrialType,CondType,Lag,T1_PA,T2_PA,T1Loc,T2Loc,PreDistractor,PostDistractor,TotalImg,cueWord,T1cue,StimLength,isi,PicFolder,Img1,Img2,Img3,Img4,Img5,Img6,Img7,Img8,Img9,Img10,Img11,Img12,Img13,Img14,Img15,Img16,Img17,T1_Identity,ImageType,T1PA,T2PA,Picture,Image,FullPathName,FilePath,Practice_Trials.thisRepN,Practice_Trials.thisTrialN,Practice_Trials.thisN,Practice_Trials.thisIndex,trials.thisRepN,trials.thisTrialN,trials.thisN,trials.thisIndex,trials_2.thisRepN,trials_2.thisTrialN,trials_2.thisN,trials_2.thisIndex,Practice_Ins.started,Practice_Ins.stopped,End_Prac_Ins.keys,End_Prac_Ins.rt,End_Prac_Ins.started,End_Prac_Ins.stopped,text_2.started,text_2.stopped,Fixation_Cross_2.started,Fixation_Cross_2.stopped,Rapid_Image_Present_2.started,Rapid_Image_Present_2.stopped,key_resp.keys,key_resp.rt,key_resp.started,key_resp.stopped,T1Response_2.started,T1Response_2.stopped,T2Response_2.started,T2Response_2.stopped,key_resp_4.keys,key_resp_4.rt,key_resp_4.started,key_resp_4.stopped,text.started,text.stopped,End_Instructions.keys,End_Instructions.rt,End_Instructions.started,End_Instructions.stopped,text_5.started,text_5.stopped,FC.started,FC.stopped,Rapid_Image_Present.started,Rapid_Image_Present.stopped,T1Response.started,T1Response.stopped,key_resp_2.keys,key_resp_2.rt,key_resp_2.started,key_resp_2.stopped,T2Response.started,T2Response.stopped,key_resp_3.keys,key_resp_3.rt,key_resp_3.started,key_resp_3.stopped,text_6.started,text_6.stopped,Fin_ins.keys,Fin_ins.rt,Fin_ins.started,Fin_ins.stopped,MemTest.started,MemTest.stopped,MemResponse.keys,MemResponse.rt,MemResponse.started,MemResponse.stopped,Display.started,Display.stopped,text_7.started,text_7.stopped,endOfExperiment.started,endOfExperiment.stopped,key_resp_5.keys,key_resp_5.rt,key_resp_5.started,key_resp_5.stopped,participant,session,date,expName,psychopyVersion,frameRate,
,,,,,,,,,,,,,,,,,,,,,,,,,,,,,,,,,,,,,,,,,,,,,,,,,,,,15.517205400043167,None,space,49.23221759998705,15.517205400043167,None,,,,,,,,,,,,,,,,,,,,,,,,,,,,,,,,,,,,,,,,,,,,,,,,,,,,,,,,,,,,,,,,,PPT36,001,2022-07-06_10h02.29.464,ABstudy,2022.1.4,59.933892942980926,
AB_Prac,Lag1_T1A_T2A,1,A,A,8,9,7,3,12,Moose,Did you see the Moose?,0.5,0.016,JPG\,clothespin03b,corkscrew03a,drillbit03a,fusilli03a,needlenosepliers01,perfume01a,pistachio,scrubbingbrush05b,spatula03,toothpastetube,hinge,toydinosaur,blankImage,blankImage,blankImage,blankImage,blankImage,None,,,,,,,,0,0,0,10,,,,,,,,,,,,,,,64.82634200004395,65.83538280008361,65.80137750005815,66.48695970000699,66.48695970000699,None,right,2.567603199975565,72.44616990000941,None,72.44616990000941,None,75.04363170010038,None,left,2.057423199992627,75.04363170010038,None,,,,,,,,,,,,,,,,,,,,,,,,,,,,,,,,,,,,,,,,,,,,,,,PPT36,001,2022-07-06_10h02.29.464,ABstudy,2022.1.4,59.933892942980926,
AB_Prac,Lag1_T1P_T2A,1,P,A,8,9,7,5,14,flower,Did you see the flower?,0.5,0.016,JPG\,razor01,axe01,binder03b,bowl01,kettle01,lettuce,lime,plasticflower01b,mitten04,pencilcase01,plunger02,strawbasket01,toothpick02,wallet02a,blankImage,blankImage,blankImage,plasticflower01b,,,,,,,,0,1,1,5,,,,,,,,,,,,,,,77.20656700001564,78.21404340001754,78.19702680001501,78.76517580007203,78.76517580007203,None,left,2.07056159991771,85.83847000007518,None,85.83847000007518,None,87.94034690002445,None,right,1.233759899972938,87.94034690002445,None,,,,,,,,,,,,,,,,,,,,,,,,,,,,,,,,,,,,,,,,,,,,,,,PPT36,001,2022-07-06_10h02.29.464,ABstudy,2022.1.4,59.933892942980926,
AB_Prac,Lag5_T1A_T2A,5,A,A,6,11,5,5,16,castle,Did you see the castle?,0.5,0.016,JPG\,tape02a,englishmuffin,flask,ladle02a,monitor,peach01,keychain,squeegee01b,telephone01b,whisk,walkman,syringe02,baguette01,coaster,box01a,coffeepot03a,blankImage,None,,,,,,,,0,2,2,11,,,,,,,,,,,,,,,89.19846670003608,90.20961600006558,90.19373520009685,90.82294360001106,90.82294360001106,None,right,1.1837840999942273,98.81368610006757,None,98.81368610006757,None,100.01882880006451,None,right,0.6586043999996036,100.01882880006451,None,,,,,,,,,,,,,,,,,,,,,,,,,,,,,,,,,,,,,,,,,,,,,,,PPT36,001,2022-07-06_10h02.29.464,ABstudy,2022.1.4,59.933892942980926,
AB_Prac,Lag5_T1A_T2P,5,A,P,6,11,5,3,14,dog,Did you see the dog?,0.5,0.016,JPG\,bucket01a,doorlock,cookiecutter,fireextinguisher01,gluestick,highlighter02b,sportbag,spraybottle01,suitcase,thread02,stapler05,walnut01c,icecubetray01a,vikingmask01b,blankImage,blankImage,blankImage,None,,,,,,,,0,3,3,9,,,,,,,,,,,,,,,100.70711260009557,101.72056030004751,101.70415090001188,102.28871480003,102.28871480003,None,right,1.5860846999567002,109.28270930005237,None,109.28270930005237,None,110.89625380001962,None,left,2.4528559999307618,110.89625380001962,None,,,,,,,,,,,,,,,,,,,,,,,,,,,,,,,,,,,,,,,,,,,,,,,PPT36,001,2022-07-06_10h02.29.464,ABstudy,2022.1.4,59.933892942980926,
AB_Prac,Lag1_T1P_T2P,1,P,P,8,9,7,5,14,Tennis racket,Did you see the Tennis racket?,0.5,0.016,JPG\,coconut,computermouse06,croissant01,deodorant02a,pillow01a,peanut01,boot02b,tennisracket,stapler03b,crayon,eggplant,marker01a,plant01,radish01,blankImage,blankImage,blankImage,tennisracket,,,,,,,,0,4,4,0,,,,,,,,,,,,,,,113.37275610002689,114.38315500004683,114.36643749999348,114.96644260000903,114.96644260000903,None,left,1.787271699984558,122.02632280008402,None,122.02632280008402,None,123.84283860004507,None,left,0.762065100017935,123.84283860004507,None,,,,,,,,,,,,,,,,,,,,,,,,,,,,,,,,,,,,,,,,,,,,,,,PPT36,001,2022-07-06_10h02.29.464,ABstudy,2022.1.4,59.933892942980926,
AB_Prac,Lag5_T1P_T2P,5,P,P,7,12,6,3,15,vacuum,Did you see the vacuum?,0.5,0.016,JPG\,fork07b,lightbulb01,manshoe,saw02b,shoelace,soap03a,vacuumcleaner01,floortile01,necklace,doll,cabbage,stapler03a,hanger02a,laptop01a,nailpolish03b,blankImage,blankImage,vacuumcleaner01,,,,,,,,0,5,5,2,,,,,,,,,,,,,,,124.63383539998904,125.64459340006579,125.62786150001921,126.21237640001345,126.21237640001345,None,left,1.143663499969989,133.73391410009935,None,133.73391410009935,None,134.9034938000841,None,left,0.5419118000427261,134.9034938000841,None,,,,,,,,,,,,,,,,,,,,,,,,,,,,,,,,,,,,,,,,,,,,,,,PPT36,001,2022-07-06_10h02.29.464,ABstudy,2022.1.4,59.933892942980926,
AB_Prac,Lag5_T1P_T2P,5,P,P,5,10,4,5,15,washing machine,Did you see the washing machine?,0.5,0.016,JPG\,waterbottle03,wheel01,flashlight02b,zucchini01,washingmachine,headphones02b,nutcracker01,paintroller01,paperclip03,stapler06,ribbon04,electricrazor,bottleofredwine01,pitabread,pot02a,blankImage,blankImage,washingmachine,,,,,,,,0,6,6,4,,,,,,,,,,,,,,,135.4731374999974,136.48846830008551,136.45531750004739,137.0348083000863,137.0348083000863,None,left,0.7570063999155536,144.58411570009775,None,144.58411570009775,None,145.36433190002572,None,left,0.6488428000593558,145.36433190002572,None,,,,,,,,,,,,,,,,,,,,,,,,,,,,,,,,,,,,,,,,,,,,,,,PPT36,001,2022-07-06_10h02.29.464,ABstudy,2022.1.4,59.933892942980926,
AB_Prac,Lag1_T1P_T2P,1,P,P,6,7,5,5,12,triangle,Did you see the triangle?,0.5,0.016,JPG\,ginger,mousetrap,plum01,slipper01b,dropper01,triangle,stapler04b,pants,raspberry01,rope03,scale01a,vase01,blankImage,blankImage,blankImage,blankImage,blankImage,triangle,,,,,,,,0,7,7,1,,,,,,,,,,,,,,,146.0357211000519,147.0490359000396,147.0324924000306,147.62090500001796,147.62090500001796,None,right,0.8949412999209017,153.70236970006954,None,153.70236970006954,None,154.6235121000791,None,left,0.57416849990841,154.6235121000791,None,,,,,,,,,,,,,,,,,,,,,,,,,,,,,,,,,,,,,,,,,,,,,,,PPT36,001,2022-07-06_10h02.29.464,ABstudy,2022.1.4,59.933892942980926,
AB_Prac,Lag1_T1P_T2A,1,P,A,5,6,4,5,11,Webcam,Did you see the Webcam?,0.5,0.016,JPG\,pictureframe04,binder03b,straw,adjustablewrench01b,webcam,cane,hairdryer02a,icepack,kitchenscale01a,lifejacket,piggybank,blankImage,blankImage,blankImage,blankImage,blankImage,blankImage,webcam,,,,,,,,0,8,8,6,,,,,,,,,,,,,,,155.2382546000881,156.24178410007153,156.2250831000274,156.83152220002376,156.83152220002376,None,left,1.1584080000175163,162.38378180004656,None,162.38378180004656,None,163.56655019999016,None,right,0.5182492000749335,163.56655019999016,None,,,,,,,,,,,,,,,,,,,,,,,,,,,,,,,,,,,,,,,,,,,,,,,PPT36,001,2022-07-06_10h02.29.464,ABstudy,2022.1.4,59.933892942980926,
AB_Prac,Lag5_T1P_T2P,5,P,P,5,10,4,5,15,Vulture,Did you see the Vulture?,0.5,0.016,JPG\,shorts01,toast,ramekin01,bib,vulture,cracker02,date,glasses01a,hat03b,stapler01,measuringtape01,nail,pill,drum01,starfish01,blankImage,blankImage,vulture,,,,,,,,0,9,9,3,,,,,,,,,,,,,,,164.1256308000302,165.13394710002467,165.1172768000979,165.70776720007416,165.70776720007416,None,left,0.7941972999833524,173.21079380006995,None,173.21079380006995,None,174.02588470000774,None,left,1.1228427999885753,174.02588470000774,None,,,,,,,,,,,,,,,,,,,,,,,,,,,,,,,,,,,,,,,,,,,,,,,PPT36,001,2022-07-06_10h02.29.464,ABstudy,2022.1.4,59.933892942980926,
AB_Prac,Lag5_T1P_T2A,5,P,A,6,11,5,5,16,bread,Did you see the bread?,0.5,0.016,JPG\,cleaver01,clipboard,dustpan,hikingshoe01,notebook03a,baguette01,playingcard,pliers02b,styrofoamcup,rollingpin01a,swimgoggles,wineglass01,fryingpan02a,safetypin,syringe01,thimble,blankImage,baguette01,,,,,,,,0,10,10,8,,,,,,,,,,,,,,,175.19074480002746,176.195298000006,176.17972910008393,176.76842109998688,176.76842109998688,None,left,0.9178944999584928,184.7834295000648,None,184.7834295000648,None,185.72115690005012,None,right,0.4041344999568537,185.72115690005012,None,,,,,,,,,,,,,,,,,,,,,,,,,,,,,,,,,,,,,,,,,,,,,,,PPT36,001,2022-07-06_10h02.29.464,ABstudy,2022.1.4,59.933892942980926,
AB_Prac,Lag5_T1P_T2A,5,P,A,6,11,5,5,16,Wheat,Did you see the Wheat?,0.5,0.016,JPG\,bottleopener01,dentalfloss03b,cooler01,icecreamcone01a,paperclip01b,wheat,pencilsharpener02a,plasticbasket01a,toycar04,apricot,hairclip02,rock01a,honeydewmelon,antenna,blackberry,cardboardbox,blankImage,wheat,,,,,,,,0,11,11,7,,,,,,,,,,,,,,,186.2526054000482,187.25531849998515,187.24096190009732,187.85680489998776,187.85680489998776,None,left,0.7672421999741346,195.78177330002654,None,195.78177330002654,None,196.58190820005257,None,right,0.3272710999008268,196.58190820005257,None,,,,,,,,,,,,,,,,,,,,,,,,,,,,,,,,,,,,,,,,,,,,,,,PPT36,001,2022-07-06_10h02.29.464,ABstudy,2022.1.4,59.933892942980926,
,,,,,,,,,,,,,,,,,,,,,,,,,,,,,,,,,,,,,,,,,,,,,,,,,,,,,,,,,,,,,,,,,,,,,,,,,,,,196.93216850003228,None,space,15.145389699959196,196.93216850003228,None,,,,,,,,,,,,,,,,,,,,,,,,,,,,,,,,,,,,,,,,,PPT36,001,2022-07-06_10h02.29.464,ABstudy,2022.1.4,59.933892942980926,
AB,Lag1_T1P_T2P,1,P,P,8,9,7,5,14,finger print,Did you see the finger print?,0.12,0.016,JPG\,chain01,pen04b,birthdaycandle,watermelon01,broom01,scissors01,measuringcup01,fingerprint,stapler01,calculator01,ashtray01,feather03a,sewingmachine01a,thermometer02b,blankImage,blankImage,blankImage,fingerprint,,,,,,,,,,,,0,0,0,62,,,,,,,,,,,,,,,,,,,,,,,,,,,,,,,,,,,212.69203250005376,213.6988775000209,213.68234220007434,214.29427630000282,214.29427630000282,None,216.01834950002376,None,left,0.7546705000568181,216.01834950002376,None,216.80278040003031,None,right,1.2742165999952704,216.80278040003031,None,,,,,,,,,,,,,,,,,,,,,,,PPT36,001,2022-07-06_10h02.29.464,ABstudy,2022.1.4,59.933892942980926,
AB,Lag1_T1P_T2A,1,P,A,7,8,6,4,12,Steering wheel,Did you see the Steering wheel?,0.12,0.016,JPG\,alligator,banana01,apple07,tomato01,button01,spoon01,steeringwheel,fork03c,canoftennisballs,potato02b,grape01,leaf02a,blankImage,blankImage,blankImage,blankImage,blankImage,steeringwheel,,,,,,,,,,,,0,1,1,198,,,,,,,,,,,,,,,,,,,,,,,,,,,,,,,,,,,218.1115703000687,219.12132290005684,219.10572140000295,219.60792360000778,219.60792360000778,None,221.12267489999067,None,right,1.0426587000256404,221.12267489999067,None,222.19039990007877,None,right,0.934057499980554,222.19039990007877,None,,,,,,,,,,,,,,,,,,,,,,,PPT36,001,2022-07-06_10h02.29.464,ABstudy,2022.1.4,59.933892942980926,
AB,Lag5_T1P_T2P,5,P,P,7,12,6,5,17,truck,Did you see the truck?,0.12,0.016,JPG\,binoculars01b,speaker04,sandal,envelope03a,plate01b,comb02a,boxtruck,chain01,measuringcup01,key01,medal02b,stapler05,tennisball01b,pizza,cigarette,sunglasses04,blankImage,boxtruck,,,,,,,,,,,,0,2,2,166,,,,,,,,,,,,,,,,,,,,,,,,,,,,,,,,,,,223.1718755000038,224.17574980005156,224.14213940000627,224.73784700001124,224.73784700001124,None,226.67660770006478,None,right,2.064663599943742,226.67660770006478,None,228.7664695000276,None,left,0.4387706998968497,228.7664695000276,None,,,,,,,,,,,,,,,,,,,,,,,PPT36,001,2022-07-06_10h02.29.464,ABstudy,2022.1.4,59.933892942980926,
AB,Lag1_T1A_T2P,1,A,P,8,9,7,5,14,Wolf,Did you see the Wolf?,0.12,0.016,JPG\,carrot01,watch02a,clock04,microscope,toiletpaper01a,potato02b,alligator,ring01,stapler03b,watermelon01,cd,pencil01,measuringcup01,balloon01b,blankImage,blankImage,blankImage,dreamcatcher,,,,,,,,,,,,0,3,3,253,,,,,,,,,,,,,,,,,,,,,,,,,,,,,,,,,,,229.2333282000618,230.24867150001228,230.21527769998647,230.79628940008115,230.79628940008115,None,232.54172159999143,None,right,1.2555243000388145,232.54172159999143,None,233.8190023000352,None,left,0.38539539999328554,233.8190023000352,None,,,,,,,,,,,,,,,,,,,,,,,PPT36,001,2022-07-06_10h02.29.464,ABstudy,2022.1.4,59.933892942980926,
AB,Lag5_T1A_T2P,5,A,P,6,11,5,3,14,Kiwi,Did you see the Kiwi?,0.12,0.016,JPG\,paintbrush01,dice05a,watermelon01,broccoli01a,hammer01,leaf02a,match,tennisball01b,lemon02,fan,stapler06,grape01,envelope03a,sponge01,blankImage,blankImage,blankImage,granolabar01,,,,,,,,,,,,0,4,4,261,,,,,,,,,,,,,,,,,,,,,,,,,,,,,,,,,,,234.31569670001045,235.32025330001488,235.30350380006712,235.89179330004845,235.89179330004845,None,237.50957920006476,None,right,0.9830207999330014,237.50957920006476,None,238.52333490003366,None,left,0.3771435000235215,238.52333490003366,None,,,,,,,,,,,,,,,,,,,,,,,PPT36,001,2022-07-06_10h02.29.464,ABstudy,2022.1.4,59.933892942980926,
AB,Lag5_T1P_T2P,5,P,P,7,12,6,5,17,elbow,Did you see the elbow?,0.12,0.016,JPG\,candle01,fork03c,plate01b,violin,computerkeyboard02,candy,elbow,paintbrush01,cherry01,sock01a,teabag,stapler01,cd,lighter01,book01b,tennisball01b,blankImage,elbow,,,,,,,,,,,,0,5,5,87,,,,,,,,,,,,,,,,,,,,,,,,,,,,,,,,,,,238.92597199999727,239.94141820003279,239.9080680999905,240.4794763000682,240.4794763000682,None,242.49929050006904,None,left,0.5457903000060469,242.49929050006904,None,243.06232920009643,None,left,0.38227960001677275,243.06232920009643,None,,,,,,,,,,,,,,,,,,,,,,,PPT36,001,2022-07-06_10h02.29.464,ABstudy,2022.1.4,59.933892942980926,
AB,Lag1_T1P_T2P,1,P,P,5,6,4,3,9,camel,Did you see the camel?,0.12,0.016,JPG\,iron01b,brick,broccoli01a,balloon01b,dromedary,stapler05,sandal,teabag,scissors01,blankImage,blankImage,blankImage,blankImage,blankImage,blankImage,blankImage,blankImage,dromedary,,,,,,,,,,,,0,6,6,11,,,,,,,,,,,,,,,,,,,,,,,,,,,,,,,,,,,243.46574720006902,244.47946699999738,244.4629542999901,245.03405740007292,245.03405740007292,None,246.1824634000659,None,left,0.7592741999542341,246.1824634000659,None,246.96547110006213,None,right,0.3282524000387639,246.96547110006213,None,,,,,,,,,,,,,,,,,,,,,,,PPT36,001,2022-07-06_10h02.29.464,ABstudy,2022.1.4,59.933892942980926,
AB,Lag5_T1P_T2P,5,P,P,8,13,7,3,16,Chefs hat,Did you see the Chefs hat?,0.12,0.016,JPG\,rice,watermelon01,tableknife02,scarf,computerkeyboard02,cauliflower01,battery02b,chefshat,book01b,sandal,sponge01,microscope,stapler01,fork03c,thermometer02b,apple07,blankImage,chefshat,,,,,,,,,,,,0,7,7,128,,,,,,,,,,,,,,,,,,,,,,,,,,,,,,,,,,,247.32524810009636,248.33325780008454,248.31649540003855,248.90786690008827,248.90786690008827,None,250.9237430000212,None,right,0.9772386000258848,250.9237430000212,None,251.92003999999724,None,left,0.3409064000006765,251.92003999999724,None,,,,,,,,,,,,,,,,,,,,,,,PPT36,001,2022-07-06_10h02.29.464,ABstudy,2022.1.4,59.933892942980926,
AB,Lag5_T1A_T2P,5,A,P,6,11,5,4,15,fish,Did you see the fish?,0.12,0.016,JPG\,pingpongpaddle01c,banana01,scissors01,pig,shirt02,leaf02a,pear01,sponge01,fork03c,tableknife02,stapler03a,match,toothbrush03b,birthdaycandle,candle01,blankImage,blankImage,lighthouse,,,,,,,,,,,,0,8,8,265,,,,,,,,,,,,,,,,,,,,,,,,,,,,,,,,,,,252.28931230003946,253.3048122000182,253.27139420004096,253.86347340000793,253.86347340000793,None,255.6685415999964,None,right,0.8237083000130951,255.6685415999964,None,256.52435040008277,None,left,0.32860869995784014,256.52435040008277,None,,,,,,,,,,,,,,,,,,,,,,,PPT36,001,2022-07-06_10h02.29.464,ABstudy,2022.1.4,59.933892942980926,
AB,Lag1_T1A_T2A,1,A,A,8,9,7,4,13,Recycling bin,Did you see the Recycling bin?,0.12,0.016,JPG\,brick,plate01b,pen04b,toaster01,screwdriver04b,candle01,envelope03a,feather03a,pig,ring01,orange,clock01a,lighter01,blankImage,blankImage,blankImage,blankImage,bumpercar,,,,,,,,,,,,0,9,9,292,,,,,,,,,,,,,,,,,,,,,,,,,,,,,,,,,,,257.0119105000049,258.0263893000083,258.0097501000855,258.6038831000915,258.6038831000915,None,260.0270353000378,None,right,1.2252576999599114,260.0270353000378,None,261.2793274000287,None,left,0.31879130005836487,261.2793274000287,None,,,,,,,,,,,,,,,,,,,,,,,PPT36,001,2022-07-06_10h02.29.464,ABstudy,2022.1.4,59.933892942980926,
AB,Lag1_T1P_T2P,1,P,P,6,7,5,3,10,windmill,Did you see the windmill?,0.12,0.016,JPG\,pizza,printer02,medal02b,spoon01,grape01,windmill,stapler04b,watermelon01,celery,battery02b,blankImage,blankImage,blankImage,blankImage,blankImage,blankImage,blankImage,windmill,,,,,,,,,,,,0,10,10,75,,,,,,,,,,,,,,,,,,,,,,,,,,,,,,,,,,,261.6319047000725,262.64736619999167,262.61397140007466,263.2276036000112,263.2276036000112,None,264.40179949998856,None,left,0.8188670000527054,264.40179949998856,None,265.25018050009385,None,right,0.32248969993088394,265.25018050009385,None,,,,,,,,,,,,,,,,,,,,,,,PPT36,001,2022-07-06_10h02.29.464,ABstudy,2022.1.4,59.933892942980926,
AB,Lag5_T1A_T2P,5,A,P,7,12,6,5,17,Rollerblade,Did you see the Rollerblade?,0.12,0.016,JPG\,binoculars01b,cymbal,pizza,candy,paintbrush01,sponge01,grape01,thermometer02b,speaker04,lemon02,lipstick02a,stapler03b,candle01,8ball,plate01b,pen04b,blankImage,lion,,,,,,,,,,,,0,11,11,266,,,,,,,,,,,,,,,,,,,,,,,,,,,,,,,,,,,265.6072812000057,266.6183180999942,266.6017074000556,267.193428000086,267.193428000086,None,269.12742230005097,None,right,1.3339880999410525,269.12742230005097,None,270.48851240007207,None,left,0.36397950001992285,270.48851240007207,None,,,,,,,,,,,,,,,,,,,,,,,PPT36,001,2022-07-06_10h02.29.464,ABstudy,2022.1.4,59.933892942980926,
AB,Lag5_T1P_T2P,5,P,P,6,11,5,3,14,wrench,Did you see the wrench?,0.12,0.016,JPG\,cherry01,cymbal,envelope03a,foosballtable,shirt02,stubbywrench01a,sewingmachine01a,candle08b,battery02b,apple07,stapler03b,screwdriver04b,strawberry,sunglasses04,blankImage,blankImage,blankImage,stubbywrench01a,,,,,,,,,,,,0,12,12,122,,,,,,,,,,,,,,,,,,,,,,,,,,,,,,,,,,,270.87445220001973,271.88986760005355,271.8565591000952,272.453668900067,272.453668900067,None,274.138946400024,None,left,0.7457217000192031,274.138946400024,None,274.9099314000923,None,left,0.7106804999057204,274.9099314000923,None,,,,,,,,,,,,,,,,,,,,,,,PPT36,001,2022-07-06_10h02.29.464,ABstudy,2022.1.4,59.933892942980926,
AB,Lag1_T1A_T2P,1,A,P,7,8,6,3,11,Fox,Did you see the Fox?,0.12,0.016,JPG\,toaster01,chain01,sponge01,baseball01a,carrot01,belt02a,book01b,stapler03b,grape01,brick,celery,blankImage,blankImage,blankImage,blankImage,blankImage,blankImage,fingerprint,,,,,,,,,,,,0,13,13,234,,,,,,,,,,,,,,,,,,,,,,,,,,,,,,,,,,,275.6531732000876,276.66153330006637,276.64475960005075,277.2449382999912,277.2449382999912,None,278.5869070000481,None,right,0.7619483999442309,278.5869070000481,None,279.3809352000244,None,right,0.8798641000175849,279.3809352000244,None,,,,,,,,,,,,,,,,,,,,,,,PPT36,001,2022-07-06_10h02.29.464,ABstudy,2022.1.4,59.933892942980926,
AB,Lag5_T1A_T2P,5,A,P,6,11,5,3,14,saxophone,Did you see the saxophone?,0.12,0.016,JPG\,globe,belt02a,sponge01,violin,fork03c,tomato01,clock01a,microscope,balloon01b,scarf,stapler03b,pen04b,brick,brownsugar,blankImage,blankImage,blankImage,microphone01,,,,,,,,,,,,0,14,14,267,,,,,,,,,,,,,,,,,,,,,,,,,,,,,,,,,,,280.33605200005695,281.3499194000615,281.33431290008593,282.01515810005367,282.01515810005367,None,283.46949220006354,None,right,1.0308940999675542,283.46949220006354,None,284.52051430009305,None,left,0.47679350001271814,284.52051430009305,None,,,,,,,,,,,,,,,,,,,,,,,PPT36,001,2022-07-06_10h02.29.464,ABstudy,2022.1.4,59.933892942980926,
AB,Lag1_T1P_T2P,1,P,P,7,8,6,3,11,tree,Did you see the tree?,0.12,0.016,JPG\,pear01,clock01a,cymbal,match,ashtray01,globe,tree,stapler03b,lemon02,pen04b,dice05a,blankImage,blankImage,blankImage,blankImage,blankImage,blankImage,tree,,,,,,,,,,,,0,15,15,51,,,,,,,,,,,,,,,,,,,,,,,,,,,,,,,,,,,285.02550750004593,286.03761740005575,286.0210096000228,286.61333600000944,286.61333600000944,None,287.99699010001495,None,right,0.7285188999958336,287.99699010001495,None,288.75694510003086,None,left,0.2956255000317469,288.75694510003086,None,,,,,,,,,,,,,,,,,,,,,,,PPT36,001,2022-07-06_10h02.29.464,ABstudy,2022.1.4,59.933892942980926,
AB,Lag5_T1P_T2P,5,P,P,5,10,4,4,14,Salt shaker,Did you see the Salt shaker?,0.12,0.016,JPG\,fork03c,belt02a,grape01,computerkeyboard02,saltshaker03a,printer02,broom01,toiletpaper01a,toaster01,stapler01,book01b,blueberry01,spoon01,apple07,blankImage,blankImage,blankImage,saltshaker03a,,,,,,,,,,,,0,16,16,96,,,,,,,,,,,,,,,,,,,,,,,,,,,,,,,,,,,289.081095200032,290.09146140003577,290.074876000057,290.663965200074,290.663965200074,None,292.3550416000653,None,right,0.8576034000143409,292.3550416000653,None,293.24474700004794,None,left,0.2716173999942839,293.24474700004794,None,,,,,,,,,,,,,,,,,,,,,,,PPT36,001,2022-07-06_10h02.29.464,ABstudy,2022.1.4,59.933892942980926,
AB,Lag5_T1A_T2P,5,A,P,8,13,7,5,18,fish,Did you see the fish?,0.12,0.016,JPG\,scissors01,grape01,mushroom01,toiletpaper01a,greenolive,pizza,cigarette,ashtray01,carrot01,pineapple01a,foosballtable,lipstick02a,stapler04b,tambourine02,potato02b,violin,blankImage,chimney,,,,,,,,,,,,0,17,17,283,,,,,,,,,,,,,,,,,,,,,,,,,,,,,,,,,,,293.54796260001604,294.5625897999853,294.52924659999553,295.10978780000005,295.10978780000005,None,297.05295160005335,None,right,1.015860499930568,297.05295160005335,None,298.0997915000189,None,right,0.5450023000594229,298.0997915000189,None,,,,,,,,,,,,,,,,,,,,,,,PPT36,001,2022-07-06_10h02.29.464,ABstudy,2022.1.4,59.933892942980926,
AB,Lag1_T1P_T2P,1,P,P,5,6,4,5,11,owl,Did you see the owl?,0.12,0.016,JPG\,cellphone,tomato01,comb02a,candy,barnowl,stapler03a,toaster01,fan,feather03a,pen04b,lemon02,blankImage,blankImage,blankImage,blankImage,blankImage,blankImage,barnowl,,,,,,,,,,,,0,18,18,33,,,,,,,,,,,,,,,,,,,,,,,,,,,,,,,,,,,298.67112330009695,299.6848167000571,299.6690694000572,300.28415620001033,300.28415620001033,None,301.60410260001663,None,left,1.1444498000200838,301.60410260001663,None,302.77066390006803,None,left,0.36189649999141693,302.77066390006803,None,,,,,,,,,,,,,,,,,,,,,,,PPT36,001,2022-07-06_10h02.29.464,ABstudy,2022.1.4,59.933892942980926,
AB,Lag1_T1P_T2A,1,P,A,8,9,7,5,14,Parrot,Did you see the Parrot?,0.12,0.016,JPG\,candy,brownsugar,dice05a,cd,sock01a,blueberry01,button01,parrot01,feather03a,grape01,dandelion,scissors01,watch02a,candle08b,blankImage,blankImage,blankImage,parrot01,,,,,,,,,,,,0,19,19,192,,,,,,,,,,,,,,,,,,,,,,,,,,,,,,,,,,,303.1605099000735,304.1723087000428,304.1557158000069,304.75036260008346,304.75036260008346,None,306.4407600000268,None,left,0.4771026000380516,306.4407600000268,None,306.9414466000162,None,left,0.27081699995324016,306.9414466000162,None,,,,,,,,,,,,,,,,,,,,,,,PPT36,001,2022-07-06_10h02.29.464,ABstudy,2022.1.4,59.933892942980926,
AB,Lag5_T1A_T2P,5,A,P,7,12,6,3,15,hockey puck,Did you see the hockey puck?,0.12,0.016,JPG\,toiletpaper01a,lipstick02a,potato02b,speaker04,globe,strawberry,carrot01,plate01b,sock01a,candle08b,pen04b,stapler04b,foosballtable,brick,pear01,blankImage,blankImage,frisbee,,,,,,,,,,,,0,20,20,260,,,,,,,,,,,,,,,,,,,,,,,,,,,,,,,,,,,307.24609390005935,308.25957740005106,308.2427745000459,308.86439570004586,308.86439570004586,None,310.6705187000334,None,right,1.1097987999673933,310.6705187000334,None,311.8130364000099,None,left,0.48785720008891076,311.8130364000099,None,,,,,,,,,,,,,,,,,,,,,,,PPT36,001,2022-07-06_10h02.29.464,ABstudy,2022.1.4,59.933892942980926,
AB,Lag1_T1P_T2P,1,P,P,7,8,6,4,12,cow,Did you see the cow?,0.12,0.016,JPG\,fork03c,plate01b,toiletpaper01a,greenolive,rice,blueberry01,cow,stapler01,envelope03a,orange,book01b,pencil01,blankImage,blankImage,blankImage,blankImage,blankImage,cow,,,,,,,,,,,,0,21,21,59,,,,,,,,,,,,,,,,,,,,,,,,,,,,,,,,,,,312.3324045999907,313.34805870009586,313.31449100002646,313.8854266999988,313.8854266999988,None,315.40016180009115,None,left,0.9657686999998987,315.40016180009115,None,316.3844880000688,None,left,0.37245340005028993,316.3844880000688,None,,,,,,,,,,,,,,,,,,,,,,,PPT36,001,2022-07-06_10h02.29.464,ABstudy,2022.1.4,59.933892942980926,
AB,Lag1_T1P_T2P,1,P,P,8,9,7,3,12,Sheep,Did you see the Sheep?,0.12,0.016,JPG\,celery,orange,scissors01,balloon01b,avocado01,printer02,mushroom01,sheep,stapler03b,dice05a,ashtray01,fan,blankImage,blankImage,blankImage,blankImage,blankImage,sheep,,,,,,,,,,,,0,22,22,71,,,,,,,,,,,,,,,,,,,,,,,,,,,,,,,,,,,316.79040310007986,317.802936000051,317.7873378000222,318.3729134000605,318.3729134000605,None,319.79638020007405,None,left,0.744202799978666,319.79638020007405,None,320.5719200000167,None,left,0.3528110000770539,320.5719200000167,None,,,,,,,,,,,,,,,,,,,,,,,PPT36,001,2022-07-06_10h02.29.464,ABstudy,2022.1.4,59.933892942980926,
AB,Lag1_T1P_T2P,1,P,P,8,9,7,4,13,Hula hoop,Did you see the Hula hoop?,0.12,0.016,JPG\,brownsugar,candle01,match,printer02,broom01,balloon01b,belt02a,hulahoop,stapler04b,feather03a,rice,mushroom01,pencil01,blankImage,blankImage,blankImage,blankImage,hulahoop,,,,,,,,,,,,0,23,23,64,,,,,,,,,,,,,,,,,,,,,,,,,,,,,,,,,,,320.9650523000164,321.97320260002743,321.95677859999705,322.4578177999938,322.4578177999938,None,324.15514180005994,None,right,0.9850722999544814,324.15514180005994,None,325.1624249999877,None,left,0.28240999998524785,325.1624249999877,None,,,,,,,,,,,,,,,,,,,,,,,PPT36,001,2022-07-06_10h02.29.464,ABstudy,2022.1.4,59.933892942980926,
AB,Lag1_T1A_T2A,1,A,A,7,8,6,5,13,Poker chips,Did you see the Poker chips?,0.12,0.016,JPG\,violin,pizza,toothbrush03b,pineapple01a,banana01,ashtray01,candy,dandelion,clock04,sock01a,microscope,speaker04,calculator01,blankImage,blankImage,blankImage,blankImage,cigar,,,,,,,,,,,,0,24,24,289,,,,,,,,,,,,,,,,,,,,,,,,,,,,,,,,,,,325.48991210001986,326.49428620003164,326.4776333000045,327.0515777000692,327.0515777000692,None,328.7269287999952,None,right,2.173122000065632,328.7269287999952,None,330.932057500002,None,right,1.016839399933815,330.932057500002,None,,,,,,,,,,,,,,,,,,,,,,,PPT36,001,2022-07-06_10h02.29.464,ABstudy,2022.1.4,59.933892942980926,
AB,Lag5_T1P_T2P,5,P,P,8,13,7,5,18,skis,Did you see the skis?,0.12,0.016,JPG\,tennisball01b,paintbrush01,medal02b,apple07,speaker04,iron01b,avocado01,downhillski,belt02a,toiletpaper01a,watermelon01,candle01,stapler01,cymbal,ashtray01,screwdriver04b,blankImage,downhillski,,,,,,,,,,,,0,25,25,106,,,,,,,,,,,,,,,,,,,,,,,,,,,,,,,,,,,331.96862000005785,332.9840852000052,332.9507284000283,333.61551010003313,333.61551010003313,None,335.44849109998904,None,right,0.8194491000613198,335.44849109998904,None,336.28776690002996,None,left,0.3016887999838218,336.28776690002996,None,,,,,,,,,,,,,,,,,,,,,,,PPT36,001,2022-07-06_10h02.29.464,ABstudy,2022.1.4,59.933892942980926,
AB,Lag5_T1P_T2P,5,P,P,7,12,6,3,15,Rollerblade,Did you see the Rollerblade?,0.12,0.016,JPG\,hammer01,sponge01,toaster01,cherry01,feather03a,mushroom01,rollerblade,pencil01,tennisball01b,brick,clock04,stapler06,teabag,garlic01a,envelope03a,blankImage,blankImage,rollerblade,,,,,,,,,,,,0,26,26,116,,,,,,,,,,,,,,,,,,,,,,,,,,,,,,,,,,,336.6232826000778,337.63871570001356,337.6053940000711,338.2250973000191,338.2250973000191,None,340.0595870000543,None,left,3.880751600023359,340.0595870000543,None,343.9620800000848,None,left,0.2104524999158457,343.9620800000848,None,,,,,,,,,,,,,,,,,,,,,,,PPT36,001,2022-07-06_10h02.29.464,ABstudy,2022.1.4,59.933892942980926,
AB,Lag5_T1P_T2P,5,P,P,7,12,6,3,15,mail box,Did you see the mail box?,0.12,0.016,JPG\,key01,apple07,ring01,leaf02a,hammer01,tableknife02,postalmailbox01,sponge01,baseball01a,thermometer02b,celery,stapler06,grape01,cucumber,tennisball01b,blankImage,blankImage,postalmailbox01,,,,,,,,,,,,0,27,27,113,,,,,,,,,,,,,,,,,,,,,,,,,,,,,,,,,,,344.2006873000646,345.21313350007404,345.19645670009777,345.83849640004337,345.83849640004337,None,347.64815020002425,None,right,2.621518300031312,347.64815020002425,None,350.3015660000965,None,left,0.23936429992318153,350.3015660000965,None,,,,,,,,,,,,,,,,,,,,,,,PPT36,001,2022-07-06_10h02.29.464,ABstudy,2022.1.4,59.933892942980926,
AB,Lag5_T1P_T2A,5,P,A,5,10,4,4,14,Ship in a bottle,Did you see the Ship in a bottle?,0.12,0.016,JPG\,sewingmachine01a,thermometer02b,sponge01,eraser,shipinabottle,fork03c,pizza,violin,belt02a,medal02b,pineapple01a,tennisball01b,dandelion,cauliflower01,blankImage,blankImage,blankImage,shipinabottle,,,,,,,,,,,,0,28,28,208,,,,,,,,,,,,,,,,,,,,,,,,,,,,,,,,,,,350.5759963000892,351.5865227000322,351.5710553000681,352.2302015000023,352.2302015000023,None,353.82070020004176,None,right,2.85708650003653,353.82070020004176,None,356.7079565000022,None,left,1.0002796000335366,356.7079565000022,None,,,,,,,,,,,,,,,,,,,,,,,PPT36,001,2022-07-06_10h02.29.464,ABstudy,2022.1.4,59.933892942980926,
AB,Lag1_T1P_T2P,1,P,P,8,9,7,3,12,snow globe,Did you see the Snow globe?,0.12,0.016,JPG\,eraser,measuringcup01,chain01,birthdaycandle,ring01,rice,8ball,stapler04b,stapler01,celery,microscope,sunglasses04,blankImage,blankImage,blankImage,blankImage,blankImage,snowglobe,,,,,,,,,,,,0,29,29,56,,,,,,,,,,,,,,,,,,,,,,,,,,,,,,,,,,,357.73316360008903,358.7432586000068,358.726479700068,359.31214050005656,359.31214050005656,None,360.7693131000269,None,right,1.1231230000266805,360.7693131000269,None,361.91282960004173,None,right,0.539365499978885,361.91282960004173,None,,,,,,,,,,,,,,,,,,,,,,,PPT36,001,2022-07-06_10h02.29.464,ABstudy,2022.1.4,59.933892942980926,
AB,Lag1_T1P_T2A,1,P,A,7,8,6,3,11,walkie talkie,Did you see the walkie talkie?,0.12,0.016,JPG\,teabag,envelope03a,cellphone,apple07,cauliflower01,orange,walkietalkie,book01b,hammer01,feather03a,toaster01,blankImage,blankImage,blankImage,blankImage,blankImage,blankImage,walkietalkie,,,,,,,,,,,,0,30,30,197,,,,,,,,,,,,,,,,,,,,,,,,,,,,,,,,,,,362.483252700069,363.4981822000118,363.4645901999902,364.03833300003316,364.03833300003316,None,365.44083179999143,None,left,0.9154293000465259,365.44083179999143,None,366.38415639998857,None,right,0.3080193001078442,366.38415639998857,None,,,,,,,,,,,,,,,,,,,,,,,PPT36,001,2022-07-06_10h02.29.464,ABstudy,2022.1.4,59.933892942980926,
AB,Lag1_T1P_T2P,1,P,P,7,8,6,4,12,rooster,Did you see the rooster?,0.12,0.016,JPG\,pizza,strawberry,potato02b,speaker04,battery02b,iron01b,rooster,stapler03b,globe,banana01,medal02b,baseball01a,blankImage,blankImage,blankImage,blankImage,blankImage,rooster,,,,,,,,,,,,0,31,31,69,,,,,,,,,,,,,,,,,,,,,,,,,,,,,,,,,,,366.7215129000833,367.7355198999867,367.718796000001,368.4453438000055,368.35968430002686,None,369.7997622000985,None,left,0.46901310002431273,369.7997622000985,None,370.28809060005005,None,left,0.23670030001085252,370.28809060005005,None,,,,,,,,,,,,,,,,,,,,,,,PPT36,001,2022-07-06_10h02.29.464,ABstudy,2022.1.4,59.933892942980926,
AB,Lag5_T1A_T2A,5,A,A,5,10,4,4,14,music sheet,Did you see the music sheet?,0.12,0.016,JPG\,celery,pencil01,fan,foosballtable,iron01b,shirt02,potato02b,fork03c,button01,pineapple01a,baseball01a,printer02,cauliflower01,dandelion,blankImage,blankImage,blankImage,licenseplate,,,,,,,,,,,,0,32,32,304,,,,,,,,,,,,,,,,,,,,,,,,,,,,,,,,,,,370.55971450009383,371.57272960001137,371.555926800007,372.1498952000402,372.1498952000402,None,373.7837547000963,None,right,0.9884275000076741,373.7837547000963,None,374.792674300028,None,left,0.284228999982588,374.792674300028,None,,,,,,,,,,,,,,,,,,,,,,,PPT36,001,2022-07-06_10h02.29.464,ABstudy,2022.1.4,59.933892942980926,
AB,Lag1_T1P_T2P,1,P,P,5,6,4,3,9,Escalator,Did you see the Escalator?,0.12,0.016,JPG\,celery,pencil01,fan,foosballtable,escalator,stapler05,potato02b,fork03c,button01,blankImage,blankImage,blankImage,blankImage,blankImage,blankImage,blankImage,blankImage,escalator,,,,,,,,,,,,0,33,33,82,,,,,,,,,,,,,,,,,,,,,,,,,,,,,,,,,,,375.11790660000406,376.12762440007646,376.11190190003254,376.7616883000592,376.68842850008514,None,377.8248172000749,None,left,0.771345799905248,377.8248172000749,None,378.61317660007626,None,right,0.45489769999403507,378.61317660007626,None,,,,,,,,,,,,,,,,,,,,,,,PPT36,001,2022-07-06_10h02.29.464,ABstudy,2022.1.4,59.933892942980926,
AB,Lag5_T1P_T2P,5,P,P,6,11,5,4,15,sword,Did you see the sword?,0.12,0.016,JPG\,8ball,banana01,scissors01,pig,shirt02,broadsword,pear01,sponge01,fork03c,tableknife02,stapler06,match,toothbrush03b,birthdaycandle,candle01,blankImage,blankImage,broadsword,,,,,,,,,,,,0,34,34,167,,,,,,,,,,,,,,,,,,,,,,,,,,,,,,,,,,,379.10079960001167,380.1144427000545,380.0977504000766,380.6880487999879,380.6880487999879,None,382.49117699998897,None,right,1.0807686999905854,382.49117699998897,None,383.6011160000926,None,left,0.37069530005101115,383.6011160000926,None,,,,,,,,,,,,,,,,,,,,,,,PPT36,001,2022-07-06_10h02.29.464,ABstudy,2022.1.4,59.933892942980926,
AB,Lag5_T1P_T2P,5,P,P,5,10,4,3,13,bathtub,Did you see the bathtub?,0.12,0.016,JPG\,belt02a,sunglasses04,computerkeyboard02,cherry01,bathtub,eraser,watch02a,dice05a,blueberry01,stapler04b,match,leaf02a,iron01b,blankImage,blankImage,blankImage,blankImage,bathtub,,,,,,,,,,,,0,35,35,103,,,,,,,,,,,,,,,,,,,,,,,,,,,,,,,,,,,384.00390850007534,385.0191569000017,384.9858467000304,385.55839420005213,385.55839420005213,None,387.1934683000436,None,left,0.8116104999789968,387.1934683000436,None,388.02514680009335,None,right,0.25112709996756166,388.02514680009335,None,,,,,,,,,,,,,,,,,,,,,,,PPT36,001,2022-07-06_10h02.29.464,ABstudy,2022.1.4,59.933892942980926,
AB,Lag1_T1A_T2P,1,A,P,5,6,4,3,9,Crown,Did you see the Crown?,0.12,0.016,JPG\,leaf02a,pear01,measuringcup01,cigarette,fan,stapler04b,teabag,tableknife02,ring01,blankImage,blankImage,blankImage,blankImage,blankImage,blankImage,blankImage,blankImage,arrow02,,,,,,,,,,,,0,36,36,248,,,,,,,,,,,,,,,,,,,,,,,,,,,,,,,,,,,388.37045640009455,389.37366380007006,389.35697359999176,389.9363601000514,389.9363601000514,None,390.9777209000895,None,right,1.2270067998906597,390.9777209000895,None,392.2263584000757,None,left,0.3864107000408694,392.2263584000757,None,,,,,,,,,,,,,,,,,,,,,,,PPT36,001,2022-07-06_10h02.29.464,ABstudy,2022.1.4,59.933892942980926,
AB,Lag5_T1A_T2A,5,A,A,5,10,4,5,15,sword,Did you see the sword?,0.12,0.016,JPG\,pencil01,broccoli01a,button01,sponge01,watermelon01,lipstick02a,comb02a,fan,lighter01,sock01a,spoon01,blueberry01,belt02a,onion,grape01,blankImage,blankImage,parachute,,,,,,,,,,,,0,37,37,298,,,,,,,,,,,,,,,,,,,,,,,,,,,,,,,,,,,392.6457111000782,393.66112250008155,393.6277950000949,394.19802510004956,394.19802510004956,None,396.0586815000279,None,right,1.0412516000214964,396.0586815000279,None,397.1318529000273,None,right,0.872567699989304,397.1318529000273,None,,,,,,,,,,,,,,,,,,,,,,,PPT36,001,2022-07-06_10h02.29.464,ABstudy,2022.1.4,59.933892942980926,
AB,Lag5_T1A_T2P,5,A,P,7,12,6,3,15,Car,Did you see the Car?,0.12,0.016,JPG\,lighter01,hammer01,spoon01,chain01,cymbal,sponge01,lipstick02a,alligator,pig,watermelon01,cauliflower01,stapler03b,broccoli01a,tableknife02,tennisball01b,blankImage,blankImage,wallclock,,,,,,,,,,,,0,38,38,277,,,,,,,,,,,,,,,,,,,,,,,,,,,,,,,,,,,398.0330803000834,399.0331229000585,399.01695760001894,399.6028420000803,399.6028420000803,None,401.4135073000798,None,right,0.9025474999798462,401.4135073000798,None,402.3367930999957,None,left,0.251422300003469,402.3367930999957,None,,,,,,,,,,,,,,,,,,,,,,,PPT36,001,2022-07-06_10h02.29.464,ABstudy,2022.1.4,59.933892942980926,
AB,Lag5_T1A_T2P,5,A,P,5,10,4,3,13,flower,Did you see the flower?,0.12,0.016,JPG\,cucumber,ring01,lipstick02a,microscope,violin,garlic01a,celery,lighter01,cherry01,stapler03a,belt02a,key01,binoculars01b,blankImage,blankImage,blankImage,blankImage,christmastree,,,,,,,,,,,,0,39,39,284,,,,,,,,,,,,,,,,,,,,,,,,,,,,,,,,,,,402.6238972999854,403.6379648000002,403.6213023000164,404.203042200068,404.203042200068,None,405.7518274000613,None,left,1.2681108999531716,405.7518274000613,None,407.041499700048,None,left,0.6756041999906301,407.041499700048,None,,,,,,,,,,,,,,,,,,,,,,,PPT36,001,2022-07-06_10h02.29.464,ABstudy,2022.1.4,59.933892942980926,
AB,Lag5_T1P_T2P,5,P,P,5,10,4,5,15,mouse,Did you see the mouse?,0.12,0.016,JPG\,pineapple01a,leaf02a,grape01,toiletpaper01a,mouse,tennisball01b,spoon01,chain01,pig,stapler03a,ring01,lemon02,dice05a,pizza,potato02b,blankImage,blankImage,mouse,,,,,,,,,,,,0,40,40,94,,,,,,,,,,,,,,,,,,,,,,,,,,,,,,,,,,,407.7989257000154,408.8095792999957,408.7928753000451,409.3762760000536,409.3762760000536,None,411.18278969998937,None,left,0.5335882999934256,411.18278969998937,None,411.74577780009713,None,left,0.3466717000119388,411.74577780009713,None,,,,,,,,,,,,,,,,,,,,,,,PPT36,001,2022-07-06_10h02.29.464,ABstudy,2022.1.4,59.933892942980926,
AB,Lag1_T1A_T2P,1,A,P,6,7,5,3,10,curtain,Did you see the curtain?,0.12,0.016,JPG\,carrot01,greenolive,fork03c,chain01,ashtray01,watermelon01,stapler06,printer02,comb02a,toaster01,blankImage,blankImage,blankImage,blankImage,blankImage,blankImage,blankImage,birdhouse,,,,,,,,,,,,0,41,41,249,,,,,,,,,,,,,,,,,,,,,,,,,,,,,,,,,,,412.11510460008867,413.1305585000664,413.0972276000539,413.68869800004177,413.68869800004177,None,414.9407949000597,None,right,1.1682280999375507,414.9407949000597,None,416.13383180007804,None,left,0.28656579996459186,416.13383180007804,None,,,,,,,,,,,,,,,,,,,,,,,PPT36,001,2022-07-06_10h02.29.464,ABstudy,2022.1.4,59.933892942980926,
AB,Lag1_T1A_T2P,1,A,P,5,6,4,4,10,Bull,Did you see the Bull?,0.12,0.016,JPG\,celery,pencil01,fan,foosballtable,iron01b,stapler01,potato02b,fork03c,button01,pineapple01a,blankImage,blankImage,blankImage,blankImage,blankImage,blankImage,blankImage,spiderweb,,,,,,,,,,,,0,42,42,244,,,,,,,,,,,,,,,,,,,,,,,,,,,,,,,,,,,416.5139416999882,417.518555900082,417.5018025999889,418.09610200009774,418.09610200009774,None,419.28402010002173,None,right,0.807867499999702,419.28402010002173,None,420.12118940008804,None,left,0.35453309991862625,420.12118940008804,None,,,,,,,,,,,,,,,,,,,,,,,PPT36,001,2022-07-06_10h02.29.464,ABstudy,2022.1.4,59.933892942980926,
AB,Lag1_T1P_T2A,1,P,A,6,7,5,3,10,Dragon fly,Did you see the Dragon fly?,0.12,0.016,JPG\,leaf02a,pear01,measuringcup01,cigarette,fan,dragonfly01,teabag,tableknife02,ring01,pencil01,blankImage,blankImage,blankImage,blankImage,blankImage,blankImage,blankImage,dragonfly01,,,,,,,,,,,,0,43,43,185,,,,,,,,,,,,,,,,,,,,,,,,,,,,,,,,,,,420.50955780001823,421.5224857000867,421.50566810008604,422.09131680009887,422.09131680009887,None,423.3413162000943,None,left,0.5602805999806151,423.3413162000943,None,423.92496950004715,None,left,0.4386210000375286,423.92496950004715,None,,,,,,,,,,,,,,,,,,,,,,,PPT36,001,2022-07-06_10h02.29.464,ABstudy,2022.1.4,59.933892942980926,
AB,Lag5_T1A_T2A,5,A,A,5,10,4,5,15,truck,Did you see the truck?,0.12,0.016,JPG\,pizza,printer02,medal02b,spoon01,grape01,lighter01,belt02a,watermelon01,celery,battery02b,screw02,comb02a,cauliflower01,lipstick02a,potato02b,blankImage,blankImage,postalmailbox01,,,,,,,,,,,,0,44,44,297,,,,,,,,,,,,,,,,,,,,,,,,,,,,,,,,,,,424.4535113000311,425.4598268000409,425.44307959999423,426.0564052000409,426.0564052000409,None,427.7976551000029,None,right,0.734521200065501,427.7976551000029,None,428.5627963000443,None,right,1.3778163000242785,428.5627963000443,None,,,,,,,,,,,,,,,,,,,,,,,PPT36,001,2022-07-06_10h02.29.464,ABstudy,2022.1.4,59.933892942980926,
AB,Lag5_T1A_T2P,5,A,P,8,13,7,5,18,lollipop,Did you see the lollipop?,0.12,0.016,JPG\,watermelon01,banana01,ring01,pencil01,tomato01,speaker04,cucumber,thermometer02b,key01,foosballtable,violin,spoon01,stapler04b,dice05a,pen04b,mushroom01,blankImage,jeans01,,,,,,,,,,,,0,45,45,262,,,,,,,,,,,,,,,,,,,,,,,,,,,,,,,,,,,429.969231300056,430.98225000000093,430.9665638000006,431.59956600004807,431.59956600004807,None,433.51649340009317,None,right,1.2074242000235245,433.51649340009317,None,434.75200810004026,None,right,1.132584400009364,434.75200810004026,None,,,,,,,,,,,,,,,,,,,,,,,PPT36,001,2022-07-06_10h02.29.464,ABstudy,2022.1.4,59.933892942980926,
AB,Lag5_T1P_T2P,5,P,P,7,12,6,3,15,marble,Did you see the marble?,0.12,0.016,JPG\,cigarette,ashtray01,envelope03a,sandal,chain01,cucumber,marble,tomato01,dandelion,candle01,lemon02,stapler03b,potato02b,cymbal,clock01a,blankImage,blankImage,marble,,,,,,,,,,,,0,46,46,146,,,,,,,,,,,,,,,,,,,,,,,,,,,,,,,,,,,435.906935700099,436.92082420003135,436.8875777000794,437.47794010001235,437.47794010001235,None,439.3585786999902,None,right,0.7978090000106022,439.3585786999902,None,440.1751336000161,None,left,0.22133390000090003,440.1751336000161,None,,,,,,,,,,,,,,,,,,,,,,,PPT36,001,2022-07-06_10h02.29.464,ABstudy,2022.1.4,59.933892942980926,
AB,Lag5_T1P_T2P,5,P,P,6,11,5,3,14,Poker chips,Did you see the Poker chips?,0.12,0.016,JPG\,iron01b,brick,broccoli01a,balloon01b,tomato01,pokerchips,sandal,teabag,scissors01,pineapple01a,stapler04b,measuringcup01,sock01a,book01b,blankImage,blankImage,blankImage,pokerchips,,,,,,,,,,,,0,47,47,154,,,,,,,,,,,,,,,,,,,,,,,,,,,,,,,,,,,440.43815030006226,441.4426629000809,441.4270222000778,442.01003610005137,442.01003610005137,None,443.70298000006005,None,left,0.46105529996566474,443.70298000006005,None,444.19629430002533,None,left,0.2245986999478191,444.19629430002533,None,,,,,,,,,,,,,,,,,,,,,,,PPT36,001,2022-07-06_10h02.29.464,ABstudy,2022.1.4,59.933892942980926,
AB,Lag5_T1A_T2A,5,A,A,5,10,4,5,15,window,Did you see the window?,0.12,0.016,JPG\,leaf02a,apple07,cd,pineapple01a,envelope03a,paintbrush01,pig,canoftennisballs,rice,feather03a,lemon02,balloon01b,avocado01,calculator01,watermelon01,blankImage,blankImage,saxophone,,,,,,,,,,,,0,48,48,301,,,,,,,,,,,,,,,,,,,,,,,,,,,,,,,,,,,444.4545038000215,445.4627391000977,445.4460202000337,446.0239609000273,446.0239609000273,None,447.8236969000427,None,right,1.012526899925433,447.8236969000427,None,448.866348200012,None,left,1.1452844000887126,448.866348200012,None,,,,,,,,,,,,,,,,,,,,,,,PPT36,001,2022-07-06_10h02.29.464,ABstudy,2022.1.4,59.933892942980926,
AB,Lag5_T1P_T2P,5,P,P,6,11,5,4,15,Witch hat,Did you see the Witch hat?,0.12,0.016,JPG\,pizza,watch02a,greenolive,cucumber,match,witchhat,scissors01,broom01,globe,cherry01,stapler03a,cigarette,microscope,cellphone,speaker04,blankImage,blankImage,witchhat,,,,,,,,,,,,0,49,49,101,,,,,,,,,,,,,,,,,,,,,,,,,,,,,,,,,,,450.0401341000106,451.05199740000535,451.0351229000371,451.61972940003034,451.61972940003034,None,453.4181559000863,None,left,0.762292500003241,453.4181559000863,None,454.20452750008553,None,right,0.2645811999682337,454.20452750008553,None,,,,,,,,,,,,,,,,,,,,,,,PPT36,001,2022-07-06_10h02.29.464,ABstudy,2022.1.4,59.933892942980926,
AB,Lag5_T1P_T2A,5,P,A,8,13,7,5,18,Nunchuks,Did you see the Nunchuks?,0.12,0.016,JPG\,celery,tennisball01b,calculator01,pear01,screw02,orange,button01,nunchuk,onion,apple07,iron01b,brownsugar,banana01,paintbrush01,dandelion,toothbrush03b,blankImage,nunchuk,,,,,,,,,,,,0,50,50,218,,,,,,,,,,,,,,,,,,,,,,,,,,,,,,,,,,,454.4965871000895,455.5066480000969,455.49101820006035,456.11975519999396,456.11975519999396,None,458.0632211000193,None,left,0.5563598999287933,458.0632211000193,None,458.64250970003195,None,right,0.7939427000237629,458.64250970003195,None,,,,,,,,,,,,,,,,,,,,,,,PPT36,001,2022-07-06_10h02.29.464,ABstudy,2022.1.4,59.933892942980926,
AB,Lag5_T1A_T2P,5,A,P,6,11,5,4,15,butterfly,Did you see the butterfly?,0.12,0.016,JPG\,comb02a,key01,medal02b,battery02b,lighter01,microscope,watermelon01,sandal,pig,cellphone,stapler06,calculator01,cymbal,clock04,cucumber,blankImage,blankImage,uprightpiano01,,,,,,,,,,,,0,51,51,276,,,,,,,,,,,,,,,,,,,,,,,,,,,,,,,,,,,459.46334120002575,460.4777032000711,460.4443117000628,461.02881859999616,461.02881859999616,None,462.8440180000616,None,right,1.1838348000310361,462.8440180000616,None,464.0483697000891,None,left,0.3394464000593871,464.0483697000891,None,,,,,,,,,,,,,,,,,,,,,,,PPT36,001,2022-07-06_10h02.29.464,ABstudy,2022.1.4,59.933892942980926,
AB,Lag5_T1P_T2A,5,P,A,5,10,4,4,14,rocket,Did you see the rocket?,0.12,0.016,JPG\,fan,tomato01,candy,screwdriver04b,spacerocket,cd,thermometer02b,apple07,button01,plate01b,brownsugar,lighter01,clock01a,envelope03a,blankImage,blankImage,blankImage,spacerocket,,,,,,,,,,,,0,52,52,226,,,,,,,,,,,,,,,,,,,,,,,,,,,,,,,,,,,464.41766330006067,465.4328786000842,465.3995880000293,465.9805187000893,465.9805187000893,None,467.69871390005574,None,right,1.3852327999193221,467.69871390005574,None,469.10328680009115,None,left,2.35664909996558,469.10328680009115,None,,,,,,,,,,,,,,,,,,,,,,,PPT36,001,2022-07-06_10h02.29.464,ABstudy,2022.1.4,59.933892942980926,
AB,Lag5_T1P_T2P,5,P,P,8,13,7,4,17,butterfly,Did you see the butterfly?,0.12,0.016,JPG\,speaker04,sewingmachine01a,eraser,violin,globe,belt02a,sunglasses04,butterfly,cd,greenolive,alligator,pear01,stapler01,screwdriver04b,banana01,cigarette,blankImage,butterfly,,,,,,,,,,,,0,53,53,126,,,,,,,,,,,,,,,,,,,,,,,,,,,,,,,,,,,471.4932120000012,472.5064891000511,472.4897288000211,473.0951424000086,473.0951424000086,None,475.03790770005435,None,left,0.4311616999329999,475.03790770005435,None,475.49262330005877,None,left,0.23141480004414916,475.49262330005877,None,,,,,,,,,,,,,,,,,,,,,,,PPT36,001,2022-07-06_10h02.29.464,ABstudy,2022.1.4,59.933892942980926,
AB,Lag5_T1P_T2P,5,P,P,7,12,6,4,16,flower,Did you see the flower?,0.12,0.016,JPG\,cucumber,sponge01,alligator,pear01,ashtray01,hammer01,hibiscusflower02,battery02b,fork03c,binoculars01b,mushroom01,stapler01,leaf02a,acorn,comb02a,screwdriver04b,blankImage,hibiscusflower02,,,,,,,,,,,,0,54,54,132,,,,,,,,,,,,,,,,,,,,,,,,,,,,,,,,,,,475.7451859000139,476.76057120005134,476.72726590000093,477.30580480000935,477.30580480000935,None,479.2925467999885,None,left,2.8395227000582963,479.2925467999885,None,482.1492103000637,None,right,2.1032943000318483,482.1492103000637,None,,,,,,,,,,,,,,,,,,,,,,,PPT36,001,2022-07-06_10h02.29.464,ABstudy,2022.1.4,59.933892942980926,
AB,Lag5_T1P_T2P,5,P,P,5,10,4,4,14,Christmas lights,Did you see the Christmas lights?,0.12,0.016,JPG\,binoculars01b,cymbal,pizza,candy,christmaslights,sponge01,grape01,thermometer02b,speaker04,stapler03a,lipstick02a,strawberry,candle01,tambourine02,blankImage,blankImage,blankImage,christmaslights,,,,,,,,,,,,0,55,55,168,,,,,,,,,,,,,,,,,,,,,,,,,,,,,,,,,,,484.28764039999805,485.302405100083,485.2856206999859,485.87238060007803,485.87238060007803,None,487.60673800006043,None,left,0.37384280003607273,487.60673800006043,None,488.00501419999637,None,left,0.21535119996406138,488.00501419999637,None,,,,,,,,,,,,,,,,,,,,,,,PPT36,001,2022-07-06_10h02.29.464,ABstudy,2022.1.4,59.933892942980926,
AB,Lag1_T1P_T2A,1,P,A,6,7,5,5,12,Tombstone,Did you see the Tombstone?,0.12,0.016,JPG\,cigarette,ashtray01,envelope03a,sandal,chain01,tombstone,broccoli01a,tomato01,dandelion,candle01,lemon02,button01,blankImage,blankImage,blankImage,blankImage,blankImage,tombstone,,,,,,,,,,,,0,56,56,196,,,,,,,,,,,,,,,,,,,,,,,,,,,,,,,,,,,488.24356850003824,489.25651050009765,489.2230439000996,489.80561550008133,489.80561550008133,None,491.3044337000465,None,left,0.9008638999657705,491.3044337000465,None,492.2262790000532,None,right,0.3058918999740854,492.2262790000532,None,,,,,,,,,,,,,,,,,,,,,,,PPT36,001,2022-07-06_10h02.29.464,ABstudy,2022.1.4,59.933892942980926,
AB,Lag5_T1A_T2P,5,A,P,8,13,7,3,16,ladder,Did you see the ladder?,0.12,0.016,JPG\,apple07,toiletpaper01a,pizza,dandelion,greenolive,eraser,microscope,violin,orange,lipstick02a,balloon01b,sandal,stapler01,fan,book01b,sewingmachine01a,blankImage,ostrich,,,,,,,,,,,,0,57,57,269,,,,,,,,,,,,,,,,,,,,,,,,,,,,,,,,,,,492.56342090002727,493.5774541000137,493.56072840001434,494.22298419999424,494.13476500008255,None,496.2101103999885,None,right,0.6497084000147879,496.2101103999885,None,496.88067840004805,None,left,0.9869426999939606,496.88067840004805,None,,,,,,,,,,,,,,,,,,,,,,,PPT36,001,2022-07-06_10h02.29.464,ABstudy,2022.1.4,59.933892942980926,
AB,Lag1_T1A_T2P,1,A,P,7,8,6,5,13,Horseshoe,Did you see the Horseshoe?,0.12,0.016,JPG\,leaf02a,apple07,cd,pineapple01a,envelope03a,paintbrush01,pig,stapler06,rice,feather03a,lemon02,balloon01b,avocado01,blankImage,blankImage,blankImage,blankImage,rooster,,,,,,,,,,,,0,58,58,241,,,,,,,,,,,,,,,,,,,,,,,,,,,,,,,,,,,497.9010698000202,498.91596610005945,498.8826099000871,499.4691302999854,499.4691302999854,None,501.1028838000493,None,right,0.7338290000334382,501.1028838000493,None,501.8689042000333,None,left,0.2637319000205025,501.8689042000333,None,,,,,,,,,,,,,,,,,,,,,,,PPT36,001,2022-07-06_10h02.29.464,ABstudy,2022.1.4,59.933892942980926,
AB,Lag1_T1P_T2P,1,P,P,6,7,5,4,11,bowling pin,Did you see the bowling pin?,0.12,0.016,JPG\,strawberry,leaf02a,clock04,candle01,avocado01,bowlingpin,stapler03a,brownsugar,ring01,lemon02,fork03c,blankImage,blankImage,blankImage,blankImage,blankImage,blankImage,bowlingpin,,,,,,,,,,,,0,59,59,8,,,,,,,,,,,,,,,,,,,,,,,,,,,,,,,,,,,502.1569202000974,503.1703889000928,503.1538205000106,503.74397650000174,503.74397650000174,None,505.0469870000379,None,left,0.7725923999678344,505.0469870000379,None,505.839867600007,None,right,0.25966870004776865,505.839867600007,None,,,,,,,,,,,,,,,,,,,,,,,PPT36,001,2022-07-06_10h02.29.464,ABstudy,2022.1.4,59.933892942980926,
AB,Lag5_T1P_T2A,5,P,A,6,11,5,4,15,Spear,Did you see the Spear?,0.12,0.016,JPG\,belt02a,measuringcup01,spoon01,chain01,greenolive,spear02,computerkeyboard02,onion,fan,strawberry,candle01,broom01,binoculars01b,ashtray01,pingpongpaddle01c,blankImage,blankImage,spear02,,,,,,,,,,,,0,60,60,227,,,,,,,,,,,,,,,,,,,,,,,,,,,,,,,,,,,506.1279449000722,507.14137050008867,507.12582990003284,507.7818445999874,507.7057604000438,None,509.5152995000826,None,right,1.2964828999247402,509.5152995000826,None,510.8444649000885,None,right,1.4230969999916852,510.8444649000885,None,,,,,,,,,,,,,,,,,,,,,,,PPT36,001,2022-07-06_10h02.29.464,ABstudy,2022.1.4,59.933892942980926,
AB,Lag5_T1P_T2P,5,P,P,6,11,5,4,15,fish,Did you see the fish?,0.12,0.016,JPG\,sock01a,spoon01,alligator,comb02a,printer02,rockbass,lamp04a,cymbal,greenolive,computerkeyboard02,stapler03a,scarf,teabag,watermelon01,battery02b,blankImage,blankImage,rockbass,,,,,,,,,,,,0,61,61,115,,,,,,,,,,,,,,,,,,,,,,,,,,,,,,,,,,,512.2981510000536,513.3136019000085,513.2801839000313,513.8697926000459,513.8697926000459,None,515.7335098000476,None,left,0.4625106999883428,515.7335098000476,None,516.217261300073,None,left,0.4022176000289619,516.217261300073,None,,,,,,,,,,,,,,,,,,,,,,,PPT36,001,2022-07-06_10h02.29.464,ABstudy,2022.1.4,59.933892942980926,
AB,Lag1_T1A_T2A,1,A,A,5,6,4,3,9,Pigeon,Did you see the Pigeon?,0.12,0.016,JPG\,candle01,paintbrush01,scissors01,fan,microscope,toothbrush03b,candle08b,watermelon01,teabag,blankImage,blankImage,blankImage,blankImage,blankImage,blankImage,blankImage,blankImage,floorlamp,,,,,,,,,,,,0,62,62,286,,,,,,,,,,,,,,,,,,,,,,,,,,,,,,,,,,,516.6550985000795,517.6683403000934,517.6515744000208,518.2320211000042,518.2320211000042,None,519.3772067000391,None,right,1.098258399986662,519.3772067000391,None,520.504070200026,None,right,0.979368899948895,520.504070200026,None,,,,,,,,,,,,,,,,,,,,,,,PPT36,001,2022-07-06_10h02.29.464,ABstudy,2022.1.4,59.933892942980926,
AB,Lag5_T1A_T2P,5,A,P,5,10,4,4,14,Chefs hat,Did you see the Chefs hat?,0.12,0.016,JPG\,candle01,fork03c,plate01b,violin,computerkeyboard02,candy,calculator01,paintbrush01,cherry01,stapler06,teabag,banana01,cd,lighter01,blankImage,blankImage,blankImage,horseshoe,,,,,,,,,,,,0,63,63,278,,,,,,,,,,,,,,,,,,,,,,,,,,,,,,,,,,,521.5079292000737,522.5227865000488,522.4896181999939,523.0698393000057,523.0698393000057,None,524.7670404000673,None,right,1.0523635998833925,524.7670404000673,None,525.8431135000428,None,left,0.4243791999761015,525.8431135000428,None,,,,,,,,,,,,,,,,,,,,,,,PPT36,001,2022-07-06_10h02.29.464,ABstudy,2022.1.4,59.933892942980926,
AB,Lag1_T1P_T2P,1,P,P,7,8,6,3,11,Moose,Did you see the Moose?,0.12,0.016,JPG\,sock01a,spoon01,alligator,comb02a,printer02,medal02b,moose,stapler03a,greenolive,computerkeyboard02,cauliflower01,blankImage,blankImage,blankImage,blankImage,blankImage,blankImage,moose,,,,,,,,,,,,0,64,64,67,,,,,,,,,,,,,,,,,,,,,,,,,,,,,,,,,,,526.2967135000508,527.3111582000274,527.2945728000486,527.9320128000109,527.8527487000683,None,529.1849585000891,None,left,0.8746195998974144,529.1849585000891,None,530.0801249000942,None,right,1.2681756999809295,530.0801249000942,None,,,,,,,,,,,,,,,,,,,,,,,PPT36,001,2022-07-06_10h02.29.464,ABstudy,2022.1.4,59.933892942980926,
AB,Lag5_T1P_T2A,5,P,A,6,11,5,3,14,toy truck,Did you see the toy truck?,0.12,0.016,JPG\,globe,belt02a,sponge01,violin,fork03c,bluecheese,clock01a,microscope,balloon01b,scarf,teabag,pen04b,brick,brownsugar,blankImage,blankImage,blankImage,bluecheese,,,,,,,,,,,,0,65,65,204,,,,,,,,,,,,,,,,,,,,,,,,,,,,,,,,,,,531.3754961000523,532.3824307000032,532.3657826000126,532.9490731999977,532.9490731999977,None,534.5722988999914,None,right,1.3678284999914467,534.5722988999914,None,535.9718506000936,None,right,0.3443180000176653,535.9718506000936,None,,,,,,,,,,,,,,,,,,,,,,,PPT36,001,2022-07-06_10h02.29.464,ABstudy,2022.1.4,59.933892942980926,
AB,Lag5_T1P_T2P,5,P,P,6,11,5,5,16,table,Did you see the table?,0.12,0.016,JPG\,birthdaycandle,mushroom01,strawberry,match,cherry01,table01,hammer01,thermometer02b,sock01a,ring01,stapler06,banana01,toiletpaper01a,key01,sponge01,teabag,blankImage,table01,,,,,,,,,,,,0,66,66,144,,,,,,,,,,,,,,,,,,,,,,,,,,,,,,,,,,,536.34757610003,537.3541722000809,537.337489800062,537.8380069000414,537.8380069000414,None,539.8566141000483,None,left,0.43495040002744645,539.8566141000483,None,540.3088748999871,None,left,0.26356690004467964,540.3088748999871,None,,,,,,,,,,,,,,,,,,,,,,,PPT36,001,2022-07-06_10h02.29.464,ABstudy,2022.1.4,59.933892942980926,
AB,Lag1_T1P_T2A,1,P,A,6,7,5,4,11,bird,Did you see the bird?,0.12,0.016,JPG\,foosballtable,candy,envelope03a,microscope,pencil01,cedarwaxwing,scissors01,watermelon01,grape01,dandelion,pineapple01a,blankImage,blankImage,blankImage,blankImage,blankImage,blankImage,cedarwaxwing,,,,,,,,,,,,0,67,67,182,,,,,,,,,,,,,,,,,,,,,,,,,,,,,,,,,,,540.6331011999864,541.6417987000896,541.608463200042,542.1097621000372,542.1097621000372,None,543.5348109999904,None,left,0.661509900004603,543.5348109999904,None,544.2277461000485,None,right,0.6479988000355661,544.2277461000485,None,,,,,,,,,,,,,,,,,,,,,,,PPT36,001,2022-07-06_10h02.29.464,ABstudy,2022.1.4,59.933892942980926,
AB,Lag1_T1P_T2P,1,P,P,7,8,6,3,11,Sand castle,Did you see the Sand castle?,0.12,0.016,JPG\,thermometer02b,candle08b,comb02a,toothbrush03b,brick,computerkeyboard02,sandcastle,stapler06,candy,birthdaycandle,clock04,blankImage,blankImage,blankImage,blankImage,blankImage,blankImage,sandcastle,,,,,,,,,,,,0,68,68,70,,,,,,,,,,,,,,,,,,,,,,,,,,,,,,,,,,,544.9078619000502,545.913281199988,545.8977228000294,546.4941073000664,546.4941073000664,None,547.8396367999958,None,right,0.9402890000492334,547.8396367999958,None,548.7989213000983,None,left,0.19695869996212423,548.7989213000983,None,,,,,,,,,,,,,,,,,,,,,,,PPT36,001,2022-07-06_10h02.29.464,ABstudy,2022.1.4,59.933892942980926,
AB,Lag1_T1P_T2P,1,P,P,5,6,4,5,11,shark,Did you see the shark?,0.12,0.016,JPG\,cucumber,sponge01,alligator,pear01,greatwhiteshark,stapler06,clock04,battery02b,fork03c,binoculars01b,mushroom01,blankImage,blankImage,blankImage,blankImage,blankImage,blankImage,greatwhiteshark,,,,,,,,,,,,0,69,69,84,,,,,,,,,,,,,,,,,,,,,,,,,,,,,,,,,,,549.0180011000484,550.0334594000597,550.0000894000987,550.6138879000209,550.6138879000209,None,551.9046705000801,None,left,0.7147686999524012,551.9046705000801,None,552.6364719000412,None,left,0.9193013999611139,552.6364719000412,None,,,,,,,,,,,,,,,,,,,,,,,PPT36,001,2022-07-06_10h02.29.464,ABstudy,2022.1.4,59.933892942980926,
AB,Lag1_T1P_T2P,1,P,P,7,8,6,3,11,swing,Did you see the swing?,0.12,0.016,JPG\,sewingmachine01a,thermometer02b,sponge01,eraser,broccoli01a,fork03c,swing,stapler03b,belt02a,medal02b,pineapple01a,blankImage,blankImage,blankImage,blankImage,blankImage,blankImage,swing,,,,,,,,,,,,0,70,70,30,,,,,,,,,,,,,,,,,,,,,,,,,,,,,,,,,,,553.5901960000629,554.6048628999852,554.5881619000575,555.2452527000569,555.1630811000941,None,556.5297477000859,None,right,1.6734806000022218,556.5297477000859,None,558.2253468000563,None,left,0.27490399999078363,558.2253468000563,None,,,,,,,,,,,,,,,,,,,,,,,PPT36,001,2022-07-06_10h02.29.464,ABstudy,2022.1.4,59.933892942980926,
AB,Lag1_T1P_T2P,1,P,P,6,7,5,4,11,cash register,Did you see the cash register?,0.12,0.016,JPG\,leaf02a,apple07,cd,pineapple01a,envelope03a,cashregister01,stapler03b,8ball,rice,feather03a,lemon02,blankImage,blankImage,blankImage,blankImage,blankImage,blankImage,cashregister01,,,,,,,,,,,,0,71,71,79,,,,,,,,,,,,,,,,,,,,,,,,,,,,,,,,,,,558.5304802000755,559.5435497000581,559.5277758000884,560.1576582000125,560.1576582000125,None,561.4426443000557,None,left,0.9049546000314876,561.4426443000557,None,562.3794150000904,None,left,0.26461379998363554,562.3794150000904,None,,,,,,,,,,,,,,,,,,,,,,,PPT36,001,2022-07-06_10h02.29.464,ABstudy,2022.1.4,59.933892942980926,
AB,Lag1_T1P_T2P,1,P,P,8,9,7,4,13,Bird House,Did you see the Bird House?,0.12,0.016,JPG\,toiletpaper01a,mushroom01,medal02b,sandal,rice,cd,feather03a,birdhouse,stapler01,garlic01a,toaster01,belt02a,cigarette,blankImage,blankImage,blankImage,blankImage,birdhouse,,,,,,,,,,,,0,72,72,77,,,,,,,,,,,,,,,,,,,,,,,,,,,,,,,,,,,562.6756856000284,563.680435199989,563.663756199996,564.2494898000732,564.2494898000732,None,565.869728300022,None,left,0.6776149000506848,565.869728300022,None,566.5666247000918,None,right,0.8687374999281019,566.5666247000918,None,,,,,,,,,,,,,,,,,,,,,,,PPT36,001,2022-07-06_10h02.29.464,ABstudy,2022.1.4,59.933892942980926,
AB,Lag1_T1A_T2A,1,A,A,8,9,7,3,12,punching bag,Did you see the punching bag?,0.12,0.016,JPG\,key01,apple07,ring01,leaf02a,hammer01,tableknife02,violin,sponge01,baseball01a,thermometer02b,celery,calculator01,blankImage,blankImage,blankImage,blankImage,blankImage,bathtub,,,,,,,,,,,,0,73,73,291,,,,,,,,,,,,,,,,,,,,,,,,,,,,,,,,,,,567.47200170008,568.4852375000482,568.4685391000239,569.0488338000141,569.0488338000141,None,570.5222159000114,None,right,1.1612053000135347,570.5222159000114,None,571.705420800019,None,right,0.9381642000516877,571.705420800019,None,,,,,,,,,,,,,,,,,,,,,,,PPT36,001,2022-07-06_10h02.29.464,ABstudy,2022.1.4,59.933892942980926,
AB,Lag5_T1A_T2P,5,A,P,7,12,6,5,17,funnel,Did you see the funnel?,0.12,0.016,JPG\,iron01b,orange,birthdaycandle,potato02b,cauliflower01,pencil01,key01,candle08b,celery,tableknife02,pen04b,stapler04b,ring01,rice,lemon02,tomato01,blankImage,englishcucumber,,,,,,,,,,,,0,74,74,259,,,,,,,,,,,,,,,,,,,,,,,,,,,,,,,,,,,572.6772162000416,573.6905032000504,573.673791600042,574.299128600047,574.299128600047,None,576.2788301000837,None,left,2.23697720002383,576.2788301000837,None,578.5451769999927,None,left,0.7384858999866992,578.5451769999927,None,,,,,,,,,,,,,,,,,,,,,,,PPT36,001,2022-07-06_10h02.29.464,ABstudy,2022.1.4,59.933892942980926,
AB,Lag1_T1P_T2P,1,P,P,6,7,5,4,11,American football,Did you see the American football?,0.12,0.016,JPG\,toaster01,garlic01a,faucet,fan,comb02a,football,stapler06,watch02a,onion,blueberry01,toiletpaper01a,blankImage,blankImage,blankImage,blankImage,blankImage,blankImage,football,,,,,,,,,,,,0,75,75,12,,,,,,,,,,,,,,,,,,,,,,,,,,,,,,,,,,,579.3196472000564,580.3305584000191,580.3138182000257,580.8839175000321,580.8839175000321,None,582.2317224000581,None,left,0.851993800024502,582.2317224000581,None,583.1164173000725,None,left,1.030989299993962,583.1164173000725,None,,,,,,,,,,,,,,,,,,,,,,,PPT36,001,2022-07-06_10h02.29.464,ABstudy,2022.1.4,59.933892942980926,
AB,Lag1_T1P_T2P,1,P,P,8,9,7,5,14,lawn mower,Did you see the lawn mower?,0.12,0.016,JPG\,battery02b,sunglasses04,pear01,tennisball01b,clock01a,speaker04,binoculars01b,lawnmower,stapler05,pineapple01a,avocado01,grape01,blueberry01,violin,blankImage,blankImage,blankImage,lawnmower,,,,,,,,,,,,0,76,76,46,,,,,,,,,,,,,,,,,,,,,,,,,,,,,,,,,,,584.169733799994,585.1850880000275,585.1517699999968,585.7893566000275,585.7893566000275,None,587.4672429000493,None,left,0.9921296999091282,587.4672429000493,None,588.4884120000061,None,right,3.2268396000145003,588.4884120000061,None,,,,,,,,,,,,,,,,,,,,,,,PPT36,001,2022-07-06_10h02.29.464,ABstudy,2022.1.4,59.933892942980926,
AB,Lag5_T1P_T2P,5,P,P,5,10,4,5,15,Safe,Did you see the Safe?,0.12,0.016,JPG\,candle01,shirt02,brick,orange,safe,toothbrush03b,pizza,thermometer02b,book01b,stapler01,sewingmachine01a,toaster01,candy,cymbal,potato02b,blankImage,blankImage,safe,,,,,,,,,,,,0,77,77,159,,,,,,,,,,,,,,,,,,,,,,,,,,,,,,,,,,,591.7438912000507,592.7593528000871,592.726018800051,593.2949974000221,593.2949974000221,None,595.1664536000462,None,left,0.3809234999353066,595.1664536000462,None,595.5791324999882,None,left,0.2800687999697402,595.5791324999882,None,,,,,,,,,,,,,,,,,,,,,,,PPT36,001,2022-07-06_10h02.29.464,ABstudy,2022.1.4,59.933892942980926,
AB,Lag5_T1P_T2P,5,P,P,5,10,4,5,15,Ipad,Did you see the Ipad?,0.12,0.016,JPG\,fork03c,toothbrush03b,cellphone,fan,ipad02,clock01a,ring01,eraser,sunglasses04,stapler06,violin,brownsugar,blueberry01,pear01,pencil01,blankImage,blankImage,ipad02,,,,,,,,,,,,0,78,78,150,,,,,,,,,,,,,,,,,,,,,,,,,,,,,,,,,,,595.9361869000131,596.9469126000768,596.9301863000728,597.5096049000276,597.5096049000276,None,599.2761879999889,None,right,0.6229680000105873,599.2761879999889,None,599.9164225000422,None,left,0.2706421000184491,599.9164225000422,None,,,,,,,,,,,,,,,,,,,,,,,PPT36,001,2022-07-06_10h02.29.464,ABstudy,2022.1.4,59.933892942980926,
AB,Lag1_T1P_T2P,1,P,P,6,7,5,4,11,Bow,Did you see the Bow?,0.12,0.016,JPG\,broom01,plate01b,scissors01,garlic01a,paintbrush01,bow,stapler03a,shirt02,speaker04,celery,sandal,blankImage,blankImage,blankImage,blankImage,blankImage,blankImage,bow,,,,,,,,,,,,0,79,79,53,,,,,,,,,,,,,,,,,,,,,,,,,,,,,,,,,,,600.2191360000288,601.2344274000498,601.201082100044,601.7918902999954,601.7918902999954,None,603.2009394000052,None,left,0.6425535000162199,603.2009394000052,None,603.8704581999918,None,right,0.4129660999169573,603.8704581999918,None,,,,,,,,,,,,,,,,,,,,,,,PPT36,001,2022-07-06_10h02.29.464,ABstudy,2022.1.4,59.933892942980926,
AB,Lag1_T1P_T2P,1,P,P,6,7,5,5,12,bat,Did you see the bat?,0.12,0.016,JPG\,comb02a,key01,medal02b,battery02b,lighter01,bat,stapler05,sandal,pig,cellphone,computerkeyboard02,calculator01,blankImage,blankImage,blankImage,blankImage,blankImage,bat,,,,,,,,,,,,0,80,80,35,,,,,,,,,,,,,,,,,,,,,,,,,,,,,,,,,,,604.3069962000009,605.3218766000355,605.2885886000004,605.8717466000235,605.8717466000235,None,607.340700800065,None,right,1.0224260999821126,607.340700800065,None,608.3915344000561,None,right,1.8281951000681147,608.3915344000561,None,,,,,,,,,,,,,,,,,,,,,,,PPT36,001,2022-07-06_10h02.29.464,ABstudy,2022.1.4,59.933892942980926,
AB,Lag5_T1P_T2A,5,P,A,7,12,6,5,17,flower,Did you see the flower?,0.12,0.016,JPG\,cellphone,tomato01,comb02a,candy,celery,cucumber,craneflower,fan,feather03a,pen04b,lemon02,blueberry01,plate01b,cherry01,baseball01a,candle08b,blankImage,craneflower,,,,,,,,,,,,0,81,81,211,,,,,,,,,,,,,,,,,,,,,,,,,,,,,,,,,,,610.2456936000381,611.2611143999966,611.2277928000549,611.8078702000203,611.8078702000203,None,613.8050172000658,None,left,1.2237335999961942,613.8050172000658,None,615.0481515000574,None,left,0.40362620004452765,615.0481515000574,None,,,,,,,,,,,,,,,,,,,,,,,PPT36,001,2022-07-06_10h02.29.464,ABstudy,2022.1.4,59.933892942980926,
AB,Lag5_T1P_T2A,5,P,A,5,10,4,5,15,Shield,Did you see the Shield?,0.12,0.016,JPG\,cigarette,fork03c,greenolive,broccoli01a,shield02,tennisball01b,balloon01b,leaf02a,pig,fan,clock01a,strawberry,envelope03a,birthdaycandle,teabag,blankImage,blankImage,shield02,,,,,,,,,,,,0,82,82,223,,,,,,,,,,,,,,,,,,,,,,,,,,,,,,,,,,,615.4841928000096,616.4833329000976,616.4666698999936,617.0526712000137,617.0526712000137,None,618.8754757000133,None,right,0.729520000051707,618.8754757000133,None,619.6363185000373,None,right,0.8394379999954253,619.6363185000373,None,,,,,,,,,,,,,,,,,,,,,,,PPT36,001,2022-07-06_10h02.29.464,ABstudy,2022.1.4,59.933892942980926,
AB,Lag1_T1P_T2P,1,P,P,8,9,7,4,13,bowling ball,Did you see the bowling ball?,0.12,0.016,JPG\,dandelion,pineapple01a,broom01,pen04b,sock01a,sandal,foosballtable,bowlingball,stapler01,toothbrush03b,celery,candle08b,tennisball01b,blankImage,blankImage,blankImage,blankImage,bowlingball,,,,,,,,,,,,0,83,83,7,,,,,,,,,,,,,,,,,,,,,,,,,,,,,,,,,,,620.5097027000738,621.5214724000543,621.5047797000734,622.0056779000442,622.0056779000442,None,623.6643387000076,None,left,0.8110701000550762,623.6643387000076,None,624.5078752000118,None,right,0.39949750003870577,624.5078752000118,None,,,,,,,,,,,,,,,,,,,,,,,PPT36,001,2022-07-06_10h02.29.464,ABstudy,2022.1.4,59.933892942980926,
AB,Lag5_T1P_T2A,5,P,A,7,12,6,4,16,Bear,Did you see the Bear?,0.12,0.016,JPG\,comb02a,key01,medal02b,battery02b,lighter01,microscope,grizzly,sandal,pig,cellphone,computerkeyboard02,calculator01,cymbal,clock04,cucumber,avocado01,blankImage,grizzly,,,,,,,,,,,,0,84,84,213,,,,,,,,,,,,,,,,,,,,,,,,,,,,,,,,,,,624.9295721000526,625.9426254000282,625.9258050000062,626.5187021000311,626.5187021000311,None,628.5525064000394,None,left,1.0516818000469357,628.5525064000394,None,629.6297441000352,None,right,0.317630400066264,629.6297441000352,None,,,,,,,,,,,,,,,,,,,,,,,PPT36,001,2022-07-06_10h02.29.464,ABstudy,2022.1.4,59.933892942980926,
AB,Lag5_T1P_T2P,5,P,P,5,10,4,3,13,rose,Did you see the rose?,0.12,0.016,JPG\,lipstick02a,cucumber,candle08b,printer02,rose,violin,paintbrush01,lighter01,belt02a,stapler03b,thermometer02b,microscope,cigarette,blankImage,blankImage,blankImage,blankImage,rose,,,,,,,,,,,,0,85,85,158,,,,,,,,,,,,,,,,,,,,,,,,,,,,,,,,,,,629.982465500012,630.9975985999918,630.9641511000227,631.6212417000206,631.6212417000206,None,633.1260453000432,None,left,0.7735099999699742,633.1260453000432,None,633.9317333000945,None,right,1.223640299984254,633.9317333000945,None,,,,,,,,,,,,,,,,,,,,,,,PPT36,001,2022-07-06_10h02.29.464,ABstudy,2022.1.4,59.933892942980926,
AB,Lag1_T1P_T2P,1,P,P,7,8,6,4,12,trophy,Did you see the trophy?,0.12,0.016,JPG\,cherry01,cymbal,envelope03a,foosballtable,shirt02,cellphone,trophy01,stapler04b,battery02b,apple07,pencil01,screwdriver04b,blankImage,blankImage,blankImage,blankImage,blankImage,trophy01,,,,,,,,,,,,0,86,86,74,,,,,,,,,,,,,,,,,,,,,,,,,,,,,,,,,,,635.1922314000549,636.2026287000626,636.1861120000249,636.766750400071,636.766750400071,None,638.2580645000562,None,left,1.0655014999210835,638.2580645000562,None,639.3558099000948,None,left,0.29565019998699427,639.3558099000948,None,,,,,,,,,,,,,,,,,,,,,,,PPT36,001,2022-07-06_10h02.29.464,ABstudy,2022.1.4,59.933892942980926,
AB,Lag1_T1P_T2P,1,P,P,8,9,7,3,12,Wheelchair,Did you see the Wheelchair?,0.12,0.016,JPG\,cigarette,pig,banana01,strawberry,clock01a,plate01b,spoon01,wheelchair,stapler03b,pineapple01a,chain01,paintbrush01,blankImage,blankImage,blankImage,blankImage,blankImage,wheelchair,,,,,,,,,,,,0,87,87,27,,,,,,,,,,,,,,,,,,,,,,,,,,,,,,,,,,,639.6754924000707,640.6907319000456,640.657333399984,641.2467802000465,641.2467802000465,None,642.7386141000316,None,right,2.1611719999928027,642.7386141000316,None,644.928324000095,None,left,0.23525239992886782,644.928324000095,None,,,,,,,,,,,,,,,,,,,,,,,PPT36,001,2022-07-06_10h02.29.464,ABstudy,2022.1.4,59.933892942980926,
AB,Lag1_T1P_T2P,1,P,P,5,6,4,5,11,squirrel,Did you see the squirrel?,0.12,0.016,JPG\,pencil01,orange,clock01a,sponge01,squirrel,stapler05,lipstick02a,strawberry,book01b,mushroom01,envelope03a,blankImage,blankImage,blankImage,blankImage,blankImage,blankImage,squirrel,,,,,,,,,,,,0,88,88,5,,,,,,,,,,,,,,,,,,,,,,,,,,,,,,,,,,,645.2381832000101,646.2460967000807,646.2293794000288,646.8080490999855,646.8080490999855,None,648.0958962000441,None,left,0.6752590000396594,648.0958962000441,None,648.798750200076,None,right,1.044279299909249,648.798750200076,None,,,,,,,,,,,,,,,,,,,,,,,PPT36,001,2022-07-06_10h02.29.464,ABstudy,2022.1.4,59.933892942980926,
AB,Lag1_T1P_T2P,1,P,P,7,8,6,3,11,trampoline,Did you see the trampoline?,0.12,0.016,JPG\,dice05a,watch02a,pig,lighter01,button01,strawberry,trampoline,stapler03a,plate01b,pen04b,feather03a,blankImage,blankImage,blankImage,blankImage,blankImage,blankImage,trampoline,,,,,,,,,,,,0,89,89,73,,,,,,,,,,,,,,,,,,,,,,,,,,,,,,,,,,,649.8719579000026,650.8840363000054,650.8673488000641,651.4774979000213,651.4774979000213,None,652.8395499000326,None,left,1.851991800009273,652.8395499000326,None,654.7210385000799,None,left,0.21039220003876835,654.7210385000799,None,,,,,,,,,,,,,,,,,,,,,,,PPT36,001,2022-07-06_10h02.29.464,ABstudy,2022.1.4,59.933892942980926,
AB,Lag5_T1A_T2P,5,A,P,5,10,4,4,14,duck,Did you see the duck?,0.12,0.016,JPG\,brick,eraser,cucumber,ashtray01,thermometer02b,binoculars01b,lipstick02a,screwdriver04b,grape01,stapler04b,battery02b,iron01b,dice05a,avocado01,blankImage,blankImage,blankImage,barrel01,,,,,,,,,,,,0,90,90,280,,,,,,,,,,,,,,,,,,,,,,,,,,,,,,,,,,,654.9569065000396,655.9723467000294,655.9389380000066,656.5480963999871,656.5480963999871,None,658.2479668000014,None,right,0.9398801000788808,658.2479668000014,None,659.2098985000048,None,left,0.3530661000404507,659.2098985000048,None,,,,,,,,,,,,,,,,,,,,,,,PPT36,001,2022-07-06_10h02.29.464,ABstudy,2022.1.4,59.933892942980926,
AB,Lag5_T1P_T2P,5,P,P,5,10,4,5,15,baseball bat,Did you see the baseball bat?,0.12,0.016,JPG\,pizza,printer02,medal02b,spoon01,baseballbat,lighter01,belt02a,watermelon01,celery,stapler04b,screw02,comb02a,cauliflower01,lipstick02a,potato02b,blankImage,blankImage,baseballbat,,,,,,,,,,,,0,91,91,123,,,,,,,,,,,,,,,,,,,,,,,,,,,,,,,,,,,659.60020049999,660.6100284000859,660.5934626000235,661.1744731999934,661.1744731999934,None,663.0921774000162,None,left,2.0388866000575945,663.0921774000162,None,665.1484136000508,None,right,0.5672018999466673,665.1484136000508,None,,,,,,,,,,,,,,,,,,,,,,,PPT36,001,2022-07-06_10h02.29.464,ABstudy,2022.1.4,59.933892942980926,
AB,Lag1_T1P_T2P,1,P,P,8,9,7,4,13,kite,Did you see the kite?,0.12,0.016,JPG\,scissors01,balloon01b,eraser,feather03a,banana01,candle01,measuringcup01,kite,stapler04b,strawberry,pear01,carrot01,globe,blankImage,blankImage,blankImage,blankImage,kite,,,,,,,,,,,,0,92,92,17,,,,,,,,,,,,,,,,,,,,,,,,,,,,,,,,,,,665.7356079000747,666.7498810000252,666.7163586000679,667.2923112000572,667.2923112000572,None,668.9184780000942,None,right,0.6603952000150457,668.9184780000942,None,669.603669000091,None,left,0.19211510010063648,669.603669000091,None,,,,,,,,,,,,,,,,,,,,,,,PPT36,001,2022-07-06_10h02.29.464,ABstudy,2022.1.4,59.933892942980926,
AB,Lag1_T1A_T2A,1,A,A,8,9,7,3,12,popcorn,Did you see the popcorn?,0.12,0.016,JPG\,brownsugar,candle01,match,printer02,broom01,balloon01b,belt02a,potato02b,computerkeyboard02,feather03a,rice,mushroom01,blankImage,blankImage,blankImage,blankImage,blankImage,banjo,,,,,,,,,,,,0,93,93,290,,,,,,,,,,,,,,,,,,,,,,,,,,,,,,,,,,,669.827265100088,670.8376211000141,670.8207565000048,671.3212215000531,671.3212215000531,None,672.9492921000347,None,left,2.25419560004957,672.9492921000347,None,675.2247535000788,None,right,1.5705000000307336,675.2247535000788,None,,,,,,,,,,,,,,,,,,,,,,,PPT36,001,2022-07-06_10h02.29.464,ABstudy,2022.1.4,59.933892942980926,
AB,Lag1_T1P_T2P,1,P,P,6,7,5,5,12,snowman,Did you see the snowman?,0.12,0.016,JPG\,comb02a,watch02a,scissors01,dice05a,tableknife02,snowman,stapler03a,printer02,dandelion,spoon01,ashtray01,battery02b,blankImage,blankImage,blankImage,blankImage,blankImage,snowman,,,,,,,,,,,,0,94,94,4,,,,,,,,,,,,,,,,,,,,,,,,,,,,,,,,,,,676.8295887000859,677.8441373000387,677.8277240000898,678.4939201000379,678.420063800062,None,679.8888493000995,None,left,0.5464458999922499,679.8888493000995,None,680.4630790000083,None,left,0.15582400001585484,680.4630790000083,None,,,,,,,,,,,,,,,,,,,,,,,PPT36,001,2022-07-06_10h02.29.464,ABstudy,2022.1.4,59.933892942980926,
AB,Lag1_T1P_T2P,1,P,P,7,8,6,4,12,Dog House,Did you see the Dog House?,0.12,0.016,JPG\,pineapple01a,leaf02a,grape01,toiletpaper01a,match,tennisball01b,doghouse,stapler03b,pig,measuringcup01,ring01,lemon02,blankImage,blankImage,blankImage,blankImage,blankImage,doghouse,,,,,,,,,,,,0,95,95,44,,,,,,,,,,,,,,,,,,,,,,,,,,,,,,,,,,,680.6548806000501,681.6648664000677,681.6482404000126,682.2199032000499,682.2199032000499,None,683.7084142999956,None,right,1.0468159000156447,683.7084142999956,None,684.7842773000011,None,left,0.3948326000245288,684.7842773000011,None,,,,,,,,,,,,,,,,,,,,,,,PPT36,001,2022-07-06_10h02.29.464,ABstudy,2022.1.4,59.933892942980926,
AB,Lag1_T1P_T2A,1,P,A,7,8,6,3,11,Snowshoe,Did you see the Snowshoe?,0.12,0.016,JPG\,birthdaycandle,mushroom01,strawberry,match,cherry01,eraser,snowshoe,thermometer02b,sock01a,ring01,feather03a,blankImage,blankImage,blankImage,blankImage,blankImage,blankImage,snowshoe,,,,,,,,,,,,0,96,96,194,,,,,,,,,,,,,,,,,,,,,,,,,,,,,,,,,,,685.20408950001,686.2191303999862,686.1857423000038,686.6863112000283,686.6863112000283,None,688.1234602000332,None,right,1.735436600050889,688.1234602000332,None,689.8897239000071,None,right,0.4896032999968156,689.8897239000071,None,,,,,,,,,,,,,,,,,,,,,,,PPT36,001,2022-07-06_10h02.29.464,ABstudy,2022.1.4,59.933892942980926,
AB,Lag5_T1P_T2P,5,P,P,8,13,7,5,18,Kiwi,Did you see the Kiwi?,0.12,0.016,JPG\,violin,pizza,toothbrush03b,pineapple01a,banana01,ashtray01,candy,kiwi03,clock04,sock01a,microscope,speaker04,stapler04b,sunglasses04,lipstick02a,blueberry01,blankImage,kiwi03,,,,,,,,,,,,0,97,97,111,,,,,,,,,,,,,,,,,,,,,,,,,,,,,,,,,,,690.4118419000879,691.4244131000014,691.4078718000092,691.9900748000946,691.9900748000946,None,693.9101716000587,None,left,0.6454137000255287,693.9101716000587,None,694.5773770000087,None,right,0.21898609993513674,694.5773770000087,None,,,,,,,,,,,,,,,,,,,,,,,PPT36,001,2022-07-06_10h02.29.464,ABstudy,2022.1.4,59.933892942980926,
AB,Lag1_T1A_T2P,1,A,P,8,9,7,5,14,calendar,Did you see the calendar?,0.12,0.016,JPG\,foosballtable,candy,envelope03a,microscope,pencil01,leaf02a,scissors01,watermelon01,stapler04b,dandelion,pineapple01a,hammer01,celery,thermometer02b,blankImage,blankImage,blankImage,trampoline,,,,,,,,,,,,0,98,98,245,,,,,,,,,,,,,,,,,,,,,,,,,,,,,,,,,,,694.8298561000265,695.8452927999897,695.8119660000084,696.3124654000858,696.3124654000858,None,698.1224877000786,None,right,1.2003375000786036,698.1224877000786,None,699.3493569000857,None,right,1.213503000093624,699.3493569000857,None,,,,,,,,,,,,,,,,,,,,,,,PPT36,001,2022-07-06_10h02.29.464,ABstudy,2022.1.4,59.933892942980926,
AB,Lag1_T1A_T2P,1,A,P,8,9,7,4,13,Christmas tree,Did you see the Christmas tree?,0.12,0.016,JPG\,broom01,globe,cellphone,tableknife02,cauliflower01,scissors01,ring01,alligator,stapler03a,toaster01,cigarette,grape01,microscope,blankImage,blankImage,blankImage,blankImage,windmill,,,,,,,,,,,,0,99,99,247,,,,,,,,,,,,,,,,,,,,,,,,,,,,,,,,,,,700.6668036000337,701.6679709000746,701.6512423000531,702.2361008999869,702.2361008999869,None,703.7139082000358,None,right,0.7301609000423923,703.7139082000358,None,704.4702592000831,None,left,0.15734799997881055,704.4702592000831,None,,,,,,,,,,,,,,,,,,,,,,,PPT36,001,2022-07-06_10h02.29.464,ABstudy,2022.1.4,59.933892942980926,
AB,Lag1_T1P_T2P,1,P,P,6,7,5,5,12,owl,Did you see the owl?,0.12,0.016,JPG\,paintbrush01,eraser,medal02b,hammer01,speaker04,greathornowl,stapler01,comb02a,plate01b,clock01a,button01,globe,blankImage,blankImage,blankImage,blankImage,blankImage,greathornowl,,,,,,,,,,,,0,100,100,1,,,,,,,,,,,,,,,,,,,,,,,,,,,,,,,,,,,704.6563254999928,705.6717551000183,705.6383233000524,706.2126967000077,706.2126967000077,None,707.686783400015,None,left,0.6534213999984786,707.686783400015,None,708.3577513000928,None,right,0.8210197000298649,708.3577513000928,None,,,,,,,,,,,,,,,,,,,,,,,PPT36,001,2022-07-06_10h02.29.464,ABstudy,2022.1.4,59.933892942980926,
AB,Lag5_T1A_T2P,5,A,P,5,10,4,4,14,mail box,Did you see the mail box?,0.12,0.016,JPG\,button01,celery,birthdaycandle,apple07,avocado01,tennisball01b,dice05a,teabag,clock01a,stapler05,tomato01,scarf,orange,battery02b,blankImage,blankImage,blankImage,jeep,,,,,,,,,,,,0,101,101,263,,,,,,,,,,,,,,,,,,,,,,,,,,,,,,,,,,,709.2681723000715,710.2765531000914,710.2431162000867,710.8673981000902,710.8673981000902,None,712.538774900022,None,right,1.4329853999661282,712.538774900022,None,713.9970118000638,None,right,1.0620216999668628,713.9970118000638,None,,,,,,,,,,,,,,,,,,,,,,,PPT36,001,2022-07-06_10h02.29.464,ABstudy,2022.1.4,59.933892942980926,
AB,Lag1_T1P_T2P,1,P,P,5,6,4,3,9,hockey stick,Did you see the hockey stick?,0.12,0.016,JPG\,violin,pizza,toothbrush03b,pineapple01a,hockeystick,stapler03b,candy,dandelion,clock04,blankImage,blankImage,blankImage,blankImage,blankImage,blankImage,blankImage,blankImage,hockeystick,,,,,,,,,,,,0,102,102,63,,,,,,,,,,,,,,,,,,,,,,,,,,,,,,,,,,,715.0861747000599,716.0990066000959,716.0822413000278,716.6853200000478,716.6853200000478,None,717.8247974000406,None,left,1.2035287000471726,717.8247974000406,None,719.0520767000271,None,right,7.374891599989496,719.0520767000271,None,,,,,,,,,,,,,,,,,,,,,,,PPT36,001,2022-07-06_10h02.29.464,ABstudy,2022.1.4,59.933892942980926,
AB,Lag1_T1P_T2P,1,P,P,8,9,7,3,12,Fire hydrant,Did you see the Fire hydrant?,0.12,0.016,JPG\,foosballtable,candy,envelope03a,microscope,pencil01,leaf02a,scissors01,firehydrant,stapler01,dandelion,pineapple01a,hammer01,blankImage,blankImage,blankImage,blankImage,blankImage,firehydrant,,,,,,,,,,,,0,103,103,83,,,,,,,,,,,,,,,,,,,,,,,,,,,,,,,,,,,726.465190900024,727.4770807999885,727.4602120000636,727.9616552999942,727.9616552999942,None,729.4766579000279,None,left,0.6141017000190914,729.4766579000279,None,730.1130988000659,None,right,0.5149634999688715,730.1130988000659,None,,,,,,,,,,,,,,,,,,,,,,,PPT36,001,2022-07-06_10h02.29.464,ABstudy,2022.1.4,59.933892942980926,
AB,Lag5_T1P_T2A,5,P,A,6,11,5,5,16,hat,Did you see the hat?,0.12,0.016,JPG\,apple07,toiletpaper01a,pizza,dandelion,greenolive,pilgrimhat,microscope,violin,orange,lipstick02a,balloon01b,sandal,lighter01,fan,book01b,sewingmachine01a,blankImage,pilgrimhat,,,,,,,,,,,,0,104,104,206,,,,,,,,,,,,,,,,,,,,,,,,,,,,,,,,,,,730.6500638000434,731.6643931000726,731.631034500082,732.3168465000344,732.3168465000344,None,734.1574907000177,None,left,2.4382876000599936,734.1574907000177,None,736.6192691000178,None,right,1.1437063999474049,736.6192691000178,None,,,,,,,,,,,,,,,,,,,,,,,PPT36,001,2022-07-06_10h02.29.464,ABstudy,2022.1.4,59.933892942980926,
AB,Lag1_T1P_T2P,1,P,P,6,7,5,5,12,Snowboard,Did you see the Snowboard?,0.12,0.016,JPG\,belt02a,measuringcup01,spoon01,chain01,greenolive,snowboard,stapler01,onion,fan,strawberry,candle01,broom01,blankImage,blankImage,blankImage,blankImage,blankImage,snowboard,,,,,,,,,,,,0,105,105,49,,,,,,,,,,,,,,,,,,,,,,,,,,,,,,,,,,,737.797920800047,738.804684300092,738.788039600011,739.3970380000537,739.3970380000537,None,740.7960531000281,None,right,1.288168300059624,740.7960531000281,None,742.1080271000974,None,left,0.26307029998861253,742.1080271000974,None,,,,,,,,,,,,,,,,,,,,,,,PPT36,001,2022-07-06_10h02.29.464,ABstudy,2022.1.4,59.933892942980926,
AB,Lag1_T1A_T2P,1,A,P,8,9,7,5,14,clock,Did you see the clock?,0.12,0.016,JPG\,speaker04,sewingmachine01a,eraser,violin,globe,belt02a,sunglasses04,cymbal,stapler01,greenolive,alligator,pear01,watch02a,screwdriver04b,blankImage,blankImage,blankImage,peacock,,,,,,,,,,,,0,106,106,240,,,,,,,,,,,,,,,,,,,,,,,,,,,,,,,,,,,742.3938527000137,743.4092466000002,743.3759302000981,743.9621775000123,743.9621775000123,None,745.6910837000469,None,right,0.9838613000465557,745.6910837000469,None,746.6963384000119,None,left,0.8832166000502184,746.6963384000119,None,,,,,,,,,,,,,,,,,,,,,,,PPT36,001,2022-07-06_10h02.29.464,ABstudy,2022.1.4,59.933892942980926,
AB,Lag5_T1A_T2P,5,A,P,7,12,6,4,16,flower,Did you see the flower?,0.12,0.016,JPG\,printer02,envelope03a,potato02b,calculator01,tableknife02,cigarette,ashtray01,pig,broom01,greenolive,candle08b,stapler03a,strawberry,candle01,foosballtable,tennisball01b,blankImage,calendar,,,,,,,,,,,,0,107,107,282,,,,,,,,,,,,,,,,,,,,,,,,,,,,,,,,,,,747.6011705000419,748.6146571000572,748.597922099987,749.1980031999992,749.1980031999992,None,751.1915222000098,None,right,1.059994800016284,751.1915222000098,None,752.2692169999937,None,right,0.9982885000063106,752.2692169999937,None,,,,,,,,,,,,,,,,,,,,,,,PPT36,001,2022-07-06_10h02.29.464,ABstudy,2022.1.4,59.933892942980926,
AB,Lag5_T1P_T2P,5,P,P,5,10,4,5,15,hockey puck,Did you see the hockey puck?,0.12,0.016,JPG\,chain01,pen04b,birthdaycandle,watermelon01,hockeypuck,scissors01,measuringcup01,candle01,hammer01,stapler06,ashtray01,feather03a,sewingmachine01a,thermometer02b,alligator,blankImage,blankImage,hockeypuck,,,,,,,,,,,,0,108,108,110,,,,,,,,,,,,,,,,,,,,,,,,,,,,,,,,,,,753.294167199987,754.3041625000769,754.2885377000785,754.8748858000617,754.8748858000617,None,756.5915390000446,None,left,0.5480271000415087,756.5915390000446,None,757.1567262000171,None,right,0.6542097000638023,757.1567262000171,None,,,,,,,,,,,,,,,,,,,,,,,PPT36,001,2022-07-06_10h02.29.464,ABstudy,2022.1.4,59.933892942980926,
AB,Lag1_T1P_T2A,1,P,A,8,9,7,4,13,boat,Did you see the boat?,0.12,0.016,JPG\,fork03c,dandelion,dice05a,belt02a,onion,watch02a,key01,boat,eraser,medal02b,greenolive,shirt02,candle08b,blankImage,blankImage,blankImage,blankImage,boat,,,,,,,,,,,,0,109,109,199,,,,,,,,,,,,,,,,,,,,,,,,,,,,,,,,,,,757.84540380002,758.8583126000594,758.841564900009,759.4696909000631,759.3958706000121,None,761.0281667000381,None,right,1.0067420999985188,761.0281667000381,None,762.0615498000989,None,right,0.637442099978216,762.0615498000989,None,,,,,,,,,,,,,,,,,,,,,,,PPT36,001,2022-07-06_10h02.29.464,ABstudy,2022.1.4,59.933892942980926,
AB,Lag1_T1A_T2P,1,A,P,8,9,7,4,13,Rabbit,Did you see the Rabbit?,0.12,0.016,JPG\,lamp04a,broccoli01a,alligator,garlic01a,dandelion,brownsugar,avocado01,ring01,stapler06,cellphone,medal02b,cd,calculator01,blankImage,blankImage,blankImage,blankImage,escalator,,,,,,,,,,,,0,110,110,254,,,,,,,,,,,,,,,,,,,,,,,,,,,,,,,,,,,762.7343161000172,763.746357300086,763.7297708000988,764.3090864000842,764.3090864000842,None,765.9470340000698,None,right,0.5837435000576079,765.9470340000698,None,766.5509692000924,None,right,0.6683398000895977,766.5509692000924,None,,,,,,,,,,,,,,,,,,,,,,,PPT36,001,2022-07-06_10h02.29.464,ABstudy,2022.1.4,59.933892942980926,
AB,Lag5_T1A_T2P,5,A,P,6,11,5,5,16,baseball bat,Did you see the baseball bat?,0.12,0.016,JPG\,avocado01,aceofdiamond,match,cauliflower01,paintbrush01,clock01a,pig,cd,balloon01b,cellphone,stapler01,pear01,toaster01,sponge01,orange,blueberry01,blankImage,stool01,,,,,,,,,,,,0,111,111,273,,,,,,,,,,,,,,,,,,,,,,,,,,,,,,,,,,,767.2537793000229,768.2674626000226,768.2507492000004,768.8424147000769,768.8424147000769,None,770.7953960000305,None,right,1.5192711999407038,770.7953960000305,None,772.33807659999,None,left,0.2725036999909207,772.33807659999,None,,,,,,,,,,,,,,,,,,,,,,,PPT36,001,2022-07-06_10h02.29.464,ABstudy,2022.1.4,59.933892942980926,
AB,Lag1_T1P_T2P,1,P,P,5,6,4,5,11,Basketball,Did you see the Basketball?,0.12,0.016,JPG\,pencil01,microscope,banana01,computerkeyboard02,basketball01,stapler04b,scissors01,sock01a,book01b,onion,dice05a,blankImage,blankImage,blankImage,blankImage,blankImage,blankImage,basketball01,,,,,,,,,,,,0,112,112,34,,,,,,,,,,,,,,,,,,,,,,,,,,,,,,,,,,,772.6420266000787,773.6560899000615,773.6394602000946,774.2595134000294,774.1922412000131,None,775.665993200033,None,left,0.5374481999315321,775.665993200033,None,776.2281789000845,None,right,0.46317340002860874,776.2281789000845,None,,,,,,,,,,,,,,,,,,,,,,,PPT36,001,2022-07-06_10h02.29.464,ABstudy,2022.1.4,59.933892942980926,
AB,Lag1_T1P_T2A,1,P,A,5,6,4,4,10,bird,Did you see the bird?,0.12,0.016,JPG\,toaster01,scarf,toiletpaper01a,calculator01,swallow,sewingmachine01a,fan,teabag,strawberry,balloon01b,blankImage,blankImage,blankImage,blankImage,blankImage,blankImage,blankImage,swallow,,,,,,,,,,,,0,113,113,195,,,,,,,,,,,,,,,,,,,,,,,,,,,,,,,,,,,776.7198417000473,777.7266285000369,777.7099927000236,778.3422943000915,778.3422943000915,None,779.5766845000908,None,left,0.706003800034523,779.5766845000908,None,780.3127050000476,None,right,0.881963700056076,780.3127050000476,None,,,,,,,,,,,,,,,,,,,,,,,PPT36,001,2022-07-06_10h02.29.464,ABstudy,2022.1.4,59.933892942980926,
AB,Lag1_T1P_T2P,1,P,P,8,9,7,3,12,bridge,Did you see the bridge?,0.12,0.016,JPG\,speaker04,sewingmachine01a,eraser,violin,globe,belt02a,sunglasses04,bridge,stapler01,greenolive,alligator,pear01,blankImage,blankImage,blankImage,blankImage,blankImage,bridge,,,,,,,,,,,,0,114,114,78,,,,,,,,,,,,,,,,,,,,,,,,,,,,,,,,,,,781.2166277000215,782.2313508000225,782.1980118000647,782.7879943000153,782.7879943000153,None,784.3276473000878,None,right,1.3236585999839008,784.3276473000878,None,785.668443200062,None,left,0.15979339997284114,785.668443200062,None,,,,,,,,,,,,,,,,,,,,,,,PPT36,001,2022-07-06_10h02.29.464,ABstudy,2022.1.4,59.933892942980926,
AB,Lag1_T1P_T2A,1,P,A,7,8,6,5,13,Well,Did you see the Well?,0.12,0.016,JPG\,leaf02a,apple07,cd,pineapple01a,envelope03a,paintbrush01,well,acorn,rice,feather03a,lemon02,balloon01b,avocado01,blankImage,blankImage,blankImage,blankImage,well,,,,,,,,,,,,0,115,115,178,,,,,,,,,,,,,,,,,,,,,,,,,,,,,,,,,,,785.8569580999902,786.8696430000709,786.8530070000561,787.4274011000525,787.4274011000525,None,789.0212413000409,None,right,1.0620015000458807,789.0212413000409,None,790.1061419000616,None,right,0.5604066000087187,790.1061419000616,None,,,,,,,,,,,,,,,,,,,,,,,PPT36,001,2022-07-06_10h02.29.464,ABstudy,2022.1.4,59.933892942980926,
AB,Lag5_T1P_T2P,5,P,P,5,10,4,5,15,sword fish,Did you see the sword fish?,0.12,0.016,JPG\,scissors01,balloon01b,eraser,feather03a,swordfish,candle01,measuringcup01,calculator01,thermometer02b,stapler04b,pear01,carrot01,globe,baseball01a,leaf02a,blankImage,blankImage,swordfish,,,,,,,,,,,,0,116,116,160,,,,,,,,,,,,,,,,,,,,,,,,,,,,,,,,,,,790.6950334000867,791.7079718000023,791.6921103000641,792.2920973000582,792.2920973000582,None,794.073618400027,None,right,0.9697592000011355,794.073618400027,None,795.0605806000531,None,left,0.18273270002100617,795.0605806000531,None,,,,,,,,,,,,,,,,,,,,,,,PPT36,001,2022-07-06_10h02.29.464,ABstudy,2022.1.4,59.933892942980926,
AB,Lag1_T1P_T2A,1,P,A,5,6,4,5,11,Toaster oven,Did you see the Toaster oven?,0.12,0.016,JPG\,fork03c,toothbrush03b,cellphone,fan,toasteroven,clock01a,ring01,eraser,sunglasses04,thermometer02b,violin,blankImage,blankImage,blankImage,blankImage,blankImage,blankImage,toasteroven,,,,,,,,,,,,0,117,117,200,,,,,,,,,,,,,,,,,,,,,,,,,,,,,,,,,,,795.2633515000343,796.2786056000041,796.2452268000925,796.8284780000104,796.8284780000104,None,798.146603000001,None,right,0.7777855000458658,798.146603000001,None,798.9483405000065,None,right,0.9669253999600187,798.9483405000065,None,,,,,,,,,,,,,,,,,,,,,,,PPT36,001,2022-07-06_10h02.29.464,ABstudy,2022.1.4,59.933892942980926,
AB,Lag1_T1A_T2P,1,A,P,8,9,7,3,12,elbow,Did you see the elbow?,0.12,0.016,JPG\,watermelon01,cigarette,faucet,cymbal,cauliflower01,feather03a,cherry01,broom01,stapler01,key01,baseball01a,iron01b,blankImage,blankImage,blankImage,blankImage,blankImage,cashregister01,,,,,,,,,,,,0,118,118,251,,,,,,,,,,,,,,,,,,,,,,,,,,,,,,,,,,,799.9372210000874,800.9502210000064,800.9335611000424,801.5242140000919,801.5242140000919,None,803.0586203000275,None,right,0.8485587000614032,803.0586203000275,None,803.9366212000605,None,left,0.210488099954091,803.9366212000605,None,,,,,,,,,,,,,,,,,,,,,,,PPT36,001,2022-07-06_10h02.29.464,ABstudy,2022.1.4,59.933892942980926,
AB,Lag5_T1P_T2A,5,P,A,5,10,4,3,13,martini glass,Did you see the martini glass?,0.12,0.016,JPG\,brick,eraser,cucumber,ashtray01,martiniglass01b,binoculars01b,lipstick02a,screwdriver04b,grape01,brownsugar,battery02b,iron01b,dice05a,blankImage,blankImage,blankImage,blankImage,martiniglass01b,,,,,,,,,,,,0,119,119,217,,,,,,,,,,,,,,,,,,,,,,,,,,,,,,,,,,,804.1751256000716,805.1880651999963,805.1724178000586,805.7915583000286,805.7915583000286,None,807.3368822000921,None,left,1.162510099937208,807.3368822000921,None,808.5244825000409,None,right,0.2068325000582263,808.5244825000409,None,,,,,,,,,,,,,,,,,,,,,,,PPT36,001,2022-07-06_10h02.29.464,ABstudy,2022.1.4,59.933892942980926,
AB,Lag1_T1P_T2P,1,P,P,8,9,7,3,12,Eiffel tower,Did you see the Eiffel tower?,0.12,0.016,JPG\,celery,tennisball01b,calculator01,pear01,screw02,orange,button01,eiffeltower,stapler03b,apple07,iron01b,brownsugar,blankImage,blankImage,blankImage,blankImage,blankImage,eiffeltower,,,,,,,,,,,,0,120,120,40,,,,,,,,,,,,,,,,,,,,,,,,,,,,,,,,,,,808.7649043999845,809.7756513000932,809.7590448000701,810.3348900000565,810.3348900000565,None,811.7604473000392,None,left,0.9223241000436246,811.7604473000392,None,812.7126720000524,None,left,0.4031752999871969,812.7126720000524,None,,,,,,,,,,,,,,,,,,,,,,,PPT36,001,2022-07-06_10h02.29.464,ABstudy,2022.1.4,59.933892942980926,
AB,Lag5_T1P_T2P,5,P,P,5,10,4,4,14,bell,Did you see the bell?,0.12,0.016,JPG\,teabag,envelope03a,cellphone,apple07,callbell,orange,brownsugar,book01b,hammer01,stapler03b,toaster01,calculator01,globe,battery02b,blankImage,blankImage,blankImage,callbell,,,,,,,,,,,,0,121,121,147,,,,,,,,,,,,,,,,,,,,,,,,,,,,,,,,,,,813.1507817000384,814.1633575999876,814.1467761000386,814.7383904000744,814.7383904000744,None,816.4196053000633,None,left,0.43154979997780174,816.4196053000633,None,816.8824918000028,None,left,0.18470749992411584,816.8824918000028,None,,,,,,,,,,,,,,,,,,,,,,,PPT36,001,2022-07-06_10h02.29.464,ABstudy,2022.1.4,59.933892942980926,
AB,Lag5_T1P_T2P,5,P,P,7,12,6,5,17,Pigeon,Did you see the Pigeon?,0.12,0.016,JPG\,strawberry,leaf02a,clock04,candle01,avocado01,paintbrush01,pigeon,brownsugar,ring01,lemon02,fork03c,stapler01,cauliflower01,tableknife02,tennisball01b,thermometer02b,blankImage,pigeon,,,,,,,,,,,,0,122,122,151,,,,,,,,,,,,,,,,,,,,,,,,,,,,,,,,,,,817.1046330000972,818.1173405000009,818.1006807000376,818.681958500063,818.681958500063,None,820.6364489000989,None,left,0.4787811000132933,820.6364489000989,None,821.1366971000098,None,left,0.1304532999638468,821.1366971000098,None,,,,,,,,,,,,,,,,,,,,,,,PPT36,001,2022-07-06_10h02.29.464,ABstudy,2022.1.4,59.933892942980926,
AB,Lag1_T1A_T2P,1,A,P,5,6,4,3,9,microphone,Did you see the microphone?,0.12,0.016,JPG\,hammer01,sponge01,toaster01,cherry01,feather03a,stapler06,measuringcup01,pencil01,tennisball01b,blankImage,blankImage,blankImage,blankImage,blankImage,blankImage,blankImage,blankImage,cactus,,,,,,,,,,,,0,123,123,230,,,,,,,,,,,,,,,,,,,,,,,,,,,,,,,,,,,821.2905304000014,822.3045282000676,822.2879122000886,822.9107527000597,822.8424123000586,None,823.9400464000646,None,right,0.7584019999485463,823.9400464000646,None,824.7239029000048,None,left,0.22245310002472252,824.7239029000048,None,,,,,,,,,,,,,,,,,,,,,,,PPT36,001,2022-07-06_10h02.29.464,ABstudy,2022.1.4,59.933892942980926,
AB,Lag1_T1P_T2P,1,P,P,7,8,6,3,11,compass,Did you see the compass?,0.12,0.016,JPG\,brick,plate01b,pen04b,toaster01,screwdriver04b,candle01,magneticcompass,stapler03a,pig,ring01,orange,blankImage,blankImage,blankImage,blankImage,blankImage,blankImage,magneticcompass,,,,,,,,,,,,0,124,124,66,,,,,,,,,,,,,,,,,,,,,,,,,,,,,,,,,,,824.9797466000309,825.9921933000442,825.9764674000908,826.5881835999899,826.5881835999899,None,827.8768896000693,None,left,0.6780280999373645,827.8768896000693,None,828.5771592000965,None,right,1.441491200006567,828.5771592000965,None,,,,,,,,,,,,,,,,,,,,,,,PPT36,001,2022-07-06_10h02.29.464,ABstudy,2022.1.4,59.933892942980926,
AB,Lag1_T1P_T2P,1,P,P,6,7,5,3,10,cupcake,Did you see the cupcake?,0.12,0.016,JPG\,printer02,leaf02a,cauliflower01,sock01a,brownsugar,cupcake,stapler01,orange,belt02a,shirt02,blankImage,blankImage,blankImage,blankImage,blankImage,blankImage,blankImage,cupcake,,,,,,,,,,,,0,125,125,38,,,,,,,,,,,,,,,,,,,,,,,,,,,,,,,,,,,830.0480256000301,831.0471327000996,831.0315241999924,831.6253792000934,831.6253792000934,None,832.8304362000199,None,left,0.4373460999922827,832.8304362000199,None,833.2992335000308,None,left,0.1597890000557527,833.2992335000308,None,,,,,,,,,,,,,,,,,,,,,,,PPT36,001,2022-07-06_10h02.29.464,ABstudy,2022.1.4,59.933892942980926,
AB,Lag5_T1P_T2P,5,P,P,8,13,7,4,17,cruise ship,Did you see the cruise ship?,0.12,0.016,JPG\,measuringcup01,dice05a,greenolive,lipstick02a,feather03a,balloon01b,lighter01,cruiseship,carrot01,plate01b,microscope,brick,stapler05,screw02,speaker04,spoon01,blankImage,cruiseship,,,,,,,,,,,,0,126,126,105,,,,,,,,,,,,,,,,,,,,,,,,,,,,,,,,,,,833.5311364000663,834.5333931000205,834.516697700019,835.1329047000036,835.1329047000036,None,837.007119600079,None,left,0.5310988000128418,837.007119600079,None,837.571485600085,None,left,0.17530290002468973,837.571485600085,None,,,,,,,,,,,,,,,,,,,,,,,PPT36,001,2022-07-06_10h02.29.464,ABstudy,2022.1.4,59.933892942980926,
AB,Lag5_T1P_T2P,5,P,P,7,12,6,4,16,Fireplace,Did you see the Fireplace?,0.12,0.016,JPG\,printer02,leaf02a,cauliflower01,sock01a,brownsugar,paintbrush01,fireplace,orange,belt02a,shirt02,key01,stapler01,cigarette,scissors01,envelope03a,blueberry01,blankImage,fireplace,,,,,,,,,,,,0,127,127,88,,,,,,,,,,,,,,,,,,,,,,,,,,,,,,,,,,,837.77643670002,838.7880225999979,838.7712008000817,839.353206000058,839.353206000058,None,841.3041743000504,None,left,0.8270419000182301,841.3041743000504,None,842.1580139000434,None,right,1.04617539991159,842.1580139000434,None,,,,,,,,,,,,,,,,,,,,,,,PPT36,001,2022-07-06_10h02.29.464,ABstudy,2022.1.4,59.933892942980926,
AB,Lag1_T1P_T2P,1,P,P,6,7,5,3,10,Pool table,Did you see the Pool table?,0.12,0.016,JPG\,tomato01,pen04b,shirt02,carrot01,lamp04a,pooltable,stapler06,avocado01,sewingmachine01a,apple07,blankImage,blankImage,blankImage,blankImage,blankImage,blankImage,blankImage,pooltable,,,,,,,,,,,,0,128,128,29,,,,,,,,,,,,,,,,,,,,,,,,,,,,,,,,,,,843.2327803000808,844.2432848000899,844.2266659000888,844.8128277000505,844.8128277000505,None,846.0582041000016,None,left,0.4725815000711009,846.0582041000016,None,846.5633496000664,None,left,0.11914610001258552,846.5633496000664,None,,,,,,,,,,,,,,,,,,,,,,,PPT36,001,2022-07-06_10h02.29.464,ABstudy,2022.1.4,59.933892942980926,
AB,Lag1_T1P_T2P,1,P,P,8,9,7,3,12,apron,Did you see the apron?,0.12,0.016,JPG\,avocado01,tambourine02,match,cauliflower01,paintbrush01,clock01a,pig,apron,stapler03a,cellphone,watch02a,pear01,blankImage,blankImage,blankImage,blankImage,blankImage,apron,,,,,,,,,,,,0,129,129,32,,,,,,,,,,,,,,,,,,,,,,,,,,,,,,,,,,,846.7172161000781,847.7300105000613,847.7134362000506,848.2982670000056,848.2982670000056,None,849.7494810000062,None,right,0.8376252000452951,849.7494810000062,None,850.6162894000299,None,left,0.13884299993515015,850.6162894000299,None,,,,,,,,,,,,,,,,,,,,,,,PPT36,001,2022-07-06_10h02.29.464,ABstudy,2022.1.4,59.933892942980926,
AB,Lag5_T1P_T2P,5,P,P,6,11,5,3,14,fish,Did you see the fish?,0.12,0.016,JPG\,broom01,globe,cellphone,tableknife02,cauliflower01,holdfast,ring01,alligator,rice,toaster01,stapler03b,grape01,microscope,cucumber,blankImage,blankImage,blankImage,holdfast,,,,,,,,,,,,0,130,130,133,,,,,,,,,,,,,,,,,,,,,,,,,,,,,,,,,,,850.7846299000084,851.784141400014,851.7673847000115,852.3354116000701,852.3354116000701,None,854.0932610000018,None,left,0.42927900003269315,854.0932610000018,None,854.5542360000545,None,left,0.12876190000679344,854.5542360000545,None,,,,,,,,,,,,,,,,,,,,,,,PPT36,001,2022-07-06_10h02.29.464,ABstudy,2022.1.4,59.933892942980926,
AB,Lag1_T1P_T2P,1,P,P,7,8,6,4,12,skunk,Did you see the skunk?,0.12,0.016,JPG\,fan,tomato01,candy,screwdriver04b,alligator,cd,skunk,stapler03b,button01,plate01b,brownsugar,lighter01,blankImage,blankImage,blankImage,blankImage,blankImage,skunk,,,,,,,,,,,,0,131,131,48,,,,,,,,,,,,,,,,,,,,,,,,,,,,,,,,,,,854.7075628000312,855.7214949000627,855.7047534000594,856.2799124000594,856.2799124000594,None,857.7794185000239,None,left,0.5913583000656217,857.7794185000239,None,858.3908139000414,None,left,0.19625210005324334,858.3908139000414,None,,,,,,,,,,,,,,,,,,,,,,,PPT36,001,2022-07-06_10h02.29.464,ABstudy,2022.1.4,59.933892942980926,
AB,Lag5_T1A_T2A,5,A,A,7,12,6,4,16,boxing glove,Did you see the boxing glove?,0.12,0.016,JPG\,cherry01,cymbal,envelope03a,foosballtable,shirt02,cellphone,sewingmachine01a,candle08b,battery02b,apple07,pencil01,screwdriver04b,strawberry,sunglasses04,feather03a,rice,blankImage,lollipop04,,,,,,,,,,,,0,132,132,296,,,,,,,,,,,,,,,,,,,,,,,,,,,,,,,,,,,858.6142503999872,859.6256068000803,859.6100527000381,860.2644578000763,860.1909288000315,None,862.1715762000531,None,right,0.7351301999296993,862.1715762000531,None,862.9283004000317,None,right,0.8353885000105947,862.9283004000317,None,,,,,,,,,,,,,,,,,,,,,,,PPT36,001,2022-07-06_10h02.29.464,ABstudy,2022.1.4,59.933892942980926,
AB,Lag5_T1A_T2A,5,A,A,5,10,4,5,15,flower,Did you see the flower?,0.12,0.016,JPG\,clock01a,cellphone,toaster01,toothbrush03b,cauliflower01,microscope,comb02a,paintbrush01,scarf,clock04,sponge01,iron01b,watch02a,celery,ring01,blankImage,blankImage,stepladder,,,,,,,,,,,,0,133,133,303,,,,,,,,,,,,,,,,,,,,,,,,,,,,,,,,,,,863.7980913000647,864.8135780000594,864.7801620000973,865.3651331000729,865.3651331000729,None,867.2142994999886,None,right,0.6847724000690505,867.2142994999886,None,867.9169713000301,None,right,0.6373240000102669,867.9169713000301,None,,,,,,,,,,,,,,,,,,,,,,,PPT36,001,2022-07-06_10h02.29.464,ABstudy,2022.1.4,59.933892942980926,
AB,Lag1_T1A_T2P,1,A,P,6,7,5,5,12,Ostrich,Did you see the Ostrich?,0.12,0.016,JPG\,thermometer02b,candle08b,comb02a,toothbrush03b,brick,computerkeyboard02,stapler05,pineapple01a,candy,birthdaycandle,clock04,hairclip03,blankImage,blankImage,blankImage,blankImage,blankImage,discoball,,,,,,,,,,,,0,134,134,232,,,,,,,,,,,,,,,,,,,,,,,,,,,,,,,,,,,868.5912539000856,869.6017882000888,869.5850123000564,870.1762982000364,870.1762982000364,None,871.6849464999977,None,right,0.8221975000342354,871.6849464999977,None,872.5384848000249,None,right,0.6802971001015976,872.5384848000249,None,,,,,,,,,,,,,,,,,,,,,,,PPT36,001,2022-07-06_10h02.29.464,ABstudy,2022.1.4,59.933892942980926,
AB,Lag1_T1P_T2A,1,P,A,5,6,4,4,10,flower,Did you see the flower?,0.12,0.016,JPG\,broom01,globe,cellphone,tableknife02,daffodil,scissors01,ring01,alligator,rice,toaster01,blankImage,blankImage,blankImage,blankImage,blankImage,blankImage,blankImage,daffodil,,,,,,,,,,,,0,135,135,184,,,,,,,,,,,,,,,,,,,,,,,,,,,,,,,,,,,873.2480928000296,874.2563232000684,874.2396374000236,874.8130007000873,874.8130007000873,None,876.0827068000799,None,left,0.4404125999426469,876.0827068000799,None,876.5433509000577,None,right,0.459268799982965,876.5433509000577,None,,,,,,,,,,,,,,,,,,,,,,,PPT36,001,2022-07-06_10h02.29.464,ABstudy,2022.1.4,59.933892942980926,
AB,Lag1_T1P_T2P,1,P,P,5,6,4,5,11,candy cane,Did you see the candy cane?,0.12,0.016,JPG\,shirt02,match,screw02,foosballtable,candycane01a,stapler04b,sewingmachine01a,watch02a,button01,comb02a,dice05a,blankImage,blankImage,blankImage,blankImage,blankImage,blankImage,candycane01a,,,,,,,,,,,,0,136,136,9,,,,,,,,,,,,,,,,,,,,,,,,,,,,,,,,,,,877.0307529000565,878.0434837000212,878.0267862000037,878.6699810000136,878.6699810000136,None,880.0255595000926,None,left,0.4330073999008164,880.0255595000926,None,880.4794866000302,None,right,0.20312630000989884,880.4794866000302,None,,,,,,,,,,,,,,,,,,,,,,,PPT36,001,2022-07-06_10h02.29.464,ABstudy,2022.1.4,59.933892942980926,
