TrialType,CondType,Lag,T1_PA,T2_PA,T1Loc,T2Loc,PreDistractor,PostDistractor,TotalImg,cueWord,T1cue,StimLength,isi,PicFolder,Img1,Img2,Img3,Img4,Img5,Img6,Img7,Img8,Img9,Img10,Img11,Img12,Img13,Img14,Img15,Img16,Img17,T1_Identity,ImageType,T1PA,T2PA,Picture,Image,FullPathName,FilePath,Practice_Trials.thisRepN,Practice_Trials.thisTrialN,Practice_Trials.thisN,Practice_Trials.thisIndex,trials.thisRepN,trials.thisTrialN,trials.thisN,trials.thisIndex,trials_2.thisRepN,trials_2.thisTrialN,trials_2.thisN,trials_2.thisIndex,Practice_Ins.started,Practice_Ins.stopped,End_Prac_Ins.keys,End_Prac_Ins.rt,End_Prac_Ins.started,End_Prac_Ins.stopped,text_2.started,text_2.stopped,Fixation_Cross_2.started,Fixation_Cross_2.stopped,Rapid_Image_Present_2.started,Rapid_Image_Present_2.stopped,key_resp.keys,key_resp.rt,key_resp.started,key_resp.stopped,T1Response_2.started,T1Response_2.stopped,T2Response_2.started,T2Response_2.stopped,key_resp_4.keys,key_resp_4.rt,key_resp_4.started,key_resp_4.stopped,text.started,text.stopped,End_Instructions.keys,End_Instructions.rt,End_Instructions.started,End_Instructions.stopped,text_5.started,text_5.stopped,FC.started,FC.stopped,Rapid_Image_Present.started,Rapid_Image_Present.stopped,T1Response.started,T1Response.stopped,key_resp_2.keys,key_resp_2.rt,key_resp_2.started,key_resp_2.stopped,T2Response.started,T2Response.stopped,key_resp_3.keys,key_resp_3.rt,key_resp_3.started,key_resp_3.stopped,text_6.started,text_6.stopped,Fin_ins.keys,Fin_ins.rt,Fin_ins.started,Fin_ins.stopped,MemTest.started,MemTest.stopped,MemResponse.keys,MemResponse.rt,MemResponse.started,MemResponse.stopped,Display.started,Display.stopped,text_7.started,text_7.stopped,endOfExperiment.started,endOfExperiment.stopped,key_resp_5.keys,key_resp_5.rt,key_resp_5.started,key_resp_5.stopped,participant,session,date,expName,psychopyVersion,frameRate,
,,,,,,,,,,,,,,,,,,,,,,,,,,,,,,,,,,,,,,,,,,,,,,,,,,,,31.025166999956127,None,space,47.21925349999219,31.025166999956127,None,,,,,,,,,,,,,,,,,,,,,,,,,,,,,,,,,,,,,,,,,,,,,,,,,,,,,,,,,,,,,,,,,PPT34,001,2022-07-05_16h29.47.151,ABstudy,2022.1.4,59.93008556005791,
AB_Prac,Lag5_T1A_T2A,5,A,A,6,11,5,5,16,castle,Did you see the castle?,0.5,0.016,JPG\,tape02a,englishmuffin,flask,ladle02a,monitor,peach01,keychain,squeegee01b,telephone01b,whisk,walkman,syringe02,baguette01,coaster,box01a,coffeepot03a,blankImage,None,,,,,,,,0,0,0,11,,,,,,,,,,,,,,,78.33408869995037,79.33341119997203,79.33341119997203,79.96603859995957,79.96603859995957,None,right,1.9386989999911748,88.0322954999865,None,88.0322954999865,None,89.9941920999554,None,right,1.7926805000170134,89.9941920999554,None,,,,,,,,,,,,,,,,,,,,,,,,,,,,,,,,,,,,,,,,,,,,,,,PPT34,001,2022-07-05_16h29.47.151,ABstudy,2022.1.4,59.93008556005791,
AB_Prac,Lag1_T1P_T2P,1,P,P,8,9,7,5,14,Tennis racket,Did you see the Tennis racket?,0.5,0.016,JPG\,coconut,computermouse06,croissant01,deodorant02a,pillow01a,peanut01,boot02b,tennisracket,stapler03b,crayon,eggplant,marker01a,plant01,radish01,blankImage,blankImage,blankImage,tennisracket,,,,,,,,0,1,1,0,,,,,,,,,,,,,,,91.81893409998156,92.83017599995947,92.81347619998269,93.40627139998833,93.40627139998833,None,left,0.9633490000269376,100.41523259994574,None,100.41523259994574,None,101.4058279999881,None,left,0.564693599997554,101.4058279999881,None,,,,,,,,,,,,,,,,,,,,,,,,,,,,,,,,,,,,,,,,,,,,,,,PPT34,001,2022-07-05_16h29.47.151,ABstudy,2022.1.4,59.93008556005791,
AB_Prac,Lag1_T1A_T2A,1,A,A,8,9,7,3,12,Moose,Did you see the Moose?,0.5,0.016,JPG\,clothespin03b,corkscrew03a,drillbit03a,fusilli03a,needlenosepliers01,perfume01a,pistachio,scrubbingbrush05b,spatula03,toothpastetube,hinge,toydinosaur,blankImage,blankImage,blankImage,blankImage,blankImage,None,,,,,,,,0,2,2,10,,,,,,,,,,,,,,,101.99109569995198,102.99043309997069,102.97386069997447,103.56994349998422,103.56994349998422,None,right,1.4188300999812782,109.63218219997361,None,109.63218219997361,None,111.08173039997928,None,right,0.8889449999551289,111.08173039997928,None,,,,,,,,,,,,,,,,,,,,,,,,,,,,,,,,,,,,,,,,,,,,,,,PPT34,001,2022-07-05_16h29.47.151,ABstudy,2022.1.4,59.93008556005791,
AB_Prac,Lag1_T1P_T2A,1,P,A,8,9,7,5,14,flower,Did you see the flower?,0.5,0.016,JPG\,razor01,axe01,binder03b,bowl01,kettle01,lettuce,lime,plasticflower01b,mitten04,pencilcase01,plunger02,strawbasket01,toothpick02,wallet02a,blankImage,blankImage,blankImage,plasticflower01b,,,,,,,,0,3,3,5,,,,,,,,,,,,,,,111.99982009996893,113.00058139994508,112.98377689998597,113.56617579999147,113.56617579999147,None,right,1.01736970001366,120.6016902999836,None,120.6016902999836,None,121.64259059994947,None,right,0.48005080001894385,121.64259059994947,None,,,,,,,,,,,,,,,,,,,,,,,,,,,,,,,,,,,,,,,,,,,,,,,PPT34,001,2022-07-05_16h29.47.151,ABstudy,2022.1.4,59.93008556005791,
AB_Prac,Lag1_T1P_T2A,1,P,A,5,6,4,5,11,Webcam,Did you see the Webcam?,0.5,0.016,JPG\,pictureframe04,binder03b,straw,adjustablewrench01b,webcam,cane,hairdryer02a,icepack,kitchenscale01a,lifejacket,piggybank,blankImage,blankImage,blankImage,blankImage,blankImage,blankImage,webcam,,,,,,,,0,4,4,6,,,,,,,,,,,,,,,122.15809250000166,123.1610415999894,123.14540019998094,123.76370029995451,123.76370029995451,None,left,0.941515399958007,129.27753579994896,None,129.27753579994896,None,130.2510532999877,None,right,0.728086200018879,130.2510532999877,None,,,,,,,,,,,,,,,,,,,,,,,,,,,,,,,,,,,,,,,,,,,,,,,PPT34,001,2022-07-05_16h29.47.151,ABstudy,2022.1.4,59.93008556005791,
AB_Prac,Lag1_T1P_T2P,1,P,P,6,7,5,5,12,triangle,Did you see the triangle?,0.5,0.016,JPG\,ginger,mousetrap,plum01,slipper01b,dropper01,triangle,stapler04b,pants,raspberry01,rope03,scale01a,vase01,blankImage,blankImage,blankImage,blankImage,blankImage,triangle,,,,,,,,0,5,5,1,,,,,,,,,,,,,,,131.06463569996413,132.07013249996817,132.05426879995503,132.66851949994452,132.66851949994452,None,left,0.651884599996265,138.60731729998952,None,138.60731729998952,None,139.27692709997064,None,left,0.5433085999684408,139.27692709997064,None,,,,,,,,,,,,,,,,,,,,,,,,,,,,,,,,,,,,,,,,,,,,,,,PPT34,001,2022-07-05_16h29.47.151,ABstudy,2022.1.4,59.93008556005791,
AB_Prac,Lag5_T1P_T2P,5,P,P,5,10,4,5,15,Vulture,Did you see the Vulture?,0.5,0.016,JPG\,shorts01,toast,ramekin01,bib,vulture,cracker02,date,glasses01a,hat03b,stapler01,measuringtape01,nail,pill,drum01,starfish01,blankImage,blankImage,vulture,,,,,,,,0,6,6,3,,,,,,,,,,,,,,,139.8529670999851,140.86151109996717,140.84475579997525,141.4374471999472,141.4374471999472,None,left,0.7704018999938853,148.9444894999615,None,148.9444894999615,None,149.73692279995885,None,left,0.5781298000365496,149.73692279995885,None,,,,,,,,,,,,,,,,,,,,,,,,,,,,,,,,,,,,,,,,,,,,,,,PPT34,001,2022-07-05_16h29.47.151,ABstudy,2022.1.4,59.93008556005791,
AB_Prac,Lag5_T1P_T2A,5,P,A,6,11,5,5,16,bread,Did you see the bread?,0.5,0.016,JPG\,cleaver01,clipboard,dustpan,hikingshoe01,notebook03a,baguette01,playingcard,pliers02b,styrofoamcup,rollingpin01a,swimgoggles,wineglass01,fryingpan02a,safetypin,syringe01,thimble,blankImage,baguette01,,,,,,,,0,7,7,8,,,,,,,,,,,,,,,150.3397192999837,151.35511259996565,151.32173589995364,151.88895909994608,151.88895909994608,None,left,1.0317403999506496,160.06674939999357,None,160.06674939999357,None,161.11520339996787,None,right,0.6631210000487044,161.11520339996787,None,,,,,,,,,,,,,,,,,,,,,,,,,,,,,,,,,,,,,,,,,,,,,,,PPT34,001,2022-07-05_16h29.47.151,ABstudy,2022.1.4,59.93008556005791,
AB_Prac,Lag5_T1P_T2P,5,P,P,5,10,4,5,15,washing machine,Did you see the washing machine?,0.5,0.016,JPG\,waterbottle03,wheel01,flashlight02b,zucchini01,washingmachine,headphones02b,nutcracker01,paintroller01,paperclip03,stapler06,ribbon04,electricrazor,bottleofredwine01,pitabread,pot02a,blankImage,blankImage,washingmachine,,,,,,,,0,8,8,4,,,,,,,,,,,,,,,161.8064105999656,162.81672649999382,162.79999979998684,163.38838279998163,163.38838279998163,None,left,0.9383076999802142,170.88823189999675,None,170.88823189999675,None,171.8590960999718,None,left,0.4320387000334449,171.8590960999718,None,,,,,,,,,,,,,,,,,,,,,,,,,,,,,,,,,,,,,,,,,,,,,,,PPT34,001,2022-07-05_16h29.47.151,ABstudy,2022.1.4,59.93008556005791,
AB_Prac,Lag5_T1A_T2P,5,A,P,6,11,5,3,14,dog,Did you see the dog?,0.5,0.016,JPG\,bucket01a,doorlock,cookiecutter,fireextinguisher01,gluestick,highlighter02b,sportbag,spraybottle01,suitcase,thread02,stapler05,walnut01c,icecubetray01a,vikingmask01b,blankImage,blankImage,blankImage,None,,,,,,,,0,9,9,9,,,,,,,,,,,,,,,172.3142517999513,173.3276336999843,173.31212139996933,173.9164357999689,173.9164357999689,None,right,0.9336828999803402,180.94156549999025,None,180.94156549999025,None,181.90216059994418,None,left,0.6280125999473967,181.90216059994418,None,,,,,,,,,,,,,,,,,,,,,,,,,,,,,,,,,,,,,,,,,,,,,,,PPT34,001,2022-07-05_16h29.47.151,ABstudy,2022.1.4,59.93008556005791,
AB_Prac,Lag5_T1P_T2A,5,P,A,6,11,5,5,16,Wheat,Did you see the Wheat?,0.5,0.016,JPG\,bottleopener01,dentalfloss03b,cooler01,icecreamcone01a,paperclip01b,wheat,pencilsharpener02a,plasticbasket01a,toycar04,apricot,hairclip02,rock01a,honeydewmelon,antenna,blackberry,cardboardbox,blankImage,wheat,,,,,,,,0,10,10,7,,,,,,,,,,,,,,,182.55514949996723,183.57060189999174,183.53718970000045,184.1239608999458,184.1239608999458,None,right,1.209333200007677,192.2097721999744,None,192.2097721999744,None,193.4482502999599,None,right,0.42690520000178367,193.4482502999599,None,,,,,,,,,,,,,,,,,,,,,,,,,,,,,,,,,,,,,,,,,,,,,,,PPT34,001,2022-07-05_16h29.47.151,ABstudy,2022.1.4,59.93008556005791,
AB_Prac,Lag5_T1P_T2P,5,P,P,7,12,6,3,15,vacuum,Did you see the vacuum?,0.5,0.016,JPG\,fork07b,lightbulb01,manshoe,saw02b,shoelace,soap03a,vacuumcleaner01,floortile01,necklace,doll,cabbage,stapler03a,hanger02a,laptop01a,nailpolish03b,blankImage,blankImage,vacuumcleaner01,,,,,,,,0,11,11,2,,,,,,,,,,,,,,,193.90707769995788,194.91549289994873,194.89881179999793,195.4859756999649,195.4859756999649,None,left,1.2438608999946155,203.11922799999593,None,203.11922799999593,None,204.39162999996915,None,left,0.4994198000058532,204.39162999996915,None,,,,,,,,,,,,,,,,,,,,,,,,,,,,,,,,,,,,,,,,,,,,,,,PPT34,001,2022-07-05_16h29.47.151,ABstudy,2022.1.4,59.93008556005791,
,,,,,,,,,,,,,,,,,,,,,,,,,,,,,,,,,,,,,,,,,,,,,,,,,,,,,,,,,,,,,,,,,,,,,,,,,,,,204.91013769997517,None,space,13.660545199993066,204.91013769997517,None,,,,,,,,,,,,,,,,,,,,,,,,,,,,,,,,,,,,,,,,,PPT34,001,2022-07-05_16h29.47.151,ABstudy,2022.1.4,59.93008556005791,
AB,Lag5_T1P_T2P,5,P,P,7,12,6,5,17,Badminton Racket,Did you see the Badminton Racket?,0.12,0.016,JPG\,paintbrush01,dice05a,watermelon01,broccoli01a,hammer01,leaf02a,badmintonracket,tennisball01b,lemon02,fan,lipstick02a,stapler04b,envelope03a,sponge01,foosballtable,orange,blankImage,badmintonracket,,,,,,,,,,,,0,0,0,163,,,,,,,,,,,,,,,,,,,,,,,,,,,,,,,,,,,219.25638139998773,220.25707699998748,220.24037039995892,220.85544739995385,220.85544739995385,None,222.79640939994715,None,left,0.5750082000158727,222.79640939994715,None,223.39639339997666,None,left,0.31831800000509247,223.39639339997666,None,,,,,,,,,,,,,,,,,,,,,,,PPT34,001,2022-07-05_16h29.47.151,ABstudy,2022.1.4,59.93008556005791,
AB,Lag1_T1A_T2A,1,A,A,6,7,5,5,12,Safe,Did you see the Safe?,0.12,0.016,JPG\,hammer01,sponge01,toaster01,cherry01,feather03a,mushroom01,measuringcup01,pencil01,tennisball01b,brick,clock04,medal02b,blankImage,blankImage,blankImage,blankImage,blankImage,downhillski,,,,,,,,,,,,0,1,1,294,,,,,,,,,,,,,,,,,,,,,,,,,,,,,,,,,,,223.80866869998863,224.8118158999714,224.79502889997093,225.37443789996905,225.37443789996905,None,226.81570569996256,None,right,1.068051399954129,226.81570569996256,None,227.91718939994462,None,right,0.7096799000282772,227.91718939994462,None,,,,,,,,,,,,,,,,,,,,,,,PPT34,001,2022-07-05_16h29.47.151,ABstudy,2022.1.4,59.93008556005791,
AB,Lag1_T1A_T2P,1,A,P,8,9,7,4,13,Fireplace,Did you see the Fireplace?,0.12,0.016,JPG\,scissors01,ashtray01,garlic01a,medal02b,cigarette,candle08b,leaf02a,envelope03a,stapler06,rice,toiletpaper01a,greenolive,cymbal,blankImage,blankImage,blankImage,blankImage,dartboard,,,,,,,,,,,,0,2,2,252,,,,,,,,,,,,,,,,,,,,,,,,,,,,,,,,,,,228.66644729999825,229.66702989995247,229.65143099997658,230.2371316999779,230.2371316999779,None,231.76253779995022,None,right,1.0955447000451386,231.76253779995022,None,232.88666969997576,None,left,0.5245834999950603,232.88666969997576,None,,,,,,,,,,,,,,,,,,,,,,,PPT34,001,2022-07-05_16h29.47.151,ABstudy,2022.1.4,59.93008556005791,
AB,Lag5_T1P_T2P,5,P,P,5,10,4,5,15,funnel,Did you see the funnel?,0.12,0.016,JPG\,pineapple01a,tennisball01b,computerkeyboard02,feather03a,funnel,acorn,violin,blueberry01,medal02b,stapler01,greenolive,screwdriver04b,potato02b,fork03c,cymbal,blankImage,blankImage,funnel,,,,,,,,,,,,0,3,3,109,,,,,,,,,,,,,,,,,,,,,,,,,,,,,,,,,,,233.4406923999777,234.45468289998826,234.43792909994954,235.0363341999473,235.0363341999473,None,236.76036909996765,None,right,0.843071399955079,236.76036909996765,None,237.62469329999294,None,right,0.48980899999151006,237.62469329999294,None,,,,,,,,,,,,,,,,,,,,,,,PPT34,001,2022-07-05_16h29.47.151,ABstudy,2022.1.4,59.93008556005791,
AB,Lag5_T1P_T2A,5,P,A,5,10,4,3,13,fan,Did you see the fan?,0.12,0.016,JPG\,scissors01,grape01,mushroom01,toiletpaper01a,fanheater,pizza,cigarette,ashtray01,carrot01,pineapple01a,foosballtable,lipstick02a,teabag,blankImage,blankImage,blankImage,blankImage,fanheater,,,,,,,,,,,,0,4,4,220,,,,,,,,,,,,,,,,,,,,,,,,,,,,,,,,,,,238.14518599997973,239.15934569999808,239.1259295999771,239.70844199997373,239.70844199997373,None,241.32273149996763,None,left,1.2157619000063278,241.32273149996763,None,242.56294219999108,None,right,0.5837903000065126,242.56294219999108,None,,,,,,,,,,,,,,,,,,,,,,,PPT34,001,2022-07-05_16h29.47.151,ABstudy,2022.1.4,59.93008556005791,
AB,Lag5_T1P_T2P,5,P,P,8,13,7,5,18,pipe,Did you see the pipe?,0.12,0.016,JPG\,scissors01,ashtray01,garlic01a,medal02b,cigarette,candle08b,leaf02a,smokingpipe,cucumber,rice,toiletpaper01a,greenolive,stapler01,cellphone,tableknife02,spoon01,blankImage,smokingpipe,,,,,,,,,,,,0,5,5,138,,,,,,,,,,,,,,,,,,,,,,,,,,,,,,,,,,,243.16832959995372,244.18103789997986,244.1643048999831,244.74507249996532,244.74507249996532,None,246.6721833999618,None,left,0.578305100032594,246.6721833999618,None,247.26764989999356,None,left,0.33486030000494793,247.26764989999356,None,,,,,,,,,,,,,,,,,,,,,,,PPT34,001,2022-07-05_16h29.47.151,ABstudy,2022.1.4,59.93008556005791,
AB,Lag5_T1A_T2P,5,A,P,6,11,5,5,16,baseball bat,Did you see the baseball bat?,0.12,0.016,JPG\,avocado01,aceofdiamond,match,cauliflower01,paintbrush01,clock01a,pig,cd,balloon01b,cellphone,stapler01,pear01,toaster01,sponge01,orange,blueberry01,blankImage,stool01,,,,,,,,,,,,0,6,6,273,,,,,,,,,,,,,,,,,,,,,,,,,,,,,,,,,,,247.63911629997892,248.65219689998776,248.63561029999983,249.2282151999534,249.2282151999534,None,251.18583370000124,None,right,1.2725669000064954,251.18583370000124,None,252.4894281999441,None,left,0.4011297999531962,252.4894281999441,None,,,,,,,,,,,,,,,,,,,,,,,PPT34,001,2022-07-05_16h29.47.151,ABstudy,2022.1.4,59.93008556005791,
AB,Lag5_T1P_T2P,5,P,P,8,13,7,4,17,cruise ship,Did you see the cruise ship?,0.12,0.016,JPG\,measuringcup01,dice05a,greenolive,lipstick02a,feather03a,balloon01b,lighter01,cruiseship,carrot01,plate01b,microscope,brick,stapler05,screw02,speaker04,spoon01,blankImage,cruiseship,,,,,,,,,,,,0,7,7,105,,,,,,,,,,,,,,,,,,,,,,,,,,,,,,,,,,,252.92832959996304,253.9408214999712,253.92400539998198,254.5110271999729,254.5110271999729,None,256.4194384999573,None,left,0.9430765000288375,256.4194384999573,None,257.3945573999663,None,left,0.3683199000079185,257.3945573999663,None,,,,,,,,,,,,,,,,,,,,,,,PPT34,001,2022-07-05_16h29.47.151,ABstudy,2022.1.4,59.93008556005791,
AB,Lag5_T1A_T2P,5,A,P,6,11,5,3,14,saxophone,Did you see the saxophone?,0.12,0.016,JPG\,globe,belt02a,sponge01,violin,fork03c,tomato01,clock01a,microscope,balloon01b,scarf,stapler03b,pen04b,brick,brownsugar,blankImage,blankImage,blankImage,microphone01,,,,,,,,,,,,0,8,8,267,,,,,,,,,,,,,,,,,,,,,,,,,,,,,,,,,,,257.8716750999447,258.878992199956,258.8622648999444,259.46471969998674,259.46471969998674,None,260.98189709999133,None,right,1.0695279999636114,260.98189709999133,None,262.08234829996945,None,left,0.43205400003353134,262.08234829996945,None,,,,,,,,,,,,,,,,,,,,,,,PPT34,001,2022-07-05_16h29.47.151,ABstudy,2022.1.4,59.93008556005791,
AB,Lag1_T1A_T2P,1,A,P,5,6,4,3,9,microphone,Did you see the microphone?,0.12,0.016,JPG\,hammer01,sponge01,toaster01,cherry01,feather03a,stapler06,measuringcup01,pencil01,tennisball01b,blankImage,blankImage,blankImage,blankImage,blankImage,blankImage,blankImage,blankImage,cactus,,,,,,,,,,,,0,9,9,230,,,,,,,,,,,,,,,,,,,,,,,,,,,,,,,,,,,262.53953169996385,263.55039379996015,263.5338442999637,264.10499559994787,264.10499559994787,None,265.2698998999549,None,right,0.9092833999893628,265.2698998999549,None,266.2026605999563,None,left,0.35162100003799424,266.2026605999563,None,,,,,,,,,,,,,,,,,,,,,,,PPT34,001,2022-07-05_16h29.47.151,ABstudy,2022.1.4,59.93008556005791,
AB,Lag1_T1A_T2A,1,A,A,8,9,7,3,12,punching bag,Did you see the punching bag?,0.12,0.016,JPG\,key01,apple07,ring01,leaf02a,hammer01,tableknife02,violin,sponge01,baseball01a,thermometer02b,celery,calculator01,blankImage,blankImage,blankImage,blankImage,blankImage,bathtub,,,,,,,,,,,,0,10,10,291,,,,,,,,,,,,,,,,,,,,,,,,,,,,,,,,,,,266.5908424999798,267.6042451999965,267.5875174999819,268.1703841999988,268.1703841999988,None,269.637977699982,None,right,1.0210415999754332,269.637977699982,None,270.6934521999792,None,right,0.37264189997222275,270.6934521999792,None,,,,,,,,,,,,,,,,,,,,,,,PPT34,001,2022-07-05_16h29.47.151,ABstudy,2022.1.4,59.93008556005791,
AB,Lag5_T1P_T2P,5,P,P,5,10,4,4,14,duck,Did you see the duck?,0.12,0.016,JPG\,celery,pencil01,fan,foosballtable,duck01,shirt02,potato02b,fork03c,button01,stapler03a,baseball01a,printer02,cauliflower01,dandelion,blankImage,blankImage,blankImage,duck01,,,,,,,,,,,,0,11,11,130,,,,,,,,,,,,,,,,,,,,,,,,,,,,,,,,,,,271.1004168999498,272.10864709998714,272.09195949998684,272.6716917999438,272.6716917999438,None,274.2901007999899,None,left,1.5209717999678105,274.2901007999899,None,275.829478599946,None,left,0.26948339998489246,275.829478599946,None,,,,,,,,,,,,,,,,,,,,,,,PPT34,001,2022-07-05_16h29.47.151,ABstudy,2022.1.4,59.93008556005791,
AB,Lag1_T1P_T2P,1,P,P,7,8,6,3,11,swing,Did you see the swing?,0.12,0.016,JPG\,sewingmachine01a,thermometer02b,sponge01,eraser,broccoli01a,fork03c,swing,stapler03b,belt02a,medal02b,pineapple01a,blankImage,blankImage,blankImage,blankImage,blankImage,blankImage,swing,,,,,,,,,,,,0,12,12,30,,,,,,,,,,,,,,,,,,,,,,,,,,,,,,,,,,,276.13487339997664,277.1472182999714,277.1305186999962,277.74706069997046,277.74706069997046,None,279.0685517999809,None,left,0.5909913000068627,279.0685517999809,None,279.6829088999657,None,left,0.3036081999889575,279.6829088999657,None,,,,,,,,,,,,,,,,,,,,,,,PPT34,001,2022-07-05_16h29.47.151,ABstudy,2022.1.4,59.93008556005791,
AB,Lag5_T1P_T2P,5,P,P,7,12,6,3,15,marble,Did you see the marble?,0.12,0.016,JPG\,cigarette,ashtray01,envelope03a,sandal,chain01,cucumber,marble,tomato01,dandelion,candle01,lemon02,stapler03b,potato02b,cymbal,clock01a,blankImage,blankImage,marble,,,,,,,,,,,,0,13,13,146,,,,,,,,,,,,,,,,,,,,,,,,,,,,,,,,,,,280.02039029996376,281.03400299994973,281.00145749998046,281.57393059995957,281.57393059995957,None,283.44010259996867,None,right,1.7622817999799736,283.44010259996867,None,285.2246703999699,None,left,0.3056529000168666,285.2246703999699,None,,,,,,,,,,,,,,,,,,,,,,,PPT34,001,2022-07-05_16h29.47.151,ABstudy,2022.1.4,59.93008556005791,
AB,Lag1_T1A_T2P,1,A,P,8,9,7,3,12,porcupine,Did you see the porcupine?,0.12,0.016,JPG\,celery,orange,scissors01,balloon01b,avocado01,printer02,mushroom01,sewingmachine01a,stapler01,dice05a,ashtray01,fan,blankImage,blankImage,blankImage,blankImage,blankImage,drumstick,,,,,,,,,,,,0,14,14,233,,,,,,,,,,,,,,,,,,,,,,,,,,,,,,,,,,,285.55849059997126,286.57323679997353,286.53986849996727,287.1201573999715,287.1201573999715,None,288.59196099999826,None,right,0.9700175000471063,288.59196099999826,None,289.5953214999754,None,left,0.4625356000033207,289.5953214999754,None,,,,,,,,,,,,,,,,,,,,,,,PPT34,001,2022-07-05_16h29.47.151,ABstudy,2022.1.4,59.93008556005791,
AB,Lag5_T1P_T2P,5,P,P,8,13,7,3,16,church,Did you see the church?,0.12,0.016,JPG\,clock01a,cellphone,toaster01,toothbrush03b,cauliflower01,microscope,comb02a,church,scarf,clock04,sponge01,iron01b,stapler06,celery,ring01,ashtray01,blankImage,church,,,,,,,,,,,,0,15,15,129,,,,,,,,,,,,,,,,,,,,,,,,,,,,,,,,,,,290.07875609997427,291.09416119998787,291.0608308999799,291.64216529997066,291.64216529997066,None,293.6358980999794,None,left,0.6147018999909051,293.6358980999794,None,294.2809987999499,None,left,0.25774580001598224,294.2809987999499,None,,,,,,,,,,,,,,,,,,,,,,,PPT34,001,2022-07-05_16h29.47.151,ABstudy,2022.1.4,59.93008556005791,
AB,Lag1_T1P_T2P,1,P,P,7,8,6,3,11,tree,Did you see the tree?,0.12,0.016,JPG\,pear01,clock01a,cymbal,match,ashtray01,globe,tree,stapler03b,lemon02,pen04b,dice05a,blankImage,blankImage,blankImage,blankImage,blankImage,blankImage,tree,,,,,,,,,,,,0,16,16,51,,,,,,,,,,,,,,,,,,,,,,,,,,,,,,,,,,,294.5674124999787,295.58219899999676,295.5487281999667,296.136269599956,296.136269599956,None,297.45490209996933,None,left,0.41902690002461895,297.45490209996933,None,297.901380299998,None,left,0.23697399999946356,297.901380299998,None,,,,,,,,,,,,,,,,,,,,,,,PPT34,001,2022-07-05_16h29.47.151,ABstudy,2022.1.4,59.93008556005791,
AB,Lag1_T1P_T2P,1,P,P,7,8,6,5,13,school bus,Did you see the school bus?,0.12,0.016,JPG\,aceofdiamond,banana01,scissors01,pig,shirt02,leaf02a,schoolbus,stapler05,fork03c,tableknife02,balloon01b,match,toothbrush03b,blankImage,blankImage,blankImage,blankImage,schoolbus,,,,,,,,,,,,0,17,17,24,,,,,,,,,,,,,,,,,,,,,,,,,,,,,,,,,,,298.1733436999493,299.1858619999839,299.16905219998443,299.7598255999619,299.7598255999619,None,301.2966976999887,None,left,1.0749482000246644,301.2966976999887,None,302.38880529999733,None,right,0.33375240000896156,302.38880529999733,None,,,,,,,,,,,,,,,,,,,,,,,PPT34,001,2022-07-05_16h29.47.151,ABstudy,2022.1.4,59.93008556005791,
AB,Lag1_T1A_T2P,1,A,P,8,9,7,4,13,nose,Did you see the nose?,0.12,0.016,JPG\,pizza,strawberry,potato02b,speaker04,battery02b,iron01b,dice05a,cellphone,stapler06,banana01,medal02b,baseball01a,toaster01,blankImage,blankImage,blankImage,blankImage,cow,,,,,,,,,,,,0,18,18,231,,,,,,,,,,,,,,,,,,,,,,,,,,,,,,,,,,,302.7419680999592,303.75705689995084,303.72357609996106,304.3317026000004,304.3317026000004,None,305.89393869997,None,right,1.4361491999588907,305.89393869997,None,307.3607125999988,None,left,0.4656844999990426,307.3607125999988,None,,,,,,,,,,,,,,,,,,,,,,,PPT34,001,2022-07-05_16h29.47.151,ABstudy,2022.1.4,59.93008556005791,
AB,Lag5_T1P_T2P,5,P,P,6,11,5,4,15,Witch hat,Did you see the Witch hat?,0.12,0.016,JPG\,pizza,watch02a,greenolive,cucumber,match,witchhat,scissors01,broom01,globe,cherry01,stapler03a,cigarette,microscope,cellphone,speaker04,blankImage,blankImage,witchhat,,,,,,,,,,,,0,19,19,101,,,,,,,,,,,,,,,,,,,,,,,,,,,,,,,,,,,307.84917919995496,308.8621604999644,308.845397499972,309.45119239995256,309.45119239995256,None,311.30843679996906,None,left,0.4304734999896027,311.30843679996906,None,311.7648202999844,None,left,0.32516409998061135,311.7648202999844,None,,,,,,,,,,,,,,,,,,,,,,,PPT34,001,2022-07-05_16h29.47.151,ABstudy,2022.1.4,59.93008556005791,
AB,Lag1_T1P_T2P,1,P,P,7,8,6,4,12,trophy,Did you see the trophy?,0.12,0.016,JPG\,cherry01,cymbal,envelope03a,foosballtable,shirt02,cellphone,trophy01,stapler04b,battery02b,apple07,pencil01,screwdriver04b,blankImage,blankImage,blankImage,blankImage,blankImage,trophy01,,,,,,,,,,,,0,20,20,74,,,,,,,,,,,,,,,,,,,,,,,,,,,,,,,,,,,312.1198981999769,313.13314639998134,313.09987320000073,313.6924402999575,313.6924402999575,None,315.16470199998,None,left,0.5020340000046417,315.16470199998,None,315.6859974999679,None,left,0.37207979999948293,315.6859974999679,None,,,,,,,,,,,,,,,,,,,,,,,PPT34,001,2022-07-05_16h29.47.151,ABstudy,2022.1.4,59.93008556005791,
AB,Lag1_T1P_T2P,1,P,P,8,9,7,4,13,Hula hoop,Did you see the Hula hoop?,0.12,0.016,JPG\,brownsugar,candle01,match,printer02,broom01,balloon01b,belt02a,hulahoop,stapler04b,feather03a,rice,mushroom01,pencil01,blankImage,blankImage,blankImage,blankImage,hulahoop,,,,,,,,,,,,0,21,21,64,,,,,,,,,,,,,,,,,,,,,,,,,,,,,,,,,,,316.1469775000005,317.1538002999732,317.13710899994476,317.63741229998413,317.63741229998413,None,319.24447059998056,None,left,0.7018662000191398,319.24447059998056,None,319.9729638999561,None,left,0.3184025999507867,319.9729638999561,None,,,,,,,,,,,,,,,,,,,,,,,PPT34,001,2022-07-05_16h29.47.151,ABstudy,2022.1.4,59.93008556005791,
AB,Lag5_T1P_T2A,5,P,A,5,10,4,5,15,Shield,Did you see the Shield?,0.12,0.016,JPG\,cigarette,fork03c,greenolive,broccoli01a,shield02,tennisball01b,balloon01b,leaf02a,pig,fan,clock01a,strawberry,envelope03a,birthdaycandle,teabag,blankImage,blankImage,shield02,,,,,,,,,,,,0,22,22,223,,,,,,,,,,,,,,,,,,,,,,,,,,,,,,,,,,,320.33083739998983,321.3410033999826,321.3243025999982,321.9252784999553,321.9252784999553,None,323.7788443999598,None,right,1.3838278999901377,323.7788443999598,None,325.1948563999613,None,right,1.231670800014399,325.1948563999613,None,,,,,,,,,,,,,,,,,,,,,,,PPT34,001,2022-07-05_16h29.47.151,ABstudy,2022.1.4,59.93008556005791,
AB,Lag1_T1P_T2A,1,P,A,5,6,4,4,10,flower,Did you see the flower?,0.12,0.016,JPG\,broom01,globe,cellphone,tableknife02,daffodil,scissors01,ring01,alligator,rice,toaster01,blankImage,blankImage,blankImage,blankImage,blankImage,blankImage,blankImage,daffodil,,,,,,,,,,,,0,23,23,184,,,,,,,,,,,,,,,,,,,,,,,,,,,,,,,,,,,326.44834649999393,327.46378799999366,327.43043299997225,328.03035419998923,328.03035419998923,None,329.265876999998,None,left,0.8720609999727458,329.265876999998,None,330.1668561999686,None,right,0.4270034999935888,330.1668561999686,None,,,,,,,,,,,,,,,,,,,,,,,PPT34,001,2022-07-05_16h29.47.151,ABstudy,2022.1.4,59.93008556005791,
AB,Lag1_T1A_T2A,1,A,A,8,9,7,3,12,popcorn,Did you see the popcorn?,0.12,0.016,JPG\,brownsugar,candle01,match,printer02,broom01,balloon01b,belt02a,potato02b,computerkeyboard02,feather03a,rice,mushroom01,blankImage,blankImage,blankImage,blankImage,blankImage,banjo,,,,,,,,,,,,0,24,24,290,,,,,,,,,,,,,,,,,,,,,,,,,,,,,,,,,,,330.62342109996825,331.6347526999889,331.6179815999931,332.11866209999425,332.11866209999425,None,333.74718439998105,None,right,0.8311718999757431,333.74718439998105,None,334.60421689995565,None,right,0.8219583999598399,334.60421689995565,None,,,,,,,,,,,,,,,,,,,,,,,PPT34,001,2022-07-05_16h29.47.151,ABstudy,2022.1.4,59.93008556005791,
AB,Lag1_T1P_T2P,1,P,P,5,6,4,5,11,football,Did you see the football?,0.12,0.016,JPG\,globe,belt02a,sponge01,violin,soccerball,stapler01,clock01a,microscope,balloon01b,scarf,teabag,blankImage,blankImage,blankImage,blankImage,blankImage,blankImage,soccerball,,,,,,,,,,,,0,25,25,26,,,,,,,,,,,,,,,,,,,,,,,,,,,,,,,,,,,335.45725569996284,336.4559680999955,336.43959919997724,337.0331820999854,337.0331820999854,None,338.356727699982,None,left,0.3891052000108175,338.356727699982,None,338.77499489998445,None,left,0.28283049998572096,338.77499489998445,None,,,,,,,,,,,,,,,,,,,,,,,PPT34,001,2022-07-05_16h29.47.151,ABstudy,2022.1.4,59.93008556005791,
AB,Lag5_T1P_T2P,5,P,P,8,13,7,5,18,Kiwi,Did you see the Kiwi?,0.12,0.016,JPG\,violin,pizza,toothbrush03b,pineapple01a,banana01,ashtray01,candy,kiwi03,clock04,sock01a,microscope,speaker04,stapler04b,sunglasses04,lipstick02a,blueberry01,blankImage,kiwi03,,,,,,,,,,,,0,26,26,111,,,,,,,,,,,,,,,,,,,,,,,,,,,,,,,,,,,339.07736830000067,340.07657689996995,340.0598544999957,340.6433232999989,340.6433232999989,None,342.6209190999507,None,left,0.501541499979794,342.6209190999507,None,343.1476335999905,None,left,0.3424471000325866,343.1476335999905,None,,,,,,,,,,,,,,,,,,,,,,,PPT34,001,2022-07-05_16h29.47.151,ABstudy,2022.1.4,59.93008556005791,
AB,Lag5_T1P_T2P,5,P,P,6,11,5,5,16,keys,Did you see the keys?,0.12,0.016,JPG\,toiletpaper01a,mushroom01,medal02b,sandal,rice,foldingchair,feather03a,pizza,candle08b,garlic01a,stapler01,belt02a,cigarette,violin,lemon02,fork03c,blankImage,foldingchair,,,,,,,,,,,,0,27,27,125,,,,,,,,,,,,,,,,,,,,,,,,,,,,,,,,,,,343.5163170999731,344.53092029999243,344.4975218999898,345.09023199998774,345.09023199998774,None,347.06943089998094,None,right,0.7648760000010952,347.06943089998094,None,347.8535711999866,None,left,0.38903299998492,347.8535711999866,None,,,,,,,,,,,,,,,,,,,,,,,PPT34,001,2022-07-05_16h29.47.151,ABstudy,2022.1.4,59.93008556005791,
AB,Lag5_T1P_T2P,5,P,P,6,11,5,4,15,punching bag,Did you see the punching bag?,0.12,0.016,JPG\,foosballtable,cigarette,pen04b,birthdaycandle,hammer01,punchingbag,binoculars01b,chain01,potato02b,cauliflower01,stapler04b,ashtray01,scarf,cellphone,calculator01,blankImage,blankImage,punchingbag,,,,,,,,,,,,0,28,28,156,,,,,,,,,,,,,,,,,,,,,,,,,,,,,,,,,,,348.2804197999649,349.2855051999795,349.2688497999916,349.7695492999628,349.7695492999628,None,351.6576636999962,None,left,0.4799673999659717,351.6576636999962,None,352.15511719998904,None,left,0.32663460000185296,352.15511719998904,None,,,,,,,,,,,,,,,,,,,,,,,PPT34,001,2022-07-05_16h29.47.151,ABstudy,2022.1.4,59.93008556005791,
AB,Lag5_T1P_T2P,5,P,P,6,11,5,5,16,scooter,Did you see the scooter?,0.12,0.016,JPG\,thermometer02b,candle08b,comb02a,toothbrush03b,brick,scooter,key01,pineapple01a,candy,birthdaycandle,stapler04b,canoftennisballs,teabag,medal02b,balloon01b,banana01,blankImage,scooter,,,,,,,,,,,,0,29,29,118,,,,,,,,,,,,,,,,,,,,,,,,,,,,,,,,,,,352.50756609998643,353.52303009998286,353.48969939997187,354.0637123999768,354.0637123999768,None,356.0958557999693,None,left,0.634509600000456,356.0958557999693,None,356.7600131999934,None,left,0.41049340000608936,356.7600131999934,None,,,,,,,,,,,,,,,,,,,,,,,PPT34,001,2022-07-05_16h29.47.151,ABstudy,2022.1.4,59.93008556005791,
AB,Lag1_T1P_T2P,1,P,P,7,8,6,4,12,skunk,Did you see the skunk?,0.12,0.016,JPG\,fan,tomato01,candy,screwdriver04b,alligator,cd,skunk,stapler03b,button01,plate01b,brownsugar,lighter01,blankImage,blankImage,blankImage,blankImage,blankImage,skunk,,,,,,,,,,,,0,30,30,48,,,,,,,,,,,,,,,,,,,,,,,,,,,,,,,,,,,357.28094769996824,358.2944432999939,358.27777409995906,358.87588629999664,358.87588629999664,None,360.2686171999667,None,left,0.9411825999850407,360.2686171999667,None,361.2310795999947,None,right,0.507509300019592,361.2310795999947,None,,,,,,,,,,,,,,,,,,,,,,,PPT34,001,2022-07-05_16h29.47.151,ABstudy,2022.1.4,59.93008556005791,
AB,Lag5_T1P_T2A,5,P,A,6,11,5,5,16,hat,Did you see the hat?,0.12,0.016,JPG\,apple07,toiletpaper01a,pizza,dandelion,greenolive,pilgrimhat,microscope,violin,orange,lipstick02a,balloon01b,sandal,lighter01,fan,book01b,sewingmachine01a,blankImage,pilgrimhat,,,,,,,,,,,,0,31,31,206,,,,,,,,,,,,,,,,,,,,,,,,,,,,,,,,,,,361.7680528999772,362.7825212999596,362.74910589994397,363.33475319994614,363.33475319994614,None,365.34217139997054,None,left,1.35553559998516,365.34217139997054,None,366.71991259994684,None,right,0.48171500000171363,366.71991259994684,None,,,,,,,,,,,,,,,,,,,,,,,PPT34,001,2022-07-05_16h29.47.151,ABstudy,2022.1.4,59.93008556005791,
AB,Lag1_T1P_T2A,1,P,A,5,6,4,4,10,bird,Did you see the bird?,0.12,0.016,JPG\,toaster01,scarf,toiletpaper01a,calculator01,swallow,sewingmachine01a,fan,teabag,strawberry,balloon01b,blankImage,blankImage,blankImage,blankImage,blankImage,blankImage,blankImage,swallow,,,,,,,,,,,,0,32,32,195,,,,,,,,,,,,,,,,,,,,,,,,,,,,,,,,,,,367.2238080999814,368.2380248999689,368.2213302999735,368.87107829999877,368.79151969996747,None,369.99882189999335,None,left,0.8671741000143811,369.99882189999335,None,370.8930926999892,None,right,0.332889300014358,370.8930926999892,None,,,,,,,,,,,,,,,,,,,,,,,PPT34,001,2022-07-05_16h29.47.151,ABstudy,2022.1.4,59.93008556005791,
AB,Lag1_T1P_T2P,1,P,P,5,6,4,3,9,hockey stick,Did you see the hockey stick?,0.12,0.016,JPG\,violin,pizza,toothbrush03b,pineapple01a,hockeystick,stapler03b,candy,dandelion,clock04,blankImage,blankImage,blankImage,blankImage,blankImage,blankImage,blankImage,blankImage,hockeystick,,,,,,,,,,,,0,33,33,63,,,,,,,,,,,,,,,,,,,,,,,,,,,,,,,,,,,371.26411959994584,372.27508409996517,372.25838849996217,372.84201149997534,372.84201149997534,None,373.9636460999609,None,left,2.1104039000347257,373.9636460999609,None,376.096586599946,None,left,0.4021883999812417,376.096586599946,None,,,,,,,,,,,,,,,,,,,,,,,PPT34,001,2022-07-05_16h29.47.151,ABstudy,2022.1.4,59.93008556005791,
AB,Lag1_T1P_T2P,1,P,P,8,9,7,5,14,bullet,Did you see the bullet?,0.12,0.016,JPG\,measuringcup01,dice05a,greenolive,lipstick02a,feather03a,balloon01b,lighter01,bullet,stapler04b,plate01b,microscope,brick,thermometer02b,screw02,blankImage,blankImage,blankImage,bullet,,,,,,,,,,,,0,34,34,57,,,,,,,,,,,,,,,,,,,,,,,,,,,,,,,,,,,376.586364399991,377.5976403999957,377.5816777999862,378.1845910999691,378.1845910999691,None,379.83464169997023,None,left,0.5351163999876007,379.83464169997023,None,380.40006779995747,None,left,0.2975776999955997,380.40006779995747,None,,,,,,,,,,,,,,,,,,,,,,,PPT34,001,2022-07-05_16h29.47.151,ABstudy,2022.1.4,59.93008556005791,
AB,Lag1_T1P_T2P,1,P,P,8,9,7,4,13,ladder,Did you see the ladder?,0.12,0.016,JPG\,cigarette,fork03c,greenolive,broccoli01a,avocado01,tennisball01b,balloon01b,ladder,stapler03b,fan,clock01a,strawberry,envelope03a,blankImage,blankImage,blankImage,blankImage,ladder,,,,,,,,,,,,0,35,35,45,,,,,,,,,,,,,,,,,,,,,,,,,,,,,,,,,,,380.7208342999802,381.734747599985,381.71795659995405,382.29678019997664,382.29678019997664,None,383.9450524999993,None,left,0.7367291999980807,383.9450524999993,None,384.7044548999984,None,right,0.5139580999966711,384.7044548999984,None,,,,,,,,,,,,,,,,,,,,,,,PPT34,001,2022-07-05_16h29.47.151,ABstudy,2022.1.4,59.93008556005791,
AB,Lag5_T1P_T2P,5,P,P,8,13,7,4,17,lamp,Did you see the lamp?,0.12,0.016,JPG\,globe,broccoli01a,binoculars01b,iron01b,avocado01,dandelion,pineapple01a,floorlamp,fan,pizza,celery,blueberry01,stapler01,dice05a,watermelon01,candy,blankImage,floorlamp,,,,,,,,,,,,0,36,36,99,,,,,,,,,,,,,,,,,,,,,,,,,,,,,,,,,,,385.2405339999823,386.2558515999699,386.22252599999774,386.81998749997,386.81998749997,None,388.7341214999906,None,left,0.41970590001437813,388.7341214999906,None,389.17490089999046,None,left,0.26005079998867586,389.17490089999046,None,,,,,,,,,,,,,,,,,,,,,,,PPT34,001,2022-07-05_16h29.47.151,ABstudy,2022.1.4,59.93008556005791,
AB,Lag5_T1P_T2P,5,P,P,7,12,6,5,17,truck,Did you see the truck?,0.12,0.016,JPG\,binoculars01b,speaker04,sandal,envelope03a,plate01b,comb02a,boxtruck,chain01,measuringcup01,key01,medal02b,stapler05,tennisball01b,pizza,cigarette,sunglasses04,blankImage,boxtruck,,,,,,,,,,,,0,37,37,166,,,,,,,,,,,,,,,,,,,,,,,,,,,,,,,,,,,389.46444979996886,390.4771311999648,390.46137749997433,391.05236269999295,391.05236269999295,None,393.0171999000013,None,right,1.3532362000551075,393.0171999000013,None,394.40012369997567,None,right,0.5535941999405622,394.40012369997567,None,,,,,,,,,,,,,,,,,,,,,,,PPT34,001,2022-07-05_16h29.47.151,ABstudy,2022.1.4,59.93008556005791,
AB,Lag5_T1P_T2P,5,P,P,7,12,6,5,17,flower,Did you see the flower?,0.12,0.016,JPG\,leaf02a,pear01,measuringcup01,cigarette,fan,lemon02,lily,tableknife02,ring01,pencil01,cellphone,stapler01,carrot01,binoculars01b,sock01a,book01b,blankImage,lily,,,,,,,,,,,,0,38,38,134,,,,,,,,,,,,,,,,,,,,,,,,,,,,,,,,,,,394.9899011999951,395.99884209997253,395.98195419996046,396.55806299997494,396.55806299997494,None,398.5042215999565,None,left,0.6902163000195287,398.5042215999565,None,399.22133499995107,None,left,2.388665900041815,399.22133499995107,None,,,,,,,,,,,,,,,,,,,,,,,PPT34,001,2022-07-05_16h29.47.151,ABstudy,2022.1.4,59.93008556005791,
AB,Lag1_T1P_T2A,1,P,A,8,9,7,4,13,boat,Did you see the boat?,0.12,0.016,JPG\,fork03c,dandelion,dice05a,belt02a,onion,watch02a,key01,boat,eraser,medal02b,greenolive,shirt02,candle08b,blankImage,blankImage,blankImage,blankImage,boat,,,,,,,,,,,,0,39,39,199,,,,,,,,,,,,,,,,,,,,,,,,,,,,,,,,,,,401.6398779999581,402.65554559999146,402.6217449999531,403.17449549998855,403.17449549998855,None,404.7941407999606,None,left,0.8801374000031501,404.7941407999606,None,405.69194529997185,None,right,0.45426740002585575,405.69194529997185,None,,,,,,,,,,,,,,,,,,,,,,,PPT34,001,2022-07-05_16h29.47.151,ABstudy,2022.1.4,59.93008556005791,
AB,Lag1_T1P_T2A,1,P,A,7,8,6,4,12,bird,Did you see the bird?,0.12,0.016,JPG\,speaker04,sewingmachine01a,eraser,violin,globe,belt02a,tern,cymbal,cd,greenolive,alligator,pear01,blankImage,blankImage,blankImage,blankImage,blankImage,tern,,,,,,,,,,,,0,40,40,177,,,,,,,,,,,,,,,,,,,,,,,,,,,,,,,,,,,406.17693479999434,407.1770704999799,407.16117699997267,407.76027799997246,407.76027799997246,None,409.2469352999469,None,right,1.6266805000486784,409.2469352999469,None,410.8978690999793,None,right,0.2876327999983914,410.8978690999793,None,,,,,,,,,,,,,,,,,,,,,,,PPT34,001,2022-07-05_16h29.47.151,ABstudy,2022.1.4,59.93008556005791,
AB,Lag1_T1P_T2P,1,P,P,6,7,5,3,10,elephant,Did you see the elephant?,0.12,0.016,JPG\,clock01a,grape01,plate01b,key01,screwdriver04b,africanelephant,stapler03b,iron01b,toothbrush03b,comb02a,blankImage,blankImage,blankImage,blankImage,blankImage,blankImage,blankImage,africanelephant,,,,,,,,,,,,0,41,41,31,,,,,,,,,,,,,,,,,,,,,,,,,,,,,,,,,,,411.22033149999334,412.23178139998345,412.21507749997545,412.7910033999942,412.7910033999942,None,414.0665353999939,None,left,0.5189741000067443,414.0665353999939,None,414.61958519998007,None,left,0.22997869999380782,414.61958519998007,None,,,,,,,,,,,,,,,,,,,,,,,PPT34,001,2022-07-05_16h29.47.151,ABstudy,2022.1.4,59.93008556005791,
AB,Lag5_T1A_T2P,5,A,P,5,10,4,4,14,mail box,Did you see the mail box?,0.12,0.016,JPG\,button01,celery,birthdaycandle,apple07,avocado01,tennisball01b,dice05a,teabag,clock01a,stapler05,tomato01,scarf,orange,battery02b,blankImage,blankImage,blankImage,jeep,,,,,,,,,,,,0,42,42,263,,,,,,,,,,,,,,,,,,,,,,,,,,,,,,,,,,,414.87984869995853,415.8858304999885,415.87019319995306,416.46462939999765,416.46462939999765,None,418.1683970000013,None,right,1.5850334000424482,418.1683970000013,None,419.772314599948,None,right,0.4292913000099361,419.772314599948,None,,,,,,,,,,,,,,,,,,,,,,,PPT34,001,2022-07-05_16h29.47.151,ABstudy,2022.1.4,59.93008556005791,
AB,Lag5_T1P_T2A,5,P,A,8,13,7,4,17,fountain,Did you see the fountain?,0.12,0.016,JPG\,printer02,envelope03a,potato02b,calculator01,tableknife02,cigarette,ashtray01,parkfountain,broom01,greenolive,candle08b,battery02b,strawberry,candle01,foosballtable,tennisball01b,blankImage,parkfountain,,,,,,,,,,,,0,43,43,219,,,,,,,,,,,,,,,,,,,,,,,,,,,,,,,,,,,420.22508089995245,421.24051619996317,421.2070816999767,421.79496129998006,421.79496129998006,None,423.7771413999726,None,left,0.7532493000035174,423.7771413999726,None,424.56067839998286,None,right,0.5210397000191733,424.56067839998286,None,,,,,,,,,,,,,,,,,,,,,,,PPT34,001,2022-07-05_16h29.47.151,ABstudy,2022.1.4,59.93008556005791,
AB,Lag1_T1P_T2P,1,P,P,6,7,5,3,10,cupcake,Did you see the cupcake?,0.12,0.016,JPG\,printer02,leaf02a,cauliflower01,sock01a,brownsugar,cupcake,stapler01,orange,belt02a,shirt02,blankImage,blankImage,blankImage,blankImage,blankImage,blankImage,blankImage,cupcake,,,,,,,,,,,,0,44,44,38,,,,,,,,,,,,,,,,,,,,,,,,,,,,,,,,,,,425.1170648999978,426.1288999999524,426.1121471999795,426.751045299985,426.751045299985,None,427.88832969998475,None,left,0.42574939999030903,427.88832969998475,None,428.3307368999813,None,left,0.2634027000167407,428.3307368999813,None,,,,,,,,,,,,,,,,,,,,,,,PPT34,001,2022-07-05_16h29.47.151,ABstudy,2022.1.4,59.93008556005791,
AB,Lag1_T1P_T2P,1,P,P,8,9,7,3,12,snow globe,Did you see the Snow globe?,0.12,0.016,JPG\,eraser,measuringcup01,chain01,birthdaycandle,ring01,rice,8ball,stapler04b,stapler01,celery,microscope,sunglasses04,blankImage,blankImage,blankImage,blankImage,blankImage,snowglobe,,,,,,,,,,,,0,45,45,56,,,,,,,,,,,,,,,,,,,,,,,,,,,,,,,,,,,428.65774889994645,429.6657416999806,429.63229029998183,430.2162715999875,430.2162715999875,None,431.66093769995496,None,right,0.9888477000058629,431.66093769995496,None,432.6690806999686,None,left,0.26863419997971505,432.6690806999686,None,,,,,,,,,,,,,,,,,,,,,,,PPT34,001,2022-07-05_16h29.47.151,ABstudy,2022.1.4,59.93008556005791,
AB,Lag5_T1P_T2P,5,P,P,5,10,4,4,14,bell,Did you see the bell?,0.12,0.016,JPG\,teabag,envelope03a,cellphone,apple07,callbell,orange,brownsugar,book01b,hammer01,stapler03b,toaster01,calculator01,globe,battery02b,blankImage,blankImage,blankImage,callbell,,,,,,,,,,,,0,46,46,147,,,,,,,,,,,,,,,,,,,,,,,,,,,,,,,,,,,432.97211169998627,433.98671349999495,433.9532374999835,434.5171478999546,434.5171478999546,None,436.33090459997766,None,left,0.8706428000004962,436.33090459997766,None,437.2226368999691,None,right,0.3630841999547556,437.2226368999691,None,,,,,,,,,,,,,,,,,,,,,,,PPT34,001,2022-07-05_16h29.47.151,ABstudy,2022.1.4,59.93008556005791,
AB,Lag5_T1P_T2P,5,P,P,6,11,5,5,16,motorcycle,Did you see the motorcycle?,0.12,0.016,JPG\,cucumber,ring01,lipstick02a,microscope,violin,motorcycle,celery,lighter01,cherry01,sewingmachine01a,stapler04b,key01,binoculars01b,medal02b,watermelon01,dice05a,blankImage,motorcycle,,,,,,,,,,,,0,47,47,93,,,,,,,,,,,,,,,,,,,,,,,,,,,,,,,,,,,437.61279139999533,438.62480739998864,438.6080098999664,439.17336899996735,439.17336899996735,None,441.1856340999948,None,right,1.3204227999667637,441.1856340999948,None,442.5286202999996,None,left,0.3137045999756083,442.5286202999996,None,,,,,,,,,,,,,,,,,,,,,,,PPT34,001,2022-07-05_16h29.47.151,ABstudy,2022.1.4,59.93008556005791,
AB,Lag1_T1P_T2P,1,P,P,7,8,6,5,13,horse,Did you see the horse?,0.12,0.016,JPG\,watermelon01,pencil01,microscope,blueberry01,computerkeyboard02,lamp04a,horse,stapler03b,sock01a,key01,binoculars01b,cauliflower01,ashtray01,blankImage,blankImage,blankImage,blankImage,horse,,,,,,,,,,,,0,48,48,3,,,,,,,,,,,,,,,,,,,,,,,,,,,,,,,,,,,442.8646299999673,443.8799296999932,443.8465910999803,444.45219779998297,444.45219779998297,None,446.0521617999766,None,left,0.7666208000155166,446.0521617999766,None,446.84951509995153,None,right,0.4802868999540806,446.84951509995153,None,,,,,,,,,,,,,,,,,,,,,,,PPT34,001,2022-07-05_16h29.47.151,ABstudy,2022.1.4,59.93008556005791,
AB,Lag1_T1P_T2P,1,P,P,5,6,4,5,11,golf ball,Did you see the golf ball?,0.12,0.016,JPG\,foosballtable,cigarette,pen04b,birthdaycandle,golfball,stapler05,binoculars01b,chain01,potato02b,cauliflower01,paintbrush01,blankImage,blankImage,blankImage,blankImage,blankImage,blankImage,golfball,,,,,,,,,,,,0,49,49,13,,,,,,,,,,,,,,,,,,,,,,,,,,,,,,,,,,,447.35604139999487,448.36774079996394,448.35108759999275,448.851564499957,448.851564499957,None,450.2468533999636,None,left,1.0346164000220597,450.2468533999636,None,451.30409829999553,None,right,0.43331400002352893,451.30409829999553,None,,,,,,,,,,,,,,,,,,,,,,,PPT34,001,2022-07-05_16h29.47.151,ABstudy,2022.1.4,59.93008556005791,
AB,Lag1_T1A_T2A,1,A,A,8,9,7,4,13,Recycling bin,Did you see the Recycling bin?,0.12,0.016,JPG\,brick,plate01b,pen04b,toaster01,screwdriver04b,candle01,envelope03a,feather03a,pig,ring01,orange,clock01a,lighter01,blankImage,blankImage,blankImage,blankImage,bumpercar,,,,,,,,,,,,0,50,50,292,,,,,,,,,,,,,,,,,,,,,,,,,,,,,,,,,,,451.79111769999145,452.8055353999953,452.7889574999572,453.38184599997476,453.38184599997476,None,454.9336622999981,None,right,1.2928331000148319,454.9336622999981,None,456.25869979994604,None,right,0.43054339999798685,456.25869979994604,None,,,,,,,,,,,,,,,,,,,,,,,PPT34,001,2022-07-05_16h29.47.151,ABstudy,2022.1.4,59.93008556005791,
AB,Lag1_T1P_T2A,1,P,A,5,6,4,5,11,Moon,Did you see the Moon?,0.12,0.016,JPG\,lamp04a,broccoli01a,alligator,garlic01a,moon,brownsugar,avocado01,ring01,leaf02a,cellphone,medal02b,blankImage,blankImage,blankImage,blankImage,blankImage,blankImage,moon,,,,,,,,,,,,0,51,51,190,,,,,,,,,,,,,,,,,,,,,,,,,,,,,,,,,,,456.7113645999925,457.7267828999902,457.69346559996484,458.2640919999685,458.2640919999685,None,459.72053219994996,None,right,0.8655587999965064,459.72053219994996,None,460.6129637999693,None,right,0.5086583000374958,460.6129637999693,None,,,,,,,,,,,,,,,,,,,,,,,PPT34,001,2022-07-05_16h29.47.151,ABstudy,2022.1.4,59.93008556005791,
AB,Lag5_T1P_T2A,5,P,A,8,13,7,5,18,Nunchuks,Did you see the Nunchuks?,0.12,0.016,JPG\,celery,tennisball01b,calculator01,pear01,screw02,orange,button01,nunchuk,onion,apple07,iron01b,brownsugar,banana01,paintbrush01,dandelion,toothbrush03b,blankImage,nunchuk,,,,,,,,,,,,0,52,52,218,,,,,,,,,,,,,,,,,,,,,,,,,,,,,,,,,,,461.15072269999655,462.1645186999813,462.14784979994874,462.7255699999514,462.7255699999514,None,464.6440582999494,None,left,0.8298124000430107,464.6440582999494,None,465.5015843999572,None,right,0.444370599987451,465.5015843999572,None,,,,,,,,,,,,,,,,,,,,,,,PPT34,001,2022-07-05_16h29.47.151,ABstudy,2022.1.4,59.93008556005791,
AB,Lag1_T1P_T2A,1,P,A,7,8,6,3,11,fish,Did you see the fish?,0.12,0.016,JPG\,rice,watermelon01,tableknife02,scarf,computerkeyboard02,cauliflower01,salmon,binoculars01b,book01b,sandal,sponge01,blankImage,blankImage,blankImage,blankImage,blankImage,blankImage,salmon,,,,,,,,,,,,0,53,53,179,,,,,,,,,,,,,,,,,,,,,,,,,,,,,,,,,,,465.97166279994417,466.98622889997205,466.9527319999761,467.53520189999836,467.53520189999836,None,468.939055899973,None,left,0.4624397999723442,468.939055899973,None,469.4213236999931,None,left,0.3319824000354856,469.4213236999931,None,,,,,,,,,,,,,,,,,,,,,,,PPT34,001,2022-07-05_16h29.47.151,ABstudy,2022.1.4,59.93008556005791,
AB,Lag5_T1A_T2P,5,A,P,7,12,6,4,16,church,Did you see the church?,0.12,0.016,JPG\,printer02,leaf02a,cauliflower01,sock01a,brownsugar,paintbrush01,pig,orange,belt02a,shirt02,key01,stapler06,cigarette,scissors01,envelope03a,blueberry01,blankImage,ant,,,,,,,,,,,,0,54,54,279,,,,,,,,,,,,,,,,,,,,,,,,,,,,,,,,,,,469.77269889996387,470.77354889997514,470.7570096999989,471.3290180999902,471.3290180999902,None,473.3181696999818,None,right,1.3002967000356875,473.3181696999818,None,474.6440104999929,None,left,0.3822927000001073,474.6440104999929,None,,,,,,,,,,,,,,,,,,,,,,,PPT34,001,2022-07-05_16h29.47.151,ABstudy,2022.1.4,59.93008556005791,
AB,Lag1_T1A_T2P,1,A,P,8,9,7,4,13,Rabbit,Did you see the Rabbit?,0.12,0.016,JPG\,lamp04a,broccoli01a,alligator,garlic01a,dandelion,brownsugar,avocado01,ring01,stapler06,cellphone,medal02b,cd,calculator01,blankImage,blankImage,blankImage,blankImage,escalator,,,,,,,,,,,,0,55,55,254,,,,,,,,,,,,,,,,,,,,,,,,,,,,,,,,,,,475.050022099982,476.06194669997785,476.04534399998374,476.61442569998326,476.61442569998326,None,478.22340719995555,None,right,0.698889399995096,478.22340719995555,None,478.9482660999638,None,left,0.34993799997027963,478.9482660999638,None,,,,,,,,,,,,,,,,,,,,,,,PPT34,001,2022-07-05_16h29.47.151,ABstudy,2022.1.4,59.93008556005791,
AB,Lag5_T1A_T2P,5,A,P,6,11,5,3,14,keys,Did you see the keys?,0.12,0.016,JPG\,pencil01,microscope,banana01,computerkeyboard02,celery,cellphone,scissors01,sock01a,book01b,onion,stapler03a,binoculars01b,baseball01a,iron01b,blankImage,blankImage,blankImage,treadmill,,,,,,,,,,,,0,56,56,275,,,,,,,,,,,,,,,,,,,,,,,,,,,,,,,,,,,479.3244722999516,480.33268149994547,480.3160331999534,480.8926277999999,480.8926277999999,None,482.60670069995103,None,right,1.0187665999983437,482.60670069995103,None,483.65296300000045,None,left,0.3005138000007719,483.65296300000045,None,,,,,,,,,,,,,,,,,,,,,,,PPT34,001,2022-07-05_16h29.47.151,ABstudy,2022.1.4,59.93008556005791,
AB,Lag1_T1P_T2P,1,P,P,8,9,7,4,13,Doughnut,Did you see the Doughnut?,0.12,0.016,JPG\,brick,eraser,cucumber,ashtray01,thermometer02b,binoculars01b,lipstick02a,donut,stapler01,brownsugar,battery02b,iron01b,dice05a,blankImage,blankImage,blankImage,blankImage,donut,,,,,,,,,,,,0,57,57,39,,,,,,,,,,,,,,,,,,,,,,,,,,,,,,,,,,,483.972074099991,484.9872183999978,484.95382679998875,485.56114929995965,485.56114929995965,None,487.1946193999611,None,left,0.7993503999896348,487.1946193999611,None,488.02389509999193,None,right,1.361215999990236,488.02389509999193,None,,,,,,,,,,,,,,,,,,,,,,,PPT34,001,2022-07-05_16h29.47.151,ABstudy,2022.1.4,59.93008556005791,
AB,Lag5_T1P_T2P,5,P,P,6,11,5,4,15,shower,Did you see the shower?,0.12,0.016,JPG\,dice05a,watch02a,pig,lighter01,button01,shower,paintbrush01,microscope,plate01b,pen04b,stapler05,weight04a,carrot01,shirt02,globe,blankImage,blankImage,shower,,,,,,,,,,,,0,58,58,121,,,,,,,,,,,,,,,,,,,,,,,,,,,,,,,,,,,489.41291359998286,490.42617439996684,490.40940969996154,490.9925142999855,490.9925142999855,None,492.8342450999771,None,right,1.119491300021764,492.8342450999771,None,493.9798526999657,None,right,0.2538345999782905,493.9798526999657,None,,,,,,,,,,,,,,,,,,,,,,,PPT34,001,2022-07-05_16h29.47.151,ABstudy,2022.1.4,59.93008556005791,
AB,Lag5_T1P_T2P,5,P,P,5,10,4,4,14,License Plate,Did you see the License Plate?,0.12,0.016,JPG\,toaster01,chain01,sponge01,baseball01a,licenseplate,belt02a,book01b,iron01b,grape01,stapler06,celery,onion,mushroom01,toothbrush03b,blankImage,blankImage,blankImage,licenseplate,,,,,,,,,,,,0,59,59,120,,,,,,,,,,,,,,,,,,,,,,,,,,,,,,,,,,,494.3096805999521,495.31488739995984,495.2992280999897,495.8995326999575,495.8995326999575,None,497.5230553000001,None,left,0.38229130004765466,497.5230553000001,None,497.93400499998825,None,left,0.3164548999629915,497.93400499998825,None,,,,,,,,,,,,,,,,,,,,,,,PPT34,001,2022-07-05_16h29.47.151,ABstudy,2022.1.4,59.93008556005791,
AB,Lag5_T1P_T2A,5,P,A,8,13,7,4,17,Tarantula,Did you see the Tarantula?,0.12,0.016,JPG\,binoculars01b,speaker04,sandal,envelope03a,plate01b,comb02a,battery02b,tarantula,measuringcup01,key01,medal02b,lamp04a,tennisball01b,pizza,cigarette,sunglasses04,blankImage,tarantula,,,,,,,,,,,,0,60,60,201,,,,,,,,,,,,,,,,,,,,,,,,,,,,,,,,,,,498.27158099994995,499.28499909996754,499.2683674999862,499.85971609997796,499.85971609997796,None,501.86230259999866,None,left,0.8111268000211567,501.86230259999866,None,502.705165899999,None,right,0.2881999999517575,502.705165899999,None,,,,,,,,,,,,,,,,,,,,,,,PPT34,001,2022-07-05_16h29.47.151,ABstudy,2022.1.4,59.93008556005791,
AB,Lag1_T1P_T2P,1,P,P,7,8,6,4,12,Dog House,Did you see the Dog House?,0.12,0.016,JPG\,pineapple01a,leaf02a,grape01,toiletpaper01a,match,tennisball01b,doghouse,stapler03b,pig,measuringcup01,ring01,lemon02,blankImage,blankImage,blankImage,blankImage,blankImage,doghouse,,,,,,,,,,,,0,61,61,44,,,,,,,,,,,,,,,,,,,,,,,,,,,,,,,,,,,503.02862269995967,504.039779099985,504.0230333999498,504.61195439996663,504.61195439996663,None,506.0930547999451,None,left,0.5887241000309587,506.0930547999451,None,506.7093059999752,None,right,0.34843150002416223,506.7093059999752,None,,,,,,,,,,,,,,,,,,,,,,,PPT34,001,2022-07-05_16h29.47.151,ABstudy,2022.1.4,59.93008556005791,
AB,Lag5_T1P_T2A,5,P,A,8,13,7,4,17,Drum set,Did you see the Drum set?,0.12,0.016,JPG\,pencil01,microscope,banana01,computerkeyboard02,celery,cellphone,scissors01,drumset,book01b,onion,dice05a,binoculars01b,baseball01a,iron01b,screw02,fork03c,blankImage,drumset,,,,,,,,,,,,0,62,62,212,,,,,,,,,,,,,,,,,,,,,,,,,,,,,,,,,,,507.082867399964,508.0938125999528,508.07722399994964,508.65741749998415,508.65741749998415,None,510.57163909997325,None,left,0.557964300038293,510.57163909997325,None,511.1481445999816,None,right,0.5972348999930546,511.1481445999816,None,,,,,,,,,,,,,,,,,,,,,,,PPT34,001,2022-07-05_16h29.47.151,ABstudy,2022.1.4,59.93008556005791,
AB,Lag5_T1P_T2P,5,P,P,8,13,7,3,16,Chefs hat,Did you see the Chefs hat?,0.12,0.016,JPG\,rice,watermelon01,tableknife02,scarf,computerkeyboard02,cauliflower01,battery02b,chefshat,book01b,sandal,sponge01,microscope,stapler01,fork03c,thermometer02b,apple07,blankImage,chefshat,,,,,,,,,,,,0,63,63,128,,,,,,,,,,,,,,,,,,,,,,,,,,,,,,,,,,,511.7739634999889,512.7818266999675,512.7650616999599,513.3469429999823,513.3469429999823,None,515.3317651999532,None,right,0.789725799986627,515.3317651999532,None,516.1512949999887,None,right,0.19428559998050332,516.1512949999887,None,,,,,,,,,,,,,,,,,,,,,,,PPT34,001,2022-07-05_16h29.47.151,ABstudy,2022.1.4,59.93008556005791,
AB,Lag1_T1P_T2P,1,P,P,6,7,5,3,10,drum sticks,Did you see the drum sticks?,0.12,0.016,JPG\,pineapple01a,tennisball01b,computerkeyboard02,feather03a,belt02a,drumstick,stapler03b,blueberry01,medal02b,alligator,blankImage,blankImage,blankImage,blankImage,blankImage,blankImage,blankImage,drumstick,,,,,,,,,,,,0,64,64,61,,,,,,,,,,,,,,,,,,,,,,,,,,,,,,,,,,,516.4346246999921,517.4366943999776,517.420458699984,518.0145744999754,518.0145744999754,None,519.0989455999807,None,left,0.7510122999665327,519.0989455999807,None,519.8732851999812,None,right,0.28783169999951497,519.8732851999812,None,,,,,,,,,,,,,,,,,,,,,,,PPT34,001,2022-07-05_16h29.47.151,ABstudy,2022.1.4,59.93008556005791,
AB,Lag5_T1P_T2P,5,P,P,6,11,5,5,16,table,Did you see the table?,0.12,0.016,JPG\,birthdaycandle,mushroom01,strawberry,match,cherry01,table01,hammer01,thermometer02b,sock01a,ring01,stapler06,banana01,toiletpaper01a,key01,sponge01,teabag,blankImage,table01,,,,,,,,,,,,0,65,65,144,,,,,,,,,,,,,,,,,,,,,,,,,,,,,,,,,,,520.1949038999737,521.2072622999549,521.1915607999545,521.6934589999728,521.6934589999728,None,523.7338614999899,None,right,1.3314605999621563,523.7338614999899,None,525.0944290999905,None,right,0.30709509999724105,525.0944290999905,None,,,,,,,,,,,,,,,,,,,,,,,PPT34,001,2022-07-05_16h29.47.151,ABstudy,2022.1.4,59.93008556005791,
AB,Lag5_T1P_T2P,5,P,P,7,12,6,5,17,elbow,Did you see the elbow?,0.12,0.016,JPG\,candle01,fork03c,plate01b,violin,computerkeyboard02,candy,elbow,paintbrush01,cherry01,sock01a,teabag,stapler01,cd,lighter01,book01b,tennisball01b,blankImage,elbow,,,,,,,,,,,,0,66,66,87,,,,,,,,,,,,,,,,,,,,,,,,,,,,,,,,,,,525.4320993999718,526.4454104999895,526.4286539999885,527.0154385999776,527.0154385999776,None,528.9538364999462,None,left,0.4391858999733813,528.9538364999462,None,529.4146996999625,None,left,0.28351380000822246,529.4146996999625,None,,,,,,,,,,,,,,,,,,,,,,,PPT34,001,2022-07-05_16h29.47.151,ABstudy,2022.1.4,59.93008556005791,
AB,Lag5_T1P_T2P,5,P,P,5,10,4,5,15,baseball bat,Did you see the baseball bat?,0.12,0.016,JPG\,pizza,printer02,medal02b,spoon01,baseballbat,lighter01,belt02a,watermelon01,celery,stapler04b,screw02,comb02a,cauliflower01,lipstick02a,potato02b,blankImage,blankImage,baseballbat,,,,,,,,,,,,0,67,67,123,,,,,,,,,,,,,,,,,,,,,,,,,,,,,,,,,,,529.7173591999453,530.7328097999562,530.6994802999543,531.2842749999836,531.2842749999836,None,533.2060973999905,None,left,0.7869261999730952,533.2060973999905,None,534.0197706999606,None,right,0.34317949996329844,534.0197706999606,None,,,,,,,,,,,,,,,,,,,,,,,PPT34,001,2022-07-05_16h29.47.151,ABstudy,2022.1.4,59.93008556005791,
AB,Lag5_T1A_T2P,5,A,P,5,10,4,5,15,Eye patch,Did you see the Eye patch?,0.12,0.016,JPG\,scissors01,balloon01b,eraser,feather03a,banana01,candle01,measuringcup01,calculator01,thermometer02b,stapler03b,pear01,carrot01,globe,baseball01a,leaf02a,blankImage,blankImage,cross01,,,,,,,,,,,,0,68,68,258,,,,,,,,,,,,,,,,,,,,,,,,,,,,,,,,,,,534.3955662999651,535.4042804999626,535.3875367,535.965590799984,535.965590799984,None,537.7520568999462,None,right,0.9773032999946736,537.7520568999462,None,538.7574014999554,None,right,0.2528531000134535,538.7574014999554,None,,,,,,,,,,,,,,,,,,,,,,,PPT34,001,2022-07-05_16h29.47.151,ABstudy,2022.1.4,59.93008556005791,
AB,Lag5_T1P_T2A,5,P,A,8,13,7,4,17,knife,Did you see the knife?,0.12,0.016,JPG\,lighter01,hammer01,spoon01,chain01,cymbal,sponge01,lipstick02a,knife03,pig,watermelon01,cauliflower01,lemon02,broccoli01a,tableknife02,tennisball01b,toothbrush03b,blankImage,knife03,,,,,,,,,,,,0,69,69,214,,,,,,,,,,,,,,,,,,,,,,,,,,,,,,,,,,,539.0432923999615,540.0587566999602,540.0254128999659,540.6025963999564,540.6025963999564,None,542.5453119999729,None,left,0.4722270999918692,542.5453119999729,None,543.0449611999793,None,right,0.2930194999789819,543.0449611999793,None,,,,,,,,,,,,,,,,,,,,,,,PPT34,001,2022-07-05_16h29.47.151,ABstudy,2022.1.4,59.93008556005791,
AB,Lag1_T1P_T2P,1,P,P,7,8,6,4,12,cow,Did you see the cow?,0.12,0.016,JPG\,fork03c,plate01b,toiletpaper01a,greenolive,rice,blueberry01,cow,stapler01,envelope03a,orange,book01b,pencil01,blankImage,blankImage,blankImage,blankImage,blankImage,cow,,,,,,,,,,,,0,70,70,59,,,,,,,,,,,,,,,,,,,,,,,,,,,,,,,,,,,543.3653683000011,544.3799473999534,544.3466302999877,544.9123076999676,544.9123076999676,None,546.4058811999857,None,left,0.4680666999774985,546.4058811999857,None,546.8992432999657,None,left,0.25437979999696836,546.8992432999657,None,,,,,,,,,,,,,,,,,,,,,,,PPT34,001,2022-07-05_16h29.47.151,ABstudy,2022.1.4,59.93008556005791,
AB,Lag1_T1P_T2P,1,P,P,5,6,4,5,11,beaver,Did you see the beaver?,0.12,0.016,JPG\,belt02a,sunglasses04,computerkeyboard02,cherry01,beaver,stapler03a,watch02a,dice05a,blueberry01,spoon01,match,blankImage,blankImage,blankImage,blankImage,blankImage,blankImage,beaver,,,,,,,,,,,,0,71,71,55,,,,,,,,,,,,,,,,,,,,,,,,,,,,,,,,,,,547.1821717999992,548.1837202999741,548.166892499954,548.760151800001,548.760151800001,None,550.0936316999723,None,left,0.4122203000006266,550.0936316999723,None,550.5361182999914,None,right,3.7778097999980673,550.5361182999914,None,,,,,,,,,,,,,,,,,,,,,,,PPT34,001,2022-07-05_16h29.47.151,ABstudy,2022.1.4,59.93008556005791,
AB,Lag5_T1P_T2P,5,P,P,5,10,4,5,15,penguin,Did you see the penguin?,0.12,0.016,JPG\,watermelon01,cigarette,pintofbeer,cymbal,penguin,feather03a,cherry01,broom01,battery02b,stapler05,baseball01a,iron01b,garlic01a,computerkeyboard02,pig,blankImage,blankImage,penguin,,,,,,,,,,,,0,72,72,137,,,,,,,,,,,,,,,,,,,,,,,,,,,,,,,,,,,554.3448860999779,555.3579227000009,555.3423480999772,555.9379830999533,555.9379830999533,None,557.6647434999468,None,left,0.5688860000227578,557.6647434999468,None,558.2605624999851,None,left,0.3180106999934651,558.2605624999851,None,,,,,,,,,,,,,,,,,,,,,,,PPT34,001,2022-07-05_16h29.47.151,ABstudy,2022.1.4,59.93008556005791,
AB,Lag5_T1P_T2P,5,P,P,8,13,7,4,17,butterfly,Did you see the butterfly?,0.12,0.016,JPG\,speaker04,sewingmachine01a,eraser,violin,globe,belt02a,sunglasses04,butterfly,cd,greenolive,alligator,pear01,stapler01,screwdriver04b,banana01,cigarette,blankImage,butterfly,,,,,,,,,,,,0,73,73,126,,,,,,,,,,,,,,,,,,,,,,,,,,,,,,,,,,,558.6440268000006,559.6450271999929,559.6283294999739,560.2161223999574,560.2161223999574,None,562.1158800999983,None,left,0.40523939998820424,562.1158800999983,None,562.5477549999487,None,left,0.22150479996344075,562.5477549999487,None,,,,,,,,,,,,,,,,,,,,,,,PPT34,001,2022-07-05_16h29.47.151,ABstudy,2022.1.4,59.93008556005791,
AB,Lag5_T1P_T2P,5,P,P,5,10,4,3,13,Jellyfish,Did you see the Jellyfish?,0.12,0.016,JPG\,printer02,envelope03a,potato02b,calculator01,jellyfish,cigarette,ashtray01,pig,broom01,stapler06,candle08b,battery02b,strawberry,blankImage,blankImage,blankImage,blankImage,jellyfish,,,,,,,,,,,,0,74,74,91,,,,,,,,,,,,,,,,,,,,,,,,,,,,,,,,,,,562.8042938999715,563.8160544999992,563.7994276999962,564.3880449999706,564.3880449999706,None,566.0234593999921,None,right,1.2987689999863505,566.0234593999921,None,567.3531087999581,None,left,0.27217620000010356,567.3531087999581,None,,,,,,,,,,,,,,,,,,,,,,,PPT34,001,2022-07-05_16h29.47.151,ABstudy,2022.1.4,59.93008556005791,
AB,Lag1_T1P_T2A,1,P,A,7,8,6,4,12,gorilla,Did you see the gorilla?,0.12,0.016,JPG\,scissors01,ashtray01,garlic01a,medal02b,cigarette,candle08b,gorilla,envelope03a,cucumber,rice,toiletpaper01a,greenolive,blankImage,blankImage,blankImage,blankImage,blankImage,gorilla,,,,,,,,,,,,0,75,75,189,,,,,,,,,,,,,,,,,,,,,,,,,,,,,,,,,,,567.6607912999461,568.6708993999637,568.6541468999931,569.2209564999794,569.2209564999794,None,570.7198705999763,None,left,0.4410904999822378,570.7198705999763,None,571.1920447999728,None,right,0.3451092999894172,571.1920447999728,None,,,,,,,,,,,,,,,,,,,,,,,PPT34,001,2022-07-05_16h29.47.151,ABstudy,2022.1.4,59.93008556005791,
AB,Lag5_T1P_T2P,5,P,P,5,10,4,5,15,rake,Did you see the rake?,0.12,0.016,JPG\,scissors01,grape01,mushroom01,toiletpaper01a,leafrake,pizza,cigarette,ashtray01,carrot01,stapler03b,foosballtable,lipstick02a,teabag,acorn,potato02b,blankImage,blankImage,leafrake,,,,,,,,,,,,0,76,76,92,,,,,,,,,,,,,,,,,,,,,,,,,,,,,,,,,,,571.5603226999519,572.5746996999951,572.541195400001,573.1141705999617,573.1141705999617,None,574.9845627999748,None,left,0.5292082999949344,574.9845627999748,None,575.5443794999737,None,right,0.3453639000072144,575.5443794999737,None,,,,,,,,,,,,,,,,,,,,,,,PPT34,001,2022-07-05_16h29.47.151,ABstudy,2022.1.4,59.93008556005791,
AB,Lag5_T1A_T2P,5,A,P,8,13,7,4,17,wrench,Did you see the wrench?,0.12,0.016,JPG\,clock01a,grape01,plate01b,key01,screwdriver04b,feather03a,pineapple01a,iron01b,toothbrush03b,comb02a,broom01,toaster01,stapler05,garlic01a,match,ashtray01,blankImage,seal,,,,,,,,,,,,0,77,77,272,,,,,,,,,,,,,,,,,,,,,,,,,,,,,,,,,,,575.9153722999617,576.9294284999487,576.9136017999845,577.504065199988,577.504065199988,None,579.4236226999783,None,left,1.3857944999472238,579.4236226999783,None,580.8328377999715,None,right,0.28879740001866594,580.8328377999715,None,,,,,,,,,,,,,,,,,,,,,,,PPT34,001,2022-07-05_16h29.47.151,ABstudy,2022.1.4,59.93008556005791,
AB,Lag5_T1P_T2P,5,P,P,7,12,6,3,15,Eye patch,Did you see the Eye patch?,0.12,0.016,JPG\,candle01,paintbrush01,scissors01,fan,microscope,toothbrush03b,eyepatch,watermelon01,teabag,pencil01,lemon02,stapler05,shirt02,cauliflower01,cd,blankImage,blankImage,eyepatch,,,,,,,,,,,,0,78,78,108,,,,,,,,,,,,,,,,,,,,,,,,,,,,,,,,,,,581.1519227999961,582.1508878999739,582.1342660999508,582.7085946999723,582.7085946999723,None,584.5300218999619,None,left,1.3846226999885403,584.5300218999619,None,585.9383012999897,None,left,0.2952351000276394,585.9383012999897,None,,,,,,,,,,,,,,,,,,,,,,,PPT34,001,2022-07-05_16h29.47.151,ABstudy,2022.1.4,59.93008556005791,
AB,Lag1_T1P_T2P,1,P,P,6,7,5,4,11,cash register,Did you see the cash register?,0.12,0.016,JPG\,leaf02a,apple07,cd,pineapple01a,envelope03a,cashregister01,stapler03b,8ball,rice,feather03a,lemon02,blankImage,blankImage,blankImage,blankImage,blankImage,blankImage,cashregister01,,,,,,,,,,,,0,79,79,79,,,,,,,,,,,,,,,,,,,,,,,,,,,,,,,,,,,586.2618895999622,587.2726290999562,587.2559985999833,587.8209160999977,587.8209160999977,None,589.1842281999998,None,left,0.42486540001118556,589.1842281999998,None,589.6417048999574,None,left,0.23942659999011084,589.6417048999574,None,,,,,,,,,,,,,,,,,,,,,,,PPT34,001,2022-07-05_16h29.47.151,ABstudy,2022.1.4,59.93008556005791,
AB,Lag1_T1P_T2P,1,P,P,8,9,7,4,13,mattress,Did you see the mattress?,0.12,0.016,JPG\,button01,celery,birthdaycandle,apple07,avocado01,tennisball01b,dice05a,mattress,stapler01,feather03a,tomato01,scarf,orange,blankImage,blankImage,blankImage,blankImage,mattress,,,,,,,,,,,,0,80,80,22,,,,,,,,,,,,,,,,,,,,,,,,,,,,,,,,,,,589.9140944999526,590.9263776000007,590.9097403999767,591.4985205999692,591.4985205999692,None,593.0524261999526,None,right,0.8926563000422902,593.0524261999526,None,593.9628078999813,None,left,0.2543970000115223,593.9628078999813,None,,,,,,,,,,,,,,,,,,,,,,,PPT34,001,2022-07-05_16h29.47.151,ABstudy,2022.1.4,59.93008556005791,
AB,Lag5_T1A_T2A,5,A,A,7,12,6,4,16,Eye,Did you see the Eye?,0.12,0.016,JPG\,rice,watermelon01,tableknife02,scarf,computerkeyboard02,cauliflower01,battery02b,binoculars01b,book01b,sandal,sponge01,microscope,tomato01,fork03c,thermometer02b,apple07,blankImage,scooter,,,,,,,,,,,,0,81,81,302,,,,,,,,,,,,,,,,,,,,,,,,,,,,,,,,,,,594.2506586999516,595.26393799996,595.2470598999644,595.874656299944,595.801433799963,None,597.746373299975,None,right,0.888342099962756,597.746373299975,None,598.6532518999884,None,right,0.7646117000258528,598.6532518999884,None,,,,,,,,,,,,,,,,,,,,,,,PPT34,001,2022-07-05_16h29.47.151,ABstudy,2022.1.4,59.93008556005791,
AB,Lag5_T1P_T2P,5,P,P,6,11,5,3,14,fish,Did you see the fish?,0.12,0.016,JPG\,broom01,globe,cellphone,tableknife02,cauliflower01,holdfast,ring01,alligator,rice,toaster01,stapler03b,grape01,microscope,cucumber,blankImage,blankImage,blankImage,holdfast,,,,,,,,,,,,0,82,82,133,,,,,,,,,,,,,,,,,,,,,,,,,,,,,,,,,,,599.4436200999771,600.4528467999771,600.4370909999707,601.0438528999803,601.0438528999803,None,602.7369302999577,None,left,0.6082323000300676,602.7369302999577,None,603.3721516999649,None,right,0.36484589998144656,603.3721516999649,None,,,,,,,,,,,,,,,,,,,,,,,PPT34,001,2022-07-05_16h29.47.151,ABstudy,2022.1.4,59.93008556005791,
AB,Lag1_T1P_T2P,1,P,P,5,6,4,3,9,dolphin,Did you see the dolphin?,0.12,0.016,JPG\,pig,belt02a,rice,screwdriver04b,dolphin01,stapler05,candle08b,pear01,feather03a,blankImage,blankImage,blankImage,blankImage,blankImage,blankImage,blankImage,blankImage,dolphin01,,,,,,,,,,,,0,83,83,10,,,,,,,,,,,,,,,,,,,,,,,,,,,,,,,,,,,603.7615125999437,604.7738619999727,604.7582209999673,605.2605542999809,605.2605542999809,None,606.4144596999977,None,left,1.8668879000470042,606.4144596999977,None,608.3104185999837,None,left,0.2680848999880254,608.3104185999837,None,,,,,,,,,,,,,,,,,,,,,,,PPT34,001,2022-07-05_16h29.47.151,ABstudy,2022.1.4,59.93008556005791,
AB,Lag5_T1P_T2A,5,P,A,7,12,6,3,15,helmet,Did you see the helmet?,0.12,0.016,JPG\,fork03c,belt02a,grape01,computerkeyboard02,lemon02,printer02,skihelmet01,toiletpaper01a,toaster01,lipstick02a,book01b,blueberry01,spoon01,apple07,avocado01,blankImage,blankImage,skihelmet01,,,,,,,,,,,,0,84,84,225,,,,,,,,,,,,,,,,,,,,,,,,,,,,,,,,,,,608.6579084999976,609.6617073999951,609.6450318999705,610.2415277999826,610.2415277999826,None,611.9873835999751,None,left,0.7573455999954604,611.9873835999751,None,612.7644443999743,None,right,0.3163052999880165,612.7644443999743,None,,,,,,,,,,,,,,,,,,,,,,,PPT34,001,2022-07-05_16h29.47.151,ABstudy,2022.1.4,59.93008556005791,
AB,Lag5_T1P_T2P,5,P,P,5,10,4,3,13,Rabbit,Did you see the Rabbit?,0.12,0.016,JPG\,celery,tennisball01b,calculator01,pear01,jackrabbit,orange,button01,cellphone,onion,stapler06,iron01b,brownsugar,banana01,blankImage,blankImage,blankImage,blankImage,jackrabbit,,,,,,,,,,,,0,85,85,90,,,,,,,,,,,,,,,,,,,,,,,,,,,,,,,,,,,613.1003659999697,614.115788199997,614.0823894999921,614.6667504999787,614.6667504999787,None,616.3412510999478,None,left,0.32420429994817823,616.3412510999478,None,616.6850336999632,None,left,0.2603154999669641,616.6850336999632,None,,,,,,,,,,,,,,,,,,,,,,,PPT34,001,2022-07-05_16h29.47.151,ABstudy,2022.1.4,59.93008556005791,
AB,Lag1_T1P_T2P,1,P,P,6,7,5,3,10,fortune cookie,Did you see the fortune cookie?,0.12,0.016,JPG\,scissors01,grape01,mushroom01,toiletpaper01a,greenolive,fortunecookie,stapler03b,ashtray01,carrot01,pineapple01a,blankImage,blankImage,blankImage,blankImage,blankImage,blankImage,blankImage,fortunecookie,,,,,,,,,,,,0,86,86,42,,,,,,,,,,,,,,,,,,,,,,,,,,,,,,,,,,,616.9717187999631,617.986551399983,617.9697173999739,618.5954147999873,618.5276744999574,None,619.7989501999691,None,left,1.0900781999807805,619.7989501999691,None,620.9062932999805,None,left,0.15963660000124946,620.9062932999805,None,,,,,,,,,,,,,,,,,,,,,,,PPT34,001,2022-07-05_16h29.47.151,ABstudy,2022.1.4,59.93008556005791,
AB,Lag5_T1P_T2A,5,P,A,5,10,4,3,13,pin,Did you see the pin?,0.12,0.016,JPG\,candle01,fork03c,plate01b,violin,pin,candy,calculator01,paintbrush01,cherry01,sock01a,teabag,banana01,cd,blankImage,blankImage,blankImage,blankImage,pin,,,,,,,,,,,,0,87,87,215,,,,,,,,,,,,,,,,,,,,,,,,,,,,,,,,,,,621.0946726999828,622.1073877999443,622.0907021999592,622.6494871999603,622.6494871999603,None,624.3507928999607,None,left,0.8106229999684729,624.3507928999607,None,625.1948389999452,None,right,0.2786241000285372,625.1948389999452,None,,,,,,,,,,,,,,,,,,,,,,,PPT34,001,2022-07-05_16h29.47.151,ABstudy,2022.1.4,59.93008556005791,
AB,Lag1_T1P_T2P,1,P,P,8,9,7,3,12,Fire hydrant,Did you see the Fire hydrant?,0.12,0.016,JPG\,foosballtable,candy,envelope03a,microscope,pencil01,leaf02a,scissors01,firehydrant,stapler01,dandelion,pineapple01a,hammer01,blankImage,blankImage,blankImage,blankImage,blankImage,firehydrant,,,,,,,,,,,,0,88,88,83,,,,,,,,,,,,,,,,,,,,,,,,,,,,,,,,,,,625.5069259000011,626.5112769999541,626.494891099981,626.9955981999519,626.9955981999519,None,628.5079616999719,None,left,0.6613634999957867,628.5079616999719,None,629.1990860999795,None,right,0.3459531999542378,629.1990860999795,None,,,,,,,,,,,,,,,,,,,,,,,PPT34,001,2022-07-05_16h29.47.151,ABstudy,2022.1.4,59.93008556005791,
AB,Lag5_T1P_T2A,5,P,A,6,11,5,3,14,toy truck,Did you see the toy truck?,0.12,0.016,JPG\,globe,belt02a,sponge01,violin,fork03c,bluecheese,clock01a,microscope,balloon01b,scarf,teabag,pen04b,brick,brownsugar,blankImage,blankImage,blankImage,bluecheese,,,,,,,,,,,,0,89,89,204,,,,,,,,,,,,,,,,,,,,,,,,,,,,,,,,,,,629.5694564000005,630.5823931999621,630.5656177999917,631.1668096999638,631.1668096999638,None,632.7518869999913,None,right,0.9850258999504149,632.7518869999913,None,633.7689529999625,None,right,0.4958645000006072,633.7689529999625,None,,,,,,,,,,,,,,,,,,,,,,,PPT34,001,2022-07-05_16h29.47.151,ABstudy,2022.1.4,59.93008556005791,
AB,Lag5_T1P_T2P,5,P,P,8,13,7,3,16,parachute,Did you see the parachute?,0.12,0.016,JPG\,brick,plate01b,pen04b,toaster01,screwdriver04b,candle01,envelope03a,parachute,pig,ring01,orange,clock01a,stapler03b,calculator01,mushroom01,chain01,blankImage,parachute,,,,,,,,,,,,0,90,90,114,,,,,,,,,,,,,,,,,,,,,,,,,,,,,,,,,,,634.2915464999969,635.3042286999989,635.2886148999678,635.9499149999465,635.8730673999526,None,637.8025038999622,None,left,0.8224940000218339,637.8025038999622,None,638.6572008999647,None,right,0.327661800023634,638.6572008999647,None,,,,,,,,,,,,,,,,,,,,,,,PPT34,001,2022-07-05_16h29.47.151,ABstudy,2022.1.4,59.93008556005791,
AB,Lag1_T1P_T2P,1,P,P,5,6,4,3,9,mail box,Did you see the mail box?,0.12,0.016,JPG\,watermelon01,banana01,ring01,pencil01,mailbox02,stapler04b,cucumber,thermometer02b,key01,blankImage,blankImage,blankImage,blankImage,blankImage,blankImage,blankImage,blankImage,mailbox02,,,,,,,,,,,,0,91,91,21,,,,,,,,,,,,,,,,,,,,,,,,,,,,,,,,,,,639.053027899994,640.0589322999585,640.0433829999529,640.716013199999,640.6409604999935,None,641.6633476999705,None,left,1.8257328000036068,641.6633476999705,None,643.5121419999632,None,right,0.3529094000114128,643.5121419999632,None,,,,,,,,,,,,,,,,,,,,,,,PPT34,001,2022-07-05_16h29.47.151,ABstudy,2022.1.4,59.93008556005791,
AB,Lag1_T1A_T2P,1,A,P,6,7,5,5,12,Piano,Did you see the Piano?,0.12,0.016,JPG\,toiletpaper01a,mushroom01,medal02b,sandal,rice,cd,stapler01,pizza,candle08b,garlic01a,toaster01,belt02a,blankImage,blankImage,blankImage,blankImage,blankImage,moose,,,,,,,,,,,,0,92,92,239,,,,,,,,,,,,,,,,,,,,,,,,,,,,,,,,,,,643.8997110999771,644.9133636999759,644.8966538999812,645.4955487999832,645.4955487999832,None,646.934925199952,None,right,1.314176200015936,646.934925199952,None,648.2669241999974,None,left,0.3514265000121668,648.2669241999974,None,,,,,,,,,,,,,,,,,,,,,,,PPT34,001,2022-07-05_16h29.47.151,ABstudy,2022.1.4,59.93008556005791,
AB,Lag5_T1P_T2P,5,P,P,7,12,6,4,16,Wolf,Did you see the Wolf?,0.12,0.016,JPG\,brick,eraser,cucumber,ashtray01,thermometer02b,binoculars01b,greywolf,screwdriver04b,grape01,brownsugar,battery02b,stapler03b,dice05a,avocado01,birthdaycandle,watch02a,blankImage,greywolf,,,,,,,,,,,,0,93,93,89,,,,,,,,,,,,,,,,,,,,,,,,,,,,,,,,,,,648.7225918999757,649.7349717999459,649.7182333999663,650.354921799968,650.354921799968,None,652.218774399953,None,left,0.7343798999791034,652.218774399953,None,652.9716623999993,None,right,0.3173761999933049,652.9716623999993,None,,,,,,,,,,,,,,,,,,,,,,,PPT34,001,2022-07-05_16h29.47.151,ABstudy,2022.1.4,59.93008556005791,
AB,Lag5_T1P_T2P,5,P,P,7,12,6,5,17,tie,Did you see the tie?,0.12,0.016,JPG\,iron01b,orange,birthdaycandle,potato02b,cauliflower01,pencil01,tie02,candle08b,celery,tableknife02,pen04b,stapler06,ring01,rice,lemon02,tomato01,blankImage,tie02,,,,,,,,,,,,0,94,94,161,,,,,,,,,,,,,,,,,,,,,,,,,,,,,,,,,,,653.3226031999802,654.3227656999952,654.305924699991,654.9018853000016,654.9018853000016,None,656.9404450999573,None,left,0.37269190000370145,656.9404450999573,None,657.3439734999556,None,left,0.2263268000097014,657.3439734999556,None,,,,,,,,,,,,,,,,,,,,,,,PPT34,001,2022-07-05_16h29.47.151,ABstudy,2022.1.4,59.93008556005791,
AB,Lag5_T1P_T2A,5,P,A,8,13,7,5,18,telescope,Did you see the telescope?,0.12,0.016,JPG\,globe,broccoli01a,binoculars01b,iron01b,avocado01,dandelion,pineapple01a,handheldtelescope,fan,pizza,celery,blueberry01,sewingmachine01a,dice05a,watermelon01,candy,blankImage,handheldtelescope,,,,,,,,,,,,0,95,95,228,,,,,,,,,,,,,,,,,,,,,,,,,,,,,,,,,,,657.6044580999878,658.610731099965,658.5951580999536,659.1974395999569,659.1974395999569,None,661.0935151999583,None,right,0.9969352000043727,661.0935151999583,None,662.1140317999525,None,left,0.41449649998685345,662.1140317999525,None,,,,,,,,,,,,,,,,,,,,,,,PPT34,001,2022-07-05_16h29.47.151,ABstudy,2022.1.4,59.93008556005791,
AB,Lag5_T1P_T2P,5,P,P,5,10,4,4,14,Salt shaker,Did you see the Salt shaker?,0.12,0.016,JPG\,fork03c,belt02a,grape01,computerkeyboard02,saltshaker03a,printer02,broom01,toiletpaper01a,toaster01,stapler01,book01b,blueberry01,spoon01,apple07,blankImage,blankImage,blankImage,saltshaker03a,,,,,,,,,,,,0,96,96,96,,,,,,,,,,,,,,,,,,,,,,,,,,,,,,,,,,,662.5545082999743,663.5654078999651,663.5486288999673,664.112163599988,664.112163599988,None,665.8058096999885,None,left,0.9640118999523111,665.8058096999885,None,666.8018744000001,None,right,0.35978089994750917,666.8018744000001,None,,,,,,,,,,,,,,,,,,,,,,,PPT34,001,2022-07-05_16h29.47.151,ABstudy,2022.1.4,59.93008556005791,
AB,Lag1_T1P_T2P,1,P,P,8,9,7,3,12,Sheep,Did you see the Sheep?,0.12,0.016,JPG\,celery,orange,scissors01,balloon01b,avocado01,printer02,mushroom01,sheep,stapler03b,dice05a,ashtray01,fan,blankImage,blankImage,blankImage,blankImage,blankImage,sheep,,,,,,,,,,,,0,97,97,71,,,,,,,,,,,,,,,,,,,,,,,,,,,,,,,,,,,667.1910133999772,668.203191699984,668.1864609999466,668.7736259999801,668.7736259999801,None,670.2096515999874,None,left,0.359377000015229,670.2096515999874,None,670.5886657999945,None,left,0.18041400000220165,670.5886657999945,None,,,,,,,,,,,,,,,,,,,,,,,PPT34,001,2022-07-05_16h29.47.151,ABstudy,2022.1.4,59.93008556005791,
AB,Lag5_T1P_T2P,5,P,P,5,10,4,5,15,hockey puck,Did you see the hockey puck?,0.12,0.016,JPG\,chain01,pen04b,birthdaycandle,watermelon01,hockeypuck,scissors01,measuringcup01,candle01,hammer01,stapler06,ashtray01,feather03a,sewingmachine01a,thermometer02b,alligator,blankImage,blankImage,hockeypuck,,,,,,,,,,,,0,98,98,110,,,,,,,,,,,,,,,,,,,,,,,,,,,,,,,,,,,670.7934859999805,671.8067455999553,671.7900187999476,672.3674507999676,672.3674507999676,None,674.1138868999551,None,right,2.0954785000067204,674.1138868999551,None,676.2289249999449,None,right,1.4120837000082247,676.2289249999449,None,,,,,,,,,,,,,,,,,,,,,,,PPT34,001,2022-07-05_16h29.47.151,ABstudy,2022.1.4,59.93008556005791,
AB,Lag1_T1P_T2P,1,P,P,7,8,6,3,11,Sand castle,Did you see the Sand castle?,0.12,0.016,JPG\,thermometer02b,candle08b,comb02a,toothbrush03b,brick,computerkeyboard02,sandcastle,stapler06,candy,birthdaycandle,clock04,blankImage,blankImage,blankImage,blankImage,blankImage,blankImage,sandcastle,,,,,,,,,,,,0,99,99,70,,,,,,,,,,,,,,,,,,,,,,,,,,,,,,,,,,,677.669723799976,678.6803657999844,678.6637731999508,679.2495376999723,679.2495376999723,None,680.6609371999511,None,left,0.9806733999866992,680.6609371999511,None,681.6667834999971,None,left,0.21370620001107454,681.6667834999971,None,,,,,,,,,,,,,,,,,,,,,,,PPT34,001,2022-07-05_16h29.47.151,ABstudy,2022.1.4,59.93008556005791,
AB,Lag1_T1P_T2P,1,P,P,8,9,7,4,13,kite,Did you see the kite?,0.12,0.016,JPG\,scissors01,balloon01b,eraser,feather03a,banana01,candle01,measuringcup01,kite,stapler04b,strawberry,pear01,carrot01,globe,blankImage,blankImage,blankImage,blankImage,kite,,,,,,,,,,,,0,100,100,17,,,,,,,,,,,,,,,,,,,,,,,,,,,,,,,,,,,681.9032842999441,682.9179128999822,682.8846932000015,683.4752990999841,683.4752990999841,None,685.0753402999835,None,left,0.557626000023447,685.0753402999835,None,685.6537017999799,None,right,0.2830392000032589,685.6537017999799,None,,,,,,,,,,,,,,,,,,,,,,,PPT34,001,2022-07-05_16h29.47.151,ABstudy,2022.1.4,59.93008556005791,
AB,Lag1_T1P_T2P,1,P,P,5,6,4,3,9,camel,Did you see the camel?,0.12,0.016,JPG\,iron01b,brick,broccoli01a,balloon01b,dromedary,stapler05,sandal,teabag,scissors01,blankImage,blankImage,blankImage,blankImage,blankImage,blankImage,blankImage,blankImage,dromedary,,,,,,,,,,,,0,101,101,11,,,,,,,,,,,,,,,,,,,,,,,,,,,,,,,,,,,685.9575705999741,686.9719417999731,686.9386120999698,687.5087427999824,687.5087427999824,None,688.646470799984,None,left,0.5301218000240624,688.646470799984,None,689.2080868999474,None,left,0.15350369998486713,689.2080868999474,None,,,,,,,,,,,,,,,,,,,,,,,PPT34,001,2022-07-05_16h29.47.151,ABstudy,2022.1.4,59.93008556005791,
AB,Lag1_T1A_T2P,1,A,P,8,9,7,5,14,clock,Did you see the clock?,0.12,0.016,JPG\,speaker04,sewingmachine01a,eraser,violin,globe,belt02a,sunglasses04,cymbal,stapler01,greenolive,alligator,pear01,watch02a,screwdriver04b,blankImage,blankImage,blankImage,peacock,,,,,,,,,,,,0,102,102,240,,,,,,,,,,,,,,,,,,,,,,,,,,,,,,,,,,,689.3905774999876,690.3920727999648,690.3753865999752,690.9612797999871,690.9612797999871,None,692.6468763999874,None,right,1.4114259000052698,692.6468763999874,None,694.0791593999602,None,left,0.29812509997282177,694.0791593999602,None,,,,,,,,,,,,,,,,,,,,,,,PPT34,001,2022-07-05_16h29.47.151,ABstudy,2022.1.4,59.93008556005791,
AB,Lag1_T1P_T2P,1,P,P,6,7,5,3,10,handcuffs,Did you see the handcuffs?,0.12,0.016,JPG\,sewingmachine01a,scarf,carrot01,book01b,eraser,handcuffs,stapler05,lipstick02a,printer02,garlic01a,blankImage,blankImage,blankImage,blankImage,blankImage,blankImage,blankImage,handcuffs,,,,,,,,,,,,0,103,103,2,,,,,,,,,,,,,,,,,,,,,,,,,,,,,,,,,,,694.4001086999779,695.4137939999928,695.39706259995,695.9770527999499,695.9770527999499,None,697.3067045999924,None,left,0.3577828999841586,697.3067045999924,None,697.6827303999453,None,left,0.15773879998596385,697.6827303999453,None,,,,,,,,,,,,,,,,,,,,,,,PPT34,001,2022-07-05_16h29.47.151,ABstudy,2022.1.4,59.93008556005791,
AB,Lag5_T1P_T2P,5,P,P,8,13,7,3,16,shrimp,Did you see the shrimp?,0.12,0.016,JPG\,globe,belt02a,sponge01,violin,fork03c,tomato01,clock01a,cocktailshrimp02,balloon01b,scarf,teabag,pen04b,stapler03a,brownsugar,speaker04,screwdriver04b,blankImage,cocktailshrimp02,,,,,,,,,,,,0,104,104,169,,,,,,,,,,,,,,,,,,,,,,,,,,,,,,,,,,,697.8710840999847,698.883511699969,698.8667623999645,699.4731717999675,699.4731717999675,None,701.3621006999747,None,left,2.727837799990084,701.3621006999747,None,704.1221541999839,None,right,0.334748099965509,704.1221541999839,None,,,,,,,,,,,,,,,,,,,,,,,PPT34,001,2022-07-05_16h29.47.151,ABstudy,2022.1.4,59.93008556005791,
AB,Lag1_T1A_T2P,1,A,P,6,7,5,5,12,Treadmill,Did you see the Treadmill?,0.12,0.016,JPG\,pencil01,broccoli01a,button01,sponge01,watermelon01,lipstick02a,stapler04b,fan,lighter01,sock01a,spoon01,blueberry01,blankImage,blankImage,blankImage,blankImage,blankImage,magneticcompass,,,,,,,,,,,,0,105,105,238,,,,,,,,,,,,,,,,,,,,,,,,,,,,,,,,,,,704.4928602,705.5068026999943,705.4734096999746,706.046229599975,706.046229599975,None,707.5394475999638,None,right,0.8935489000286907,707.5394475999638,None,708.4619915999938,None,right,0.3004738000454381,708.4619915999938,None,,,,,,,,,,,,,,,,,,,,,,,PPT34,001,2022-07-05_16h29.47.151,ABstudy,2022.1.4,59.93008556005791,
AB,Lag5_T1P_T2P,5,P,P,6,11,5,4,15,fish,Did you see the fish?,0.12,0.016,JPG\,sock01a,spoon01,alligator,comb02a,printer02,rockbass,lamp04a,cymbal,greenolive,computerkeyboard02,stapler03a,scarf,teabag,watermelon01,battery02b,blankImage,blankImage,rockbass,,,,,,,,,,,,0,106,106,115,,,,,,,,,,,,,,,,,,,,,,,,,,,,,,,,,,,708.8012630999438,709.8117173999781,709.7959512999514,710.4037031999906,710.4037031999906,None,712.2152005999815,None,left,0.4503528000204824,712.2152005999815,None,712.6975574999815,None,left,0.16006299998844042,712.6975574999815,None,,,,,,,,,,,,,,,,,,,,,,,PPT34,001,2022-07-05_16h29.47.151,ABstudy,2022.1.4,59.93008556005791,
AB,Lag5_T1P_T2A,5,P,A,6,11,5,5,16,fish,Did you see the fish?,0.12,0.016,JPG\,cucumber,ring01,lipstick02a,microscope,violin,redlionfish,celery,lighter01,cherry01,sewingmachine01a,belt02a,key01,binoculars01b,medal02b,watermelon01,dice05a,blankImage,redlionfish,,,,,,,,,,,,0,107,107,221,,,,,,,,,,,,,,,,,,,,,,,,,,,,,,,,,,,712.8827942999778,713.8820089999936,713.865256399964,714.4583769999444,714.4583769999444,None,716.3845241999952,None,left,1.18392679997487,716.3845241999952,None,717.5853235999821,None,right,0.5521533000282943,717.5853235999821,None,,,,,,,,,,,,,,,,,,,,,,,PPT34,001,2022-07-05_16h29.47.151,ABstudy,2022.1.4,59.93008556005791,
AB,Lag1_T1P_T2P,1,P,P,5,6,4,5,11,Light switch,Did you see the Light switch?,0.12,0.016,JPG\,iron01b,orange,birthdaycandle,potato02b,lightswitch01,stapler03b,key01,candle08b,celery,tableknife02,pen04b,blankImage,blankImage,blankImage,blankImage,blankImage,blankImage,lightswitch01,,,,,,,,,,,,0,108,108,18,,,,,,,,,,,,,,,,,,,,,,,,,,,,,,,,,,,718.244664400001,719.2544618999818,719.2390327999601,719.9084405999747,719.8260159999481,None,721.059460999968,None,left,1.4690368000301532,721.059460999968,None,722.5574680999853,None,right,0.8832102000014856,722.5574680999853,None,,,,,,,,,,,,,,,,,,,,,,,PPT34,001,2022-07-05_16h29.47.151,ABstudy,2022.1.4,59.93008556005791,
AB,Lag5_T1P_T2P,5,P,P,8,13,7,5,18,skis,Did you see the skis?,0.12,0.016,JPG\,tennisball01b,paintbrush01,medal02b,apple07,speaker04,iron01b,avocado01,downhillski,belt02a,toiletpaper01a,watermelon01,candle01,stapler01,cymbal,ashtray01,screwdriver04b,blankImage,downhillski,,,,,,,,,,,,0,109,109,106,,,,,,,,,,,,,,,,,,,,,,,,,,,,,,,,,,,723.4616976999678,724.47591009998,724.4424818999832,725.0509792999947,725.0509792999947,None,727.0665208999999,None,left,0.47789779998129234,727.0665208999999,None,727.5624860999524,None,right,0.3899097999674268,727.5624860999524,None,,,,,,,,,,,,,,,,,,,,,,,PPT34,001,2022-07-05_16h29.47.151,ABstudy,2022.1.4,59.93008556005791,
AB,Lag5_T1P_T2P,5,P,P,5,10,4,5,15,Eye,Did you see the Eye?,0.12,0.016,JPG\,apple07,toiletpaper01a,pizza,dandelion,eye,eraser,microscope,violin,orange,stapler01,balloon01b,sandal,lighter01,fan,book01b,blankImage,blankImage,eye,,,,,,,,,,,,0,110,110,171,,,,,,,,,,,,,,,,,,,,,,,,,,,,,,,,,,,727.9840151999961,728.9967880999902,728.9801810999634,729.5623725999612,729.5623725999612,None,731.3776864999672,None,left,0.33545010001398623,731.3776864999672,None,731.7333174999803,None,left,0.13171029998920858,731.7333174999803,None,,,,,,,,,,,,,,,,,,,,,,,PPT34,001,2022-07-05_16h29.47.151,ABstudy,2022.1.4,59.93008556005791,
AB,Lag1_T1P_T2P,1,P,P,8,9,7,4,13,crab,Did you see the crab?,0.12,0.016,JPG\,candle01,fork03c,plate01b,violin,computerkeyboard02,candy,calculator01,crab01,stapler04b,sock01a,teabag,banana01,cd,blankImage,blankImage,blankImage,blankImage,crab01,,,,,,,,,,,,0,111,111,37,,,,,,,,,,,,,,,,,,,,,,,,,,,,,,,,,,,731.8870237999945,732.9009024999687,732.8675401999499,733.4511071999441,733.4511071999441,None,735.0375735999551,None,left,0.47489920002408326,735.0375735999551,None,735.5394279999891,None,left,0.12495780002791435,735.5394279999891,None,,,,,,,,,,,,,,,,,,,,,,,PPT34,001,2022-07-05_16h29.47.151,ABstudy,2022.1.4,59.93008556005791,
AB,Lag1_T1A_T2A,1,A,A,6,7,5,5,12,flamingo,Did you see the flamingo?,0.12,0.016,JPG\,chain01,pen04b,birthdaycandle,watermelon01,broom01,scissors01,measuringcup01,candle01,hammer01,calculator01,ashtray01,feather03a,blankImage,blankImage,blankImage,blankImage,blankImage,witchhat,,,,,,,,,,,,0,112,112,288,,,,,,,,,,,,,,,,,,,,,,,,,,,,,,,,,,,735.6990146999597,736.7051421999931,736.689440999995,737.2757223999943,737.2757223999943,None,738.7002395999734,None,right,1.1169591000070795,738.7002395999734,None,739.8415851999889,None,right,0.10343540000030771,739.8415851999889,None,,,,,,,,,,,,,,,,,,,,,,,PPT34,001,2022-07-05_16h29.47.151,ABstudy,2022.1.4,59.93008556005791,
AB,Lag1_T1A_T2P,1,A,P,6,7,5,3,10,Jellyfish,Did you see the Jellyfish?,0.12,0.016,JPG\,thermometer02b,avocado01,scissors01,tennisball01b,medal02b,banana01,stapler01,cigarette,potato02b,pineapple01a,blankImage,blankImage,blankImage,blankImage,blankImage,blankImage,blankImage,firehydrant,,,,,,,,,,,,0,113,113,255,,,,,,,,,,,,,,,,,,,,,,,,,,,,,,,,,,,739.9802861999488,740.9923361999681,740.9757535999524,741.5472901999601,741.5472901999601,None,742.8661436999682,None,right,0.9988658999791369,742.8661436999682,None,743.8949554999708,None,left,0.19403629994485527,743.8949554999708,None,,,,,,,,,,,,,,,,,,,,,,,PPT34,001,2022-07-05_16h29.47.151,ABstudy,2022.1.4,59.93008556005791,
AB,Lag5_T1P_T2A,5,P,A,8,13,7,3,16,Shelves,Did you see the Shelves?,0.12,0.016,JPG\,pineapple01a,leaf02a,grape01,toiletpaper01a,match,tennisball01b,spoon01,shelves,pig,measuringcup01,ring01,lemon02,dice05a,pizza,potato02b,eraser,blankImage,shelves,,,,,,,,,,,,0,114,114,222,,,,,,,,,,,,,,,,,,,,,,,,,,,,,,,,,,,744.1146512999549,745.1298085000017,745.0965939000016,745.6848055999726,745.6848055999726,None,747.6450139999506,None,left,0.5317021000082605,747.6450139999506,None,748.1992942999932,None,right,0.5376742000225931,748.1992942999932,None,,,,,,,,,,,,,,,,,,,,,,,PPT34,001,2022-07-05_16h29.47.151,ABstudy,2022.1.4,59.93008556005791,
AB,Lag5_T1P_T2P,5,P,P,5,10,4,5,15,ear,Did you see the ear?,0.12,0.016,JPG\,fork03c,plate01b,toiletpaper01a,greenolive,ear,blueberry01,onion,calculator01,envelope03a,stapler06,book01b,pencil01,sewingmachine01a,brick,watermelon01,blankImage,blankImage,ear,,,,,,,,,,,,0,115,115,107,,,,,,,,,,,,,,,,,,,,,,,,,,,,,,,,,,,748.7687580999918,749.7843245999538,749.7508639000007,750.3353302999749,750.3353302999749,None,752.1732835999574,None,left,0.324492999992799,752.1732835999574,None,752.5204272999545,None,left,0.11231470003258437,752.5204272999545,None,,,,,,,,,,,,,,,,,,,,,,,PPT34,001,2022-07-05_16h29.47.151,ABstudy,2022.1.4,59.93008556005791,
AB,Lag1_T1P_T2P,1,P,P,6,7,5,5,12,exit sign,Did you see the exit sign?,0.12,0.016,JPG\,printer02,envelope03a,potato02b,calculator01,tableknife02,exitsign,stapler01,pig,broom01,greenolive,candle08b,battery02b,blankImage,blankImage,blankImage,blankImage,blankImage,exitsign,,,,,,,,,,,,0,116,116,41,,,,,,,,,,,,,,,,,,,,,,,,,,,,,,,,,,,752.6606858999585,753.6717403999646,753.6549649999943,754.2335230999743,754.2335230999743,None,755.6893673999584,None,left,0.767243700043764,755.6893673999584,None,756.4741261999588,None,right,0.22262519999640062,756.4741261999588,None,,,,,,,,,,,,,,,,,,,,,,,PPT34,001,2022-07-05_16h29.47.151,ABstudy,2022.1.4,59.93008556005791,
AB,Lag1_T1P_T2P,1,P,P,8,9,7,3,12,Eiffel tower,Did you see the Eiffel tower?,0.12,0.016,JPG\,celery,tennisball01b,calculator01,pear01,screw02,orange,button01,eiffeltower,stapler03b,apple07,iron01b,brownsugar,blankImage,blankImage,blankImage,blankImage,blankImage,eiffeltower,,,,,,,,,,,,0,117,117,40,,,,,,,,,,,,,,,,,,,,,,,,,,,,,,,,,,,756.7275695999851,757.7420843999716,757.7087346999906,758.2827281999635,758.2827281999635,None,759.679112999991,None,left,0.4253819999867119,759.679112999991,None,760.1277949999785,None,left,0.1206314000301063,760.1277949999785,None,,,,,,,,,,,,,,,,,,,,,,,PPT34,001,2022-07-05_16h29.47.151,ABstudy,2022.1.4,59.93008556005791,
AB,Lag1_T1A_T2P,1,A,P,5,6,4,5,11,rake,Did you see the rake?,0.12,0.016,JPG\,candy,brownsugar,dice05a,cd,sock01a,stapler01,button01,potato02b,feather03a,grape01,dandelion,blankImage,blankImage,blankImage,blankImage,blankImage,blankImage,greatwhiteshark,,,,,,,,,,,,0,118,118,256,,,,,,,,,,,,,,,,,,,,,,,,,,,,,,,,,,,760.279108799994,761.278946299979,761.2622570999665,761.8365612999769,761.8365612999769,None,763.1147170999902,None,right,0.9422211999772117,763.1147170999902,None,764.0827397999819,None,right,0.11756410001544282,764.0827397999819,None,,,,,,,,,,,,,,,,,,,,,,,PPT34,001,2022-07-05_16h29.47.151,ABstudy,2022.1.4,59.93008556005791,
AB,Lag5_T1A_T2P,5,A,P,5,10,4,3,13,License Plate,Did you see the License Plate?,0.12,0.016,JPG\,tomato01,pen04b,shirt02,carrot01,lamp04a,key01,pizza,avocado01,sewingmachine01a,stapler06,iron01b,book01b,chain01,blankImage,blankImage,blankImage,blankImage,porcupine,,,,,,,,,,,,0,119,119,270,,,,,,,,,,,,,,,,,,,,,,,,,,,,,,,,,,,764.2853591999738,765.2998242999893,765.2663923999644,765.8644751999527,765.8644751999527,None,767.4427327999729,None,left,0.8066099000279792,767.4427327999729,None,768.2710864999681,None,right,0.17777269997168332,768.2710864999681,None,,,,,,,,,,,,,,,,,,,,,,,PPT34,001,2022-07-05_16h29.47.151,ABstudy,2022.1.4,59.93008556005791,
AB,Lag5_T1A_T2A,5,A,A,5,10,4,5,15,window,Did you see the window?,0.12,0.016,JPG\,leaf02a,apple07,cd,pineapple01a,envelope03a,paintbrush01,pig,canoftennisballs,rice,feather03a,lemon02,balloon01b,avocado01,calculator01,watermelon01,blankImage,blankImage,saxophone,,,,,,,,,,,,0,120,120,301,,,,,,,,,,,,,,,,,,,,,,,,,,,,,,,,,,,768.4706054999842,769.4709172999719,769.4540880999994,770.0144870999502,770.0144870999502,None,772.0243272999651,None,right,1.8005611000116915,772.0243272999651,None,773.8418713999563,None,right,0.28679009998450056,773.8418713999563,None,,,,,,,,,,,,,,,,,,,,,,,PPT34,001,2022-07-05_16h29.47.151,ABstudy,2022.1.4,59.93008556005791,
AB,Lag5_T1P_T2P,5,P,P,7,12,6,3,15,lips,Did you see the lips?,0.12,0.016,JPG\,cigarette,fork03c,greenolive,broccoli01a,avocado01,tennisball01b,lip,leaf02a,pig,fan,clock01a,stapler03a,envelope03a,birthdaycandle,teabag,blankImage,blankImage,lip,,,,,,,,,,,,0,121,121,95,,,,,,,,,,,,,,,,,,,,,,,,,,,,,,,,,,,774.1591061999789,775.1595057999948,775.1428414999973,775.7312918999814,775.7312918999814,None,777.5571034999448,None,left,0.7324364999658428,777.5571034999448,None,778.3129805999924,None,left,0.1277486000326462,778.3129805999924,None,,,,,,,,,,,,,,,,,,,,,,,PPT34,001,2022-07-05_16h29.47.151,ABstudy,2022.1.4,59.93008556005791,
AB,Lag5_T1P_T2P,5,P,P,6,11,5,5,16,Parking meter,Did you see the Parking meter?,0.12,0.016,JPG\,dice05a,watch02a,pig,lighter01,button01,parkingmeter,paintbrush01,microscope,plate01b,pen04b,stapler03b,weight04a,carrot01,shirt02,globe,garlic01a,blankImage,parkingmeter,,,,,,,,,,,,0,122,122,172,,,,,,,,,,,,,,,,,,,,,,,,,,,,,,,,,,,778.4705239999457,779.4810294999625,779.4655009999988,780.0583701999858,780.0583701999858,None,781.9898200999596,None,right,0.9228978999890387,781.9898200999596,None,782.9338189999689,None,right,0.13888550002593547,782.9338189999689,None,,,,,,,,,,,,,,,,,,,,,,,PPT34,001,2022-07-05_16h29.47.151,ABstudy,2022.1.4,59.93008556005791,
AB,Lag5_T1P_T2P,5,P,P,8,13,7,5,18,hand,Did you see the hand?,0.12,0.016,JPG\,foosballtable,candy,envelope03a,microscope,pencil01,leaf02a,scissors01,hand01b,grape01,dandelion,pineapple01a,hammer01,stapler03a,thermometer02b,ring01,sewingmachine01a,blankImage,hand01b,,,,,,,,,,,,0,123,123,131,,,,,,,,,,,,,,,,,,,,,,,,,,,,,,,,,,,783.1029949999647,784.1184421999496,784.0850420999923,784.585720299976,784.585720299976,None,786.7304435999831,None,left,1.7748656999901868,786.7304435999831,None,788.5231097999495,None,left,0.2050481999758631,788.5231097999495,None,,,,,,,,,,,,,,,,,,,,,,,PPT34,001,2022-07-05_16h29.47.151,ABstudy,2022.1.4,59.93008556005791,
AB,Lag1_T1P_T2P,1,P,P,5,6,4,4,10,skateboard,Did you see the skateboard?,0.12,0.016,JPG\,binoculars01b,cymbal,pizza,candy,skateboard,stapler05,grape01,thermometer02b,speaker04,lemon02,blankImage,blankImage,blankImage,blankImage,blankImage,blankImage,blankImage,skateboard,,,,,,,,,,,,0,124,124,25,,,,,,,,,,,,,,,,,,,,,,,,,,,,,,,,,,,788.7607617999893,789.774257699959,789.7574463999481,790.3500795,790.3500795,None,791.5567989999545,None,left,0.843906500027515,791.5567989999545,None,792.4266200999846,None,right,0.24604609998641536,792.4266200999846,None,,,,,,,,,,,,,,,,,,,,,,,PPT34,001,2022-07-05_16h29.47.151,ABstudy,2022.1.4,59.93008556005791,
AB,Lag1_T1P_T2P,1,P,P,6,7,5,3,10,spider web,Did you see the spider web?,0.12,0.016,JPG\,toaster01,chain01,sponge01,baseball01a,carrot01,spiderweb,stapler03b,iron01b,grape01,brick,blankImage,blankImage,blankImage,blankImage,blankImage,blankImage,blankImage,spiderweb,,,,,,,,,,,,0,125,125,72,,,,,,,,,,,,,,,,,,,,,,,,,,,,,,,,,,,792.6969353999593,793.7112505999976,793.6778937999625,794.2730135999736,794.2730135999736,None,795.5105932999868,None,left,0.95373979996657,795.5105932999868,None,796.4813738999655,None,left,0.14300959999673069,796.4813738999655,None,,,,,,,,,,,,,,,,,,,,,,,PPT34,001,2022-07-05_16h29.47.151,ABstudy,2022.1.4,59.93008556005791,
AB,Lag5_T1A_T2A,5,A,A,6,11,5,3,14,mirror,Did you see the mirror?,0.12,0.016,JPG\,foosballtable,candy,envelope03a,microscope,pencil01,leaf02a,scissors01,watermelon01,grape01,dandelion,pineapple01a,hammer01,celery,thermometer02b,blankImage,blankImage,blankImage,shower,,,,,,,,,,,,0,126,126,305,,,,,,,,,,,,,,,,,,,,,,,,,,,,,,,,,,,796.6534960999852,797.6656000999501,797.648743699945,798.1494596999837,798.1494596999837,None,799.9587434999994,None,right,1.0908259999705479,799.9587434999994,None,801.069791499991,None,right,0.1551937999902293,801.069791499991,None,,,,,,,,,,,,,,,,,,,,,,,PPT34,001,2022-07-05_16h29.47.151,ABstudy,2022.1.4,59.93008556005791,
AB,Lag5_T1P_T2A,5,P,A,7,12,6,5,17,corn,Did you see the corn?,0.12,0.016,JPG\,avocado01,pingpongpaddle01c,match,cauliflower01,paintbrush01,clock01a,corn02,cd,balloon01b,cellphone,watch02a,pear01,toaster01,sponge01,orange,blueberry01,blankImage,corn02,,,,,,,,,,,,0,127,127,210,,,,,,,,,,,,,,,,,,,,,,,,,,,,,,,,,,,801.256934999954,802.2701463999692,802.2534396999981,802.8538678999757,802.8538678999757,None,804.7759831000003,None,left,0.7926698999945074,804.7759831000003,None,805.5904436999699,None,right,0.29032799997366965,805.5904436999699,None,,,,,,,,,,,,,,,,,,,,,,,PPT34,001,2022-07-05_16h29.47.151,ABstudy,2022.1.4,59.93008556005791,
AB,Lag1_T1A_T2A,1,A,A,7,8,6,5,13,Poker chips,Did you see the Poker chips?,0.12,0.016,JPG\,violin,pizza,toothbrush03b,pineapple01a,banana01,ashtray01,candy,dandelion,clock04,sock01a,microscope,speaker04,calculator01,blankImage,blankImage,blankImage,blankImage,cigar,,,,,,,,,,,,0,128,128,289,,,,,,,,,,,,,,,,,,,,,,,,,,,,,,,,,,,805.9141907999874,806.9246177999885,806.9080357999774,807.4787168999901,807.4787168999901,None,809.0726018999703,None,right,0.9523054999881424,809.0726018999703,None,810.0446194999968,None,right,0.13236380001762882,810.0446194999968,None,,,,,,,,,,,,,,,,,,,,,,,PPT34,001,2022-07-05_16h29.47.151,ABstudy,2022.1.4,59.93008556005791,
AB,Lag1_T1P_T2P,1,P,P,8,9,7,4,13,peacock,Did you see the peacock?,0.12,0.016,JPG\,hammer01,sponge01,toaster01,cherry01,feather03a,mushroom01,measuringcup01,peacock,stapler03a,brick,clock04,medal02b,teabag,blankImage,blankImage,blankImage,blankImage,peacock,,,,,,,,,,,,0,129,129,68,,,,,,,,,,,,,,,,,,,,,,,,,,,,,,,,,,,810.199729999993,811.2122131999931,811.195474899956,811.7770552999573,811.7770552999573,None,813.344254399999,None,left,0.6807911999640055,813.344254399999,None,814.048603299947,None,left,0.13627710001310334,814.048603299947,None,,,,,,,,,,,,,,,,,,,,,,,PPT34,001,2022-07-05_16h29.47.151,ABstudy,2022.1.4,59.93008556005791,
AB,Lag5_T1A_T2P,5,A,P,7,12,6,3,15,hockey puck,Did you see the hockey puck?,0.12,0.016,JPG\,toiletpaper01a,lipstick02a,potato02b,speaker04,globe,strawberry,carrot01,plate01b,sock01a,candle08b,pen04b,stapler04b,foosballtable,brick,pear01,blankImage,blankImage,frisbee,,,,,,,,,,,,0,130,130,260,,,,,,,,,,,,,,,,,,,,,,,,,,,,,,,,,,,814.2213043999509,815.2329676999943,815.2163294999627,815.8006867999793,815.8006867999793,None,817.5962317999802,None,right,1.6843051000032574,817.5962317999802,None,819.3038765999954,None,right,0.14454340003430843,819.3038765999954,None,,,,,,,,,,,,,,,,,,,,,,,PPT34,001,2022-07-05_16h29.47.151,ABstudy,2022.1.4,59.93008556005791,
AB,Lag5_T1P_T2A,5,P,A,6,11,5,3,14,Balcony,Did you see the Balcony?,0.12,0.016,JPG\,tomato01,pen04b,shirt02,carrot01,lamp04a,balcony02,pizza,avocado01,sewingmachine01a,apple07,iron01b,book01b,chain01,sock01a,blankImage,blankImage,blankImage,balcony02,,,,,,,,,,,,0,131,131,207,,,,,,,,,,,,,,,,,,,,,,,,,,,,,,,,,,,819.4763169999933,820.4882648999919,820.4715015999973,821.0742885999498,821.0742885999498,None,822.7860241999733,None,right,0.9583660999778658,822.7860241999733,None,823.7744927999447,None,right,0.16977620002580807,823.7744927999447,None,,,,,,,,,,,,,,,,,,,,,,,PPT34,001,2022-07-05_16h29.47.151,ABstudy,2022.1.4,59.93008556005791,
AB,Lag1_T1P_T2P,1,P,P,7,8,6,5,13,tiger,Did you see the tiger?,0.12,0.016,JPG\,globe,broccoli01a,binoculars01b,iron01b,avocado01,dandelion,tiger02,stapler03b,fan,pizza,celery,blueberry01,sewingmachine01a,blankImage,blankImage,blankImage,blankImage,tiger02,,,,,,,,,,,,0,132,132,50,,,,,,,,,,,,,,,,,,,,,,,,,,,,,,,,,,,823.9769939999678,824.9923605999793,824.9590267999447,825.5509212999605,825.5509212999605,None,827.148597899999,None,left,0.3724042999674566,827.148597899999,None,827.547728399979,None,left,0.1244658999494277,827.547728399979,None,,,,,,,,,,,,,,,,,,,,,,,PPT34,001,2022-07-05_16h29.47.151,ABstudy,2022.1.4,59.93008556005791,
AB,Lag5_T1A_T2P,5,A,P,7,12,6,5,17,Rollerblade,Did you see the Rollerblade?,0.12,0.016,JPG\,binoculars01b,cymbal,pizza,candy,paintbrush01,sponge01,grape01,thermometer02b,speaker04,lemon02,lipstick02a,stapler03b,candle01,8ball,plate01b,pen04b,blankImage,lion,,,,,,,,,,,,0,133,133,266,,,,,,,,,,,,,,,,,,,,,,,,,,,,,,,,,,,827.7624969999888,828.7629937999882,828.7463170999545,829.3393707999494,829.3393707999494,None,831.236751199991,None,right,1.172999800008256,831.236751199991,None,832.4334939999972,None,left,0.23920020001241937,832.4334939999972,None,,,,,,,,,,,,,,,,,,,,,,,PPT34,001,2022-07-05_16h29.47.151,ABstudy,2022.1.4,59.93008556005791,
AB,Lag1_T1A_T2A,1,A,A,5,6,4,3,9,Pigeon,Did you see the Pigeon?,0.12,0.016,JPG\,candle01,paintbrush01,scissors01,fan,microscope,toothbrush03b,candle08b,watermelon01,teabag,blankImage,blankImage,blankImage,blankImage,blankImage,blankImage,blankImage,blankImage,floorlamp,,,,,,,,,,,,0,134,134,286,,,,,,,,,,,,,,,,,,,,,,,,,,,,,,,,,,,832.7059958999744,833.7178077999852,833.7011151999468,834.2716938999947,834.2716938999947,None,835.4550936999731,None,right,1.0015297000063583,835.4550936999731,None,836.4874579999596,None,right,0.13705290004145354,836.4874579999596,None,,,,,,,,,,,,,,,,,,,,,,,PPT34,001,2022-07-05_16h29.47.151,ABstudy,2022.1.4,59.93008556005791,
AB,Lag1_T1P_T2P,1,P,P,6,7,5,5,12,Snowboard,Did you see the Snowboard?,0.12,0.016,JPG\,belt02a,measuringcup01,spoon01,chain01,greenolive,snowboard,stapler01,onion,fan,strawberry,candle01,broom01,blankImage,blankImage,blankImage,blankImage,blankImage,snowboard,,,,,,,,,,,,0,135,135,49,,,,,,,,,,,,,,,,,,,,,,,,,,,,,,,,,,,836.6599106999929,837.671909799974,837.6551283999579,838.2390353999799,838.2390353999799,None,839.6984634999535,None,right,2.2857731000403874,839.6984634999535,None,842.0092698999797,None,left,0.24673300003632903,842.0092698999797,None,,,,,,,,,,,,,,,,,,,,,,,PPT34,001,2022-07-05_16h29.47.151,ABstudy,2022.1.4,59.93008556005791,
AB,Lag1_T1P_T2A,1,P,A,6,7,5,5,12,foot,Did you see the foot?,0.12,0.016,JPG\,watermelon01,cigarette,weight04a,cymbal,cauliflower01,foot,cherry01,broom01,battery02b,key01,baseball01a,iron01b,blankImage,blankImage,blankImage,blankImage,blankImage,foot,,,,,,,,,,,,0,136,136,188,,,,,,,,,,,,,,,,,,,,,,,,,,,,,,,,,,,842.2785199999926,843.2940014999476,843.2605849999818,843.8557494999841,843.8557494999841,None,845.3768209999544,None,left,0.7033741000341251,845.3768209999544,None,846.0967741999775,None,right,0.25542220001807436,846.0967741999775,None,,,,,,,,,,,,,,,,,,,,,,,PPT34,001,2022-07-05_16h29.47.151,ABstudy,2022.1.4,59.93008556005791,
AB,Lag5_T1P_T2P,5,P,P,6,11,5,5,16,Car,Did you see the Car?,0.12,0.016,JPG\,leaf02a,apple07,cd,pineapple01a,envelope03a,car,pig,canoftennisballs,rice,feather03a,stapler03a,balloon01b,avocado01,calculator01,watermelon01,teabag,blankImage,car,,,,,,,,,,,,0,137,137,127,,,,,,,,,,,,,,,,,,,,,,,,,,,,,,,,,,,846.382652100001,847.3980727999588,847.3647186999442,847.9441735,847.9441735,None,849.9112815999542,None,left,0.6886737999739125,849.9112815999542,None,850.617885399959,None,left,0.2781607999932021,850.617885399959,None,,,,,,,,,,,,,,,,,,,,,,,PPT34,001,2022-07-05_16h29.47.151,ABstudy,2022.1.4,59.93008556005791,
