TrialType,CondType,Lag,T1_PA,T2_PA,T1Loc,T2Loc,PreDistractor,PostDistractor,TotalImg,cueWord,T1cue,StimLength,isi,PicFolder,Img1,Img2,Img3,Img4,Img5,Img6,Img7,Img8,Img9,Img10,Img11,Img12,Img13,Img14,Img15,Img16,Img17,T1_Identity,ImageType,T1PA,T2PA,Picture,Image,FullPathName,FilePath,Practice_Trials.thisRepN,Practice_Trials.thisTrialN,Practice_Trials.thisN,Practice_Trials.thisIndex,trials.thisRepN,trials.thisTrialN,trials.thisN,trials.thisIndex,trials_2.thisRepN,trials_2.thisTrialN,trials_2.thisN,trials_2.thisIndex,Practice_Ins.started,Practice_Ins.stopped,End_Prac_Ins.keys,End_Prac_Ins.rt,End_Prac_Ins.started,End_Prac_Ins.stopped,text_2.started,text_2.stopped,Fixation_Cross_2.started,Fixation_Cross_2.stopped,Rapid_Image_Present_2.started,Rapid_Image_Present_2.stopped,key_resp.keys,key_resp.rt,key_resp.started,key_resp.stopped,T1Response_2.started,T1Response_2.stopped,T2Response_2.started,T2Response_2.stopped,key_resp_4.keys,key_resp_4.rt,key_resp_4.started,key_resp_4.stopped,text.started,text.stopped,End_Instructions.keys,End_Instructions.rt,End_Instructions.started,End_Instructions.stopped,text_5.started,text_5.stopped,FC.started,FC.stopped,Rapid_Image_Present.started,Rapid_Image_Present.stopped,T1Response.started,T1Response.stopped,key_resp_2.keys,key_resp_2.rt,key_resp_2.started,key_resp_2.stopped,T2Response.started,T2Response.stopped,key_resp_3.keys,key_resp_3.rt,key_resp_3.started,key_resp_3.stopped,text_6.started,text_6.stopped,Fin_ins.keys,Fin_ins.rt,Fin_ins.started,Fin_ins.stopped,MemTest.started,MemTest.stopped,MemResponse.keys,MemResponse.rt,MemResponse.started,MemResponse.stopped,Display.started,Display.stopped,text_7.started,text_7.stopped,endOfExperiment.started,endOfExperiment.stopped,key_resp_5.keys,key_resp_5.rt,key_resp_5.started,key_resp_5.stopped,participant,session,date,expName,psychopyVersion,frameRate,
,,,,,,,,,,,,,,,,,,,,,,,,,,,,,,,,,,,,,,,,,,,,,,,,,,,,15.283750000002328,None,space,28.18445800000336,15.283750000002328,None,,,,,,,,,,,,,,,,,,,,,,,,,,,,,,,,,,,,,,,,,,,,,,,,,,,,,,,,,,,,,,,,,PPT32,001,2022-07-05_14h28.29.768,ABstudy,2022.1.4,59.93971262457014,
AB_Prac,Lag5_T1P_T2P,5,P,P,5,10,4,5,15,washing machine,Did you see the washing machine?,0.5,0.016,JPG\,waterbottle03,wheel01,flashlight02b,zucchini01,washingmachine,headphones02b,nutcracker01,paintroller01,paperclip03,stapler06,ribbon04,electricrazor,bottleofredwine01,pitabread,pot02a,blankImage,blankImage,washingmachine,,,,,,,,0,0,0,4,,,,,,,,,,,,,,,43.54911190003622,44.55587420001393,44.540835899999365,45.264820599986706,45.179463399981614,None,left,1.1892178000416607,52.74277760001132,None,52.74277760001132,None,53.96538409998175,None,left,0.8145292999688536,53.96538409998175,None,,,,,,,,,,,,,,,,,,,,,,,,,,,,,,,,,,,,,,,,,,,,,,,PPT32,001,2022-07-05_14h28.29.768,ABstudy,2022.1.4,59.93971262457014,
AB_Prac,Lag5_T1P_T2A,5,P,A,6,11,5,5,16,Wheat,Did you see the Wheat?,0.5,0.016,JPG\,bottleopener01,dentalfloss03b,cooler01,icecreamcone01a,paperclip01b,wheat,pencilsharpener02a,plasticbasket01a,toycar04,apricot,hairclip02,rock01a,honeydewmelon,antenna,blackberry,cardboardbox,blankImage,wheat,,,,,,,,0,1,1,7,,,,,,,,,,,,,,,54.80626260000281,55.81661700003315,55.7998994999798,56.37744340003701,56.37744340003701,None,left,1.1633488000370562,64.37711170001421,None,64.37711170001421,None,65.5599530999898,None,right,0.7881418999750167,65.5599530999898,None,,,,,,,,,,,,,,,,,,,,,,,,,,,,,,,,,,,,,,,,,,,,,,,PPT32,001,2022-07-05_14h28.29.768,ABstudy,2022.1.4,59.93971262457014,
AB_Prac,Lag1_T1P_T2P,1,P,P,6,7,5,5,12,triangle,Did you see the triangle?,0.5,0.016,JPG\,ginger,mousetrap,plum01,slipper01b,dropper01,triangle,stapler04b,pants,raspberry01,rope03,scale01a,vase01,blankImage,blankImage,blankImage,blankImage,blankImage,triangle,,,,,,,,0,2,2,1,,,,,,,,,,,,,,,66.38506180001423,67.39506670000264,67.3793558999896,67.97837530000834,67.97837530000834,None,left,1.154549200029578,74.00949870003387,None,74.00949870003387,None,75.18548109999392,None,left,0.6582797999726608,75.18548109999392,None,,,,,,,,,,,,,,,,,,,,,,,,,,,,,,,,,,,,,,,,,,,,,,,PPT32,001,2022-07-05_14h28.29.768,ABstudy,2022.1.4,59.93971262457014,
AB_Prac,Lag1_T1A_T2A,1,A,A,8,9,7,3,12,Moose,Did you see the Moose?,0.5,0.016,JPG\,clothespin03b,corkscrew03a,drillbit03a,fusilli03a,needlenosepliers01,perfume01a,pistachio,scrubbingbrush05b,spatula03,toothpastetube,hinge,toydinosaur,blankImage,blankImage,blankImage,blankImage,blankImage,None,,,,,,,,0,3,3,10,,,,,,,,,,,,,,,75.88767640001606,76.8873978999909,76.87066110002343,77.45829239999875,77.45829239999875,None,right,1.247070299985353,83.50810490001459,None,83.50810490001459,None,84.77883490000386,None,right,0.5522564999992028,84.77883490000386,None,,,,,,,,,,,,,,,,,,,,,,,,,,,,,,,,,,,,,,,,,,,,,,,PPT32,001,2022-07-05_14h28.29.768,ABstudy,2022.1.4,59.93971262457014,
AB_Prac,Lag1_T1P_T2A,1,P,A,8,9,7,5,14,flower,Did you see the flower?,0.5,0.016,JPG\,razor01,axe01,binder03b,bowl01,kettle01,lettuce,lime,plasticflower01b,mitten04,pencilcase01,plunger02,strawbasket01,toothpick02,wallet02a,blankImage,blankImage,blankImage,plasticflower01b,,,,,,,,0,4,4,5,,,,,,,,,,,,,,,85.36799739999697,86.38018269999884,86.36345649999566,86.94876629998907,86.94876629998907,None,left,0.9819069000077434,93.9412870000233,None,93.9412870000233,None,94.9552638999885,None,right,0.703860400011763,94.9552638999885,None,,,,,,,,,,,,,,,,,,,,,,,,,,,,,,,,,,,,,,,,,,,,,,,PPT32,001,2022-07-05_14h28.29.768,ABstudy,2022.1.4,59.93971262457014,
AB_Prac,Lag5_T1A_T2A,5,A,A,6,11,5,5,16,castle,Did you see the castle?,0.5,0.016,JPG\,tape02a,englishmuffin,flask,ladle02a,monitor,peach01,keychain,squeegee01b,telephone01b,whisk,walkman,syringe02,baguette01,coaster,box01a,coffeepot03a,blankImage,None,,,,,,,,0,5,5,11,,,,,,,,,,,,,,,95.68953720002901,96.6902799999807,96.67358160001459,97.26713799999561,97.26713799999561,None,right,1.1534297000034712,105.42568829999072,None,105.42568829999072,None,106.60026269999798,None,right,0.6268118000007235,106.60026269999798,None,,,,,,,,,,,,,,,,,,,,,,,,,,,,,,,,,,,,,,,,,,,,,,,PPT32,001,2022-07-05_14h28.29.768,ABstudy,2022.1.4,59.93971262457014,
AB_Prac,Lag5_T1P_T2P,5,P,P,7,12,6,3,15,vacuum,Did you see the vacuum?,0.5,0.016,JPG\,fork07b,lightbulb01,manshoe,saw02b,shoelace,soap03a,vacuumcleaner01,floortile01,necklace,doll,cabbage,stapler03a,hanger02a,laptop01a,nailpolish03b,blankImage,blankImage,vacuumcleaner01,,,,,,,,0,6,6,2,,,,,,,,,,,,,,,107.25491210003383,108.26851520000491,108.25179750000825,108.82823320000898,108.82823320000898,None,left,0.9106111000292003,116.3407159000053,None,116.3407159000053,None,117.27787849999731,None,left,0.5011310999980196,117.27787849999731,None,,,,,,,,,,,,,,,,,,,,,,,,,,,,,,,,,,,,,,,,,,,,,,,PPT32,001,2022-07-05_14h28.29.768,ABstudy,2022.1.4,59.93971262457014,
AB_Prac,Lag1_T1P_T2A,1,P,A,5,6,4,5,11,Webcam,Did you see the Webcam?,0.5,0.016,JPG\,pictureframe04,binder03b,straw,adjustablewrench01b,webcam,cane,hairdryer02a,icepack,kitchenscale01a,lifejacket,piggybank,blankImage,blankImage,blankImage,blankImage,blankImage,blankImage,webcam,,,,,,,,0,7,7,6,,,,,,,,,,,,,,,117.82320049998816,118.82920690003084,118.7958458000212,119.39129180001328,119.39129180001328,None,left,0.9390319000231102,124.8808366000303,None,124.8808366000303,None,125.83732290001353,None,right,0.7824806999997236,125.83732290001353,None,,,,,,,,,,,,,,,,,,,,,,,,,,,,,,,,,,,,,,,,,,,,,,,PPT32,001,2022-07-05_14h28.29.768,ABstudy,2022.1.4,59.93971262457014,
AB_Prac,Lag5_T1P_T2P,5,P,P,5,10,4,5,15,Vulture,Did you see the Vulture?,0.5,0.016,JPG\,shorts01,toast,ramekin01,bib,vulture,cracker02,date,glasses01a,hat03b,stapler01,measuringtape01,nail,pill,drum01,starfish01,blankImage,blankImage,vulture,,,,,,,,0,8,8,3,,,,,,,,,,,,,,,126.64843380003003,127.65447710000444,127.63793299999088,128.24407110002358,128.24407110002358,None,left,0.9416209000046365,135.7335560999927,None,135.7335560999927,None,136.6996516000363,None,left,0.41523500002222136,136.6996516000363,None,,,,,,,,,,,,,,,,,,,,,,,,,,,,,,,,,,,,,,,,,,,,,,,PPT32,001,2022-07-05_14h28.29.768,ABstudy,2022.1.4,59.93971262457014,
AB_Prac,Lag5_T1P_T2A,5,P,A,6,11,5,5,16,bread,Did you see the bread?,0.5,0.016,JPG\,cleaver01,clipboard,dustpan,hikingshoe01,notebook03a,baguette01,playingcard,pliers02b,styrofoamcup,rollingpin01a,swimgoggles,wineglass01,fryingpan02a,safetypin,syringe01,thimble,blankImage,baguette01,,,,,,,,0,9,9,8,,,,,,,,,,,,,,,137.14926350000314,138.16472790000262,138.13131650001742,138.72654010000406,138.72654010000406,None,left,0.863892900000792,146.71543680003379,None,146.71543680003379,None,147.60779560002265,None,right,0.7076718999887817,147.60779560002265,None,,,,,,,,,,,,,,,,,,,,,,,,,,,,,,,,,,,,,,,,,,,,,,,PPT32,001,2022-07-05_14h28.29.768,ABstudy,2022.1.4,59.93971262457014,
AB_Prac,Lag1_T1P_T2P,1,P,P,8,9,7,5,14,Tennis racket,Did you see the Tennis racket?,0.5,0.016,JPG\,coconut,computermouse06,croissant01,deodorant02a,pillow01a,peanut01,boot02b,tennisracket,stapler03b,crayon,eggplant,marker01a,plant01,radish01,blankImage,blankImage,blankImage,tennisracket,,,,,,,,0,10,10,0,,,,,,,,,,,,,,,148.34992589999456,149.3593801999814,149.34268450003583,149.9564432000043,149.9564432000043,None,left,0.944722400046885,156.99481599999126,None,156.99481599999126,None,157.9679363000323,None,left,0.4035248000291176,157.9679363000323,None,,,,,,,,,,,,,,,,,,,,,,,,,,,,,,,,,,,,,,,,,,,,,,,PPT32,001,2022-07-05_14h28.29.768,ABstudy,2022.1.4,59.93971262457014,
AB_Prac,Lag5_T1A_T2P,5,A,P,6,11,5,3,14,dog,Did you see the dog?,0.5,0.016,JPG\,bucket01a,doorlock,cookiecutter,fireextinguisher01,gluestick,highlighter02b,sportbag,spraybottle01,suitcase,thread02,stapler05,walnut01c,icecubetray01a,vikingmask01b,blankImage,blankImage,blankImage,None,,,,,,,,0,11,11,9,,,,,,,,,,,,,,,158.40494899998885,159.4193938000244,159.38595030002762,160.0339969000197,160.0339969000197,None,right,1.0802295000175945,167.13937180000357,None,167.13937180000357,None,168.24519819999114,None,left,0.7503817999968305,168.24519819999114,None,,,,,,,,,,,,,,,,,,,,,,,,,,,,,,,,,,,,,,,,,,,,,,,PPT32,001,2022-07-05_14h28.29.768,ABstudy,2022.1.4,59.93971262457014,
,,,,,,,,,,,,,,,,,,,,,,,,,,,,,,,,,,,,,,,,,,,,,,,,,,,,,,,,,,,,,,,,,,,,,,,,,,,,169.0135549000115,None,space,6.173799799988046,169.0135549000115,None,,,,,,,,,,,,,,,,,,,,,,,,,,,,,,,,,,,,,,,,,PPT32,001,2022-07-05_14h28.29.768,ABstudy,2022.1.4,59.93971262457014,
AB,Lag5_T1P_T2P,5,P,P,5,10,4,3,13,Sushi,Did you see the Sushi?,0.12,0.016,JPG\,carrot01,greenolive,fork03c,chain01,makiroll,watermelon01,tableknife02,printer02,comb02a,stapler03b,orange,rice,fan,blankImage,blankImage,blankImage,blankImage,makiroll,,,,,,,,,,,,0,0,0,135,,,,,,,,,,,,,,,,,,,,,,,,,,,,,,,,,,,175.87095589999808,176.87011570000323,176.85339900001418,177.48440359998494,177.48440359998494,None,179.05691169999773,None,right,2.13008470000932,179.05691169999773,None,181.20808930002386,None,left,0.48296080000000075,181.20808930002386,None,,,,,,,,,,,,,,,,,,,,,,,PPT32,001,2022-07-05_14h28.29.768,ABstudy,2022.1.4,59.93971262457014,
AB,Lag1_T1P_T2A,1,P,A,7,8,6,4,12,bird,Did you see the bird?,0.12,0.016,JPG\,speaker04,sewingmachine01a,eraser,violin,globe,belt02a,tern,cymbal,cd,greenolive,alligator,pear01,blankImage,blankImage,blankImage,blankImage,blankImage,tern,,,,,,,,,,,,0,1,1,177,,,,,,,,,,,,,,,,,,,,,,,,,,,,,,,,,,,181.71132050000597,182.7259250000352,182.69256140000653,183.2812931999797,183.2812931999797,None,184.79850390000502,None,left,1.1174056999734603,184.79850390000502,None,185.94605750002665,None,left,0.498678200005088,185.94605750002665,None,,,,,,,,,,,,,,,,,,,,,,,PPT32,001,2022-07-05_14h28.29.768,ABstudy,2022.1.4,59.93971262457014,
AB,Lag5_T1P_T2P,5,P,P,6,11,5,5,16,sword,Did you see the sword?,0.12,0.016,JPG\,chain01,speaker04,avocado01,watermelon01,scarf,sword01,lamp04a,fork03c,toaster01,slipper03b,stapler03a,cucumber,teabag,ashtray01,computerkeyboard02,book01b,blankImage,sword01,,,,,,,,,,,,0,2,2,143,,,,,,,,,,,,,,,,,,,,,,,,,,,,,,,,,,,186.46722669998417,187.48083549999865,187.46428439999,188.03283059998648,188.03283059998648,None,189.9749576000031,None,left,0.9642680999822915,189.9749576000031,None,190.9678566000075,None,left,0.427392499987036,190.9678566000075,None,,,,,,,,,,,,,,,,,,,,,,,PPT32,001,2022-07-05_14h28.29.768,ABstudy,2022.1.4,59.93971262457014,
AB,Lag5_T1P_T2A,5,P,A,5,10,4,3,13,fan,Did you see the fan?,0.12,0.016,JPG\,scissors01,grape01,mushroom01,toiletpaper01a,fanheater,pizza,cigarette,ashtray01,carrot01,pineapple01a,foosballtable,lipstick02a,teabag,blankImage,blankImage,blankImage,blankImage,fanheater,,,,,,,,,,,,0,3,3,220,,,,,,,,,,,,,,,,,,,,,,,,,,,,,,,,,,,191.4216224999982,192.43575010000495,192.40233499999158,192.9901436000364,192.9901436000364,None,194.55153230001451,None,left,0.963810499990359,194.55153230001451,None,195.53941860003397,None,right,0.6559836000087671,195.53941860003397,None,,,,,,,,,,,,,,,,,,,,,,,PPT32,001,2022-07-05_14h28.29.768,ABstudy,2022.1.4,59.93971262457014,
AB,Lag1_T1P_T2P,1,P,P,7,8,6,3,11,compass,Did you see the compass?,0.12,0.016,JPG\,brick,plate01b,pen04b,toaster01,screwdriver04b,candle01,magneticcompass,stapler03a,pig,ring01,orange,blankImage,blankImage,blankImage,blankImage,blankImage,blankImage,magneticcompass,,,,,,,,,,,,0,4,4,66,,,,,,,,,,,,,,,,,,,,,,,,,,,,,,,,,,,196.22511250001844,197.2240420000162,197.2076628000359,197.7885871999897,197.7885871999897,None,199.1937210999895,None,right,2.4736101999878883,199.1937210999895,None,201.69527800002834,None,left,0.5332951999735087,201.69527800002834,None,,,,,,,,,,,,,,,,,,,,,,,PPT32,001,2022-07-05_14h28.29.768,ABstudy,2022.1.4,59.93971262457014,
AB,Lag5_T1P_T2A,5,P,A,8,13,7,4,17,Tarantula,Did you see the Tarantula?,0.12,0.016,JPG\,binoculars01b,speaker04,sandal,envelope03a,plate01b,comb02a,battery02b,tarantula,measuringcup01,key01,medal02b,lamp04a,tennisball01b,pizza,cigarette,sunglasses04,blankImage,tarantula,,,,,,,,,,,,0,5,5,201,,,,,,,,,,,,,,,,,,,,,,,,,,,,,,,,,,,202.29358980001416,203.29666500003077,203.27982460003113,203.87478660000488,203.87478660000488,None,205.80089830001816,None,left,0.9858123000012711,205.80089830001816,None,206.81685679999646,None,right,0.5299839999643154,206.81685679999646,None,,,,,,,,,,,,,,,,,,,,,,,PPT32,001,2022-07-05_14h28.29.768,ABstudy,2022.1.4,59.93971262457014,
AB,Lag5_T1P_T2P,5,P,P,7,12,6,5,17,flower,Did you see the flower?,0.12,0.016,JPG\,leaf02a,pear01,measuringcup01,cigarette,fan,lemon02,lily,tableknife02,ring01,pencil01,cellphone,stapler01,carrot01,binoculars01b,sock01a,book01b,blankImage,lily,,,,,,,,,,,,0,6,6,134,,,,,,,,,,,,,,,,,,,,,,,,,,,,,,,,,,,207.3694401999819,208.38485129998298,208.35154370003147,208.93421460001264,208.93421460001264,None,210.94819690001896,None,left,0.9669561999617144,210.94819690001896,None,211.9390847000177,None,left,0.39295029995264485,211.9390847000177,None,,,,,,,,,,,,,,,,,,,,,,,PPT32,001,2022-07-05_14h28.29.768,ABstudy,2022.1.4,59.93971262457014,
AB,Lag1_T1P_T2P,1,P,P,7,8,6,3,11,Daddy Long Legs,Did you see the Daddy Long Legs?,0.12,0.016,JPG\,lighter01,hammer01,spoon01,chain01,cymbal,sponge01,daddylonglegs,stapler03b,pig,watermelon01,cauliflower01,blankImage,blankImage,blankImage,blankImage,blankImage,blankImage,daddylonglegs,,,,,,,,,,,,0,7,7,86,,,,,,,,,,,,,,,,,,,,,,,,,,,,,,,,,,,212.37244860001374,213.37343269999838,213.35680539999157,214.02218179998454,214.02218179998454,None,215.25578060001135,None,left,1.075500299979467,215.25578060001135,None,216.35981080000056,None,left,0.4272738000145182,216.35981080000056,None,,,,,,,,,,,,,,,,,,,,,,,PPT32,001,2022-07-05_14h28.29.768,ABstudy,2022.1.4,59.93971262457014,
AB,Lag5_T1P_T2P,5,P,P,6,11,5,5,16,table,Did you see the table?,0.12,0.016,JPG\,birthdaycandle,mushroom01,strawberry,match,cherry01,table01,hammer01,thermometer02b,sock01a,ring01,stapler06,banana01,toiletpaper01a,key01,sponge01,teabag,blankImage,table01,,,,,,,,,,,,0,8,8,144,,,,,,,,,,,,,,,,,,,,,,,,,,,,,,,,,,,216.85054690000834,217.86108280002372,217.84440290002385,218.34784130001208,218.34784130001208,None,220.36243229999673,None,left,0.8252091000322253,220.36243229999673,None,221.21423410001444,None,right,0.5253554999944754,221.21423410001444,None,,,,,,,,,,,,,,,,,,,,,,,PPT32,001,2022-07-05_14h28.29.768,ABstudy,2022.1.4,59.93971262457014,
AB,Lag5_T1P_T2P,5,P,P,5,10,4,3,13,lollipop,Did you see the lollipop?,0.12,0.016,JPG\,brownsugar,candle01,match,printer02,lollipop04,balloon01b,belt02a,potato02b,computerkeyboard02,stapler03a,rice,mushroom01,pencil01,blankImage,blankImage,blankImage,blankImage,lollipop04,,,,,,,,,,,,0,9,9,112,,,,,,,,,,,,,,,,,,,,,,,,,,,,,,,,,,,221.76906180003425,222.78317190002417,222.76754219998838,223.2806560000172,223.25560770003358,None,224.9241699000122,None,left,0.8304444000241347,224.9241699000122,None,225.78547609999077,None,left,0.35315670003183186,225.78547609999077,None,,,,,,,,,,,,,,,,,,,,,,,PPT32,001,2022-07-05_14h28.29.768,ABstudy,2022.1.4,59.93971262457014,
AB,Lag1_T1P_T2P,1,P,P,5,6,4,3,9,mail box,Did you see the mail box?,0.12,0.016,JPG\,watermelon01,banana01,ring01,pencil01,mailbox02,stapler04b,cucumber,thermometer02b,key01,blankImage,blankImage,blankImage,blankImage,blankImage,blankImage,blankImage,blankImage,mailbox02,,,,,,,,,,,,0,10,10,21,,,,,,,,,,,,,,,,,,,,,,,,,,,,,,,,,,,226.17316310002934,227.18722820002586,227.170544099994,227.78303669998422,227.78303669998422,None,228.8315353000071,None,left,1.1475953999906778,228.8315353000071,None,230.0063101000269,None,right,1.068407200044021,230.0063101000269,None,,,,,,,,,,,,,,,,,,,,,,,PPT32,001,2022-07-05_14h28.29.768,ABstudy,2022.1.4,59.93971262457014,
AB,Lag5_T1A_T2P,5,A,P,5,10,4,3,13,flower,Did you see the flower?,0.12,0.016,JPG\,cucumber,ring01,lipstick02a,microscope,violin,garlic01a,celery,lighter01,cherry01,stapler03a,belt02a,key01,binoculars01b,blankImage,blankImage,blankImage,blankImage,christmastree,,,,,,,,,,,,0,11,11,284,,,,,,,,,,,,,,,,,,,,,,,,,,,,,,,,,,,231.10763420001604,232.10843289998593,232.09248799999477,232.65154240000993,232.65154240000993,None,234.2888924999861,None,right,1.339092000038363,234.2888924999861,None,235.64599180000369,None,left,0.332672199991066,235.64599180000369,None,,,,,,,,,,,,,,,,,,,,,,,PPT32,001,2022-07-05_14h28.29.768,ABstudy,2022.1.4,59.93971262457014,
AB,Lag1_T1P_T2P,1,P,P,8,9,7,3,12,Fire hydrant,Did you see the Fire hydrant?,0.12,0.016,JPG\,foosballtable,candy,envelope03a,microscope,pencil01,leaf02a,scissors01,firehydrant,stapler01,dandelion,pineapple01a,hammer01,blankImage,blankImage,blankImage,blankImage,blankImage,firehydrant,,,,,,,,,,,,0,12,12,83,,,,,,,,,,,,,,,,,,,,,,,,,,,,,,,,,,,235.9978254000307,237.0134912999929,236.9799714999972,237.48245200002566,237.48245200002566,None,239.00624030001927,None,left,1.1737391999922693,239.00624030001927,None,240.19997100002365,None,left,0.3874939000234008,240.19997100002365,None,,,,,,,,,,,,,,,,,,,,,,,PPT32,001,2022-07-05_14h28.29.768,ABstudy,2022.1.4,59.93971262457014,
AB,Lag5_T1P_T2A,5,P,A,7,12,6,5,17,flower,Did you see the flower?,0.12,0.016,JPG\,cellphone,tomato01,comb02a,candy,celery,cucumber,craneflower,fan,feather03a,pen04b,lemon02,blueberry01,plate01b,cherry01,baseball01a,candle08b,blankImage,craneflower,,,,,,,,,,,,0,13,13,211,,,,,,,,,,,,,,,,,,,,,,,,,,,,,,,,,,,240.61810239998158,241.61825410003075,241.6015509000281,242.23450570000568,242.23450570000568,None,244.1380447000265,None,left,1.7862336999969557,244.1380447000265,None,245.95556189998752,None,right,0.45569650002289563,245.95556189998752,None,,,,,,,,,,,,,,,,,,,,,,,PPT32,001,2022-07-05_14h28.29.768,ABstudy,2022.1.4,59.93971262457014,
AB,Lag5_T1P_T2P,5,P,P,5,10,4,5,15,mouse,Did you see the mouse?,0.12,0.016,JPG\,pineapple01a,leaf02a,grape01,toiletpaper01a,mouse,tennisball01b,spoon01,chain01,pig,stapler03a,ring01,lemon02,dice05a,pizza,potato02b,blankImage,blankImage,mouse,,,,,,,,,,,,0,14,14,94,,,,,,,,,,,,,,,,,,,,,,,,,,,,,,,,,,,246.4421139000333,247.45700330002,247.42367490002653,248.00660259998403,248.00660259998403,None,249.83489350002492,None,left,0.8244346000137739,249.83489350002492,None,250.67898030002834,None,left,0.3320732000283897,250.67898030002834,None,,,,,,,,,,,,,,,,,,,,,,,PPT32,001,2022-07-05_14h28.29.768,ABstudy,2022.1.4,59.93971262457014,
AB,Lag1_T1P_T2P,1,P,P,8,9,7,5,14,giraffe,Did you see the giraffe?,0.12,0.016,JPG\,pencil01,foosballtable,banana01,lipstick02a,toaster01,grape01,key01,giraffe,stapler03b,pineapple01a,strawberry,teabag,dandelion,paintbrush01,blankImage,blankImage,blankImage,giraffe,,,,,,,,,,,,0,15,15,0,,,,,,,,,,,,,,,,,,,,,,,,,,,,,,,,,,,251.03166959999362,252.04550110001583,252.02978630003054,252.59827499999665,252.59827499999665,None,254.2963343000156,None,right,1.138646700012032,254.2963343000156,None,255.46525030001067,None,left,0.514172499999404,255.46525030001067,None,,,,,,,,,,,,,,,,,,,,,,,PPT32,001,2022-07-05_14h28.29.768,ABstudy,2022.1.4,59.93971262457014,
AB,Lag1_T1A_T2P,1,A,P,5,6,4,3,9,barrel,Did you see the barrel?,0.12,0.016,JPG\,clock01a,cellphone,toaster01,toothbrush03b,cauliflower01,stapler01,comb02a,paintbrush01,scarf,blankImage,blankImage,blankImage,blankImage,blankImage,blankImage,blankImage,blankImage,sheep,,,,,,,,,,,,0,16,16,243,,,,,,,,,,,,,,,,,,,,,,,,,,,,,,,,,,,256.0014008000144,257.01681400003145,256.98352260002866,257.5681669000187,257.5681669000187,None,258.6983440000331,None,right,1.2885812999447808,258.6983440000331,None,260.01957740000216,None,left,0.4150969999609515,260.01957740000216,None,,,,,,,,,,,,,,,,,,,,,,,PPT32,001,2022-07-05_14h28.29.768,ABstudy,2022.1.4,59.93971262457014,
AB,Lag5_T1A_T2A,5,A,A,5,10,4,5,15,window,Did you see the window?,0.12,0.016,JPG\,leaf02a,apple07,cd,pineapple01a,envelope03a,paintbrush01,pig,canoftennisballs,rice,feather03a,lemon02,balloon01b,avocado01,calculator01,watermelon01,blankImage,blankImage,saxophone,,,,,,,,,,,,0,17,17,301,,,,,,,,,,,,,,,,,,,,,,,,,,,,,,,,,,,260.45558120001806,261.47105460002786,261.4376526999986,262.0213618000271,262.0213618000271,None,263.849132000003,None,right,1.3773357999743894,263.849132000003,None,265.25837920000777,None,right,0.6490273000090383,265.25837920000777,None,,,,,,,,,,,,,,,,,,,,,,,PPT32,001,2022-07-05_14h28.29.768,ABstudy,2022.1.4,59.93971262457014,
AB,Lag1_T1P_T2P,1,P,P,8,9,7,3,12,zebra,Did you see the zebra?,0.12,0.016,JPG\,apple07,toiletpaper01a,pizza,dandelion,greenolive,eraser,microscope,zebra,stapler03b,lipstick02a,balloon01b,sandal,blankImage,blankImage,blankImage,blankImage,blankImage,zebra,,,,,,,,,,,,0,18,18,28,,,,,,,,,,,,,,,,,,,,,,,,,,,,,,,,,,,265.92927419999614,266.94302810000954,266.9267690000124,267.512732000032,267.512732000032,None,268.9680546000018,None,left,0.8026416000211611,268.9680546000018,None,269.7963808000204,None,left,0.3746183000039309,269.7963808000204,None,,,,,,,,,,,,,,,,,,,,,,,PPT32,001,2022-07-05_14h28.29.768,ABstudy,2022.1.4,59.93971262457014,
AB,Lag5_T1P_T2A,5,P,A,5,10,4,3,13,martini glass,Did you see the martini glass?,0.12,0.016,JPG\,brick,eraser,cucumber,ashtray01,martiniglass01b,binoculars01b,lipstick02a,screwdriver04b,grape01,brownsugar,battery02b,iron01b,dice05a,blankImage,blankImage,blankImage,blankImage,martiniglass01b,,,,,,,,,,,,0,19,19,217,,,,,,,,,,,,,,,,,,,,,,,,,,,,,,,,,,,270.24360440002056,271.2475496000261,271.2308123999974,271.81962730002124,271.81962730002124,None,273.39479890000075,None,left,0.8717291000066325,273.39479890000075,None,274.2837336999946,None,right,0.4866784000187181,274.2837336999946,None,,,,,,,,,,,,,,,,,,,,,,,PPT32,001,2022-07-05_14h28.29.768,ABstudy,2022.1.4,59.93971262457014,
AB,Lag1_T1A_T2A,1,A,A,8,9,7,3,12,punching bag,Did you see the punching bag?,0.12,0.016,JPG\,key01,apple07,ring01,leaf02a,hammer01,tableknife02,violin,sponge01,baseball01a,thermometer02b,celery,calculator01,blankImage,blankImage,blankImage,blankImage,blankImage,bathtub,,,,,,,,,,,,0,20,20,291,,,,,,,,,,,,,,,,,,,,,,,,,,,,,,,,,,,274.8036653000163,275.8185742000351,275.7852397999959,276.39413289999356,276.39413289999356,None,277.8245595000335,None,right,1.018228699977044,277.8245595000335,None,278.8725470000063,None,right,0.5302598999696784,278.8725470000063,None,,,,,,,,,,,,,,,,,,,,,,,PPT32,001,2022-07-05_14h28.29.768,ABstudy,2022.1.4,59.93971262457014,
AB,Lag1_T1P_T2P,1,P,P,7,8,6,4,12,Christmas Tree,Did you see the Christmas Tree?,0.12,0.016,JPG\,sandal,fan,printer02,cellphone,mushroom01,candle08b,firtree,stapler03a,lamp04a,hammer01,teabag,aceofdiamond,blankImage,blankImage,blankImage,blankImage,blankImage,firtree,,,,,,,,,,,,0,21,21,6,,,,,,,,,,,,,,,,,,,,,,,,,,,,,,,,,,,279.4968748000101,280.5066099999822,280.48982170003,281.0701967999921,281.0701967999921,None,282.50960980000673,None,left,1.0288091000402346,282.50960980000673,None,283.56004559999565,None,right,0.307604200032074,283.56004559999565,None,,,,,,,,,,,,,,,,,,,,,,,PPT32,001,2022-07-05_14h28.29.768,ABstudy,2022.1.4,59.93971262457014,
AB,Lag1_T1A_T2P,1,A,P,8,9,7,3,12,seal,Did you see the seal?,0.12,0.016,JPG\,dice05a,watch02a,pig,lighter01,button01,strawberry,paintbrush01,microscope,stapler03a,pen04b,feather03a,8ball,blankImage,blankImage,blankImage,blankImage,blankImage,hockeystick,,,,,,,,,,,,0,22,22,235,,,,,,,,,,,,,,,,,,,,,,,,,,,,,,,,,,,283.89651270001195,284.911194299988,284.87777810002444,285.464917699981,285.464917699981,None,286.9365340000368,None,right,1.0745323000010103,286.9365340000368,None,288.0311492999899,None,left,0.3879608999704942,288.0311492999899,None,,,,,,,,,,,,,,,,,,,,,,,PPT32,001,2022-07-05_14h28.29.768,ABstudy,2022.1.4,59.93971262457014,
AB,Lag5_T1P_T2P,5,P,P,7,12,6,3,15,lips,Did you see the lips?,0.12,0.016,JPG\,cigarette,fork03c,greenolive,broccoli01a,avocado01,tennisball01b,lip,leaf02a,pig,fan,clock01a,stapler03a,envelope03a,birthdaycandle,teabag,blankImage,blankImage,lip,,,,,,,,,,,,0,23,23,95,,,,,,,,,,,,,,,,,,,,,,,,,,,,,,,,,,,288.45277530001476,289.4657376999967,289.44910760002676,290.0230486000073,290.0230486000073,None,291.87695250002434,None,left,0.7344263999839313,291.87695250002434,None,292.63533060002374,None,left,0.3352603999665007,292.63533060002374,None,,,,,,,,,,,,,,,,,,,,,,,PPT32,001,2022-07-05_14h28.29.768,ABstudy,2022.1.4,59.93971262457014,
AB,Lag5_T1P_T2A,5,P,A,8,13,7,4,17,Drum set,Did you see the Drum set?,0.12,0.016,JPG\,pencil01,microscope,banana01,computerkeyboard02,celery,cellphone,scissors01,drumset,book01b,onion,dice05a,binoculars01b,baseball01a,iron01b,screw02,fork03c,blankImage,drumset,,,,,,,,,,,,0,24,24,212,,,,,,,,,,,,,,,,,,,,,,,,,,,,,,,,,,,293.0060999999987,294.0201812000014,294.00351409998257,294.5760687000002,294.5760687000002,None,296.5968367999885,None,left,0.9740402000024915,296.5968367999885,None,297.60465589998057,None,right,1.2632868999498896,297.60465589998057,None,,,,,,,,,,,,,,,,,,,,,,,PPT32,001,2022-07-05_14h28.29.768,ABstudy,2022.1.4,59.93971262457014,
AB,Lag5_T1A_T2A,5,A,A,7,12,6,4,16,boxing glove,Did you see the boxing glove?,0.12,0.016,JPG\,cherry01,cymbal,envelope03a,foosballtable,shirt02,cellphone,sewingmachine01a,candle08b,battery02b,apple07,pencil01,screwdriver04b,strawberry,sunglasses04,feather03a,rice,blankImage,lollipop04,,,,,,,,,,,,0,25,25,296,,,,,,,,,,,,,,,,,,,,,,,,,,,,,,,,,,,298.8960882999818,299.9092762999935,299.8926109999884,300.48691139998846,300.48691139998846,None,302.39009549998445,None,right,1.0207381999935023,302.39009549998445,None,303.4293936000322,None,left,0.3734820000245236,303.4293936000322,None,,,,,,,,,,,,,,,,,,,,,,,PPT32,001,2022-07-05_14h28.29.768,ABstudy,2022.1.4,59.93971262457014,
AB,Lag5_T1P_T2A,5,P,A,5,10,4,4,14,rocket,Did you see the rocket?,0.12,0.016,JPG\,fan,tomato01,candy,screwdriver04b,spacerocket,cd,thermometer02b,apple07,button01,plate01b,brownsugar,lighter01,clock01a,envelope03a,blankImage,blankImage,blankImage,spacerocket,,,,,,,,,,,,0,26,26,226,,,,,,,,,,,,,,,,,,,,,,,,,,,,,,,,,,,303.83352370001376,304.84755830001086,304.81415669998387,305.40442949999124,305.40442949999124,None,307.15691120002884,None,left,0.9582594999810681,307.15691120002884,None,308.1341339999926,None,right,0.42882319999625906,308.1341339999926,None,,,,,,,,,,,,,,,,,,,,,,,PPT32,001,2022-07-05_14h28.29.768,ABstudy,2022.1.4,59.93971262457014,
AB,Lag1_T1P_T2A,1,P,A,7,8,6,4,12,gate,Did you see the gate?,0.12,0.016,JPG\,pen04b,speaker04,lighter01,cherry01,pintofbeer,onion,entrancegate,toothbrush03b,broom01,sewingmachine01a,book01b,iron01b,blankImage,blankImage,blankImage,blankImage,blankImage,entrancegate,,,,,,,,,,,,0,27,27,187,,,,,,,,,,,,,,,,,,,,,,,,,,,,,,,,,,,308.5867928999942,309.60222940001404,309.56887900002766,310.13733669999056,310.13733669999056,None,311.65550809999695,None,left,0.915714000002481,311.65550809999695,None,312.5889750000206,None,left,0.3660377999767661,312.5889750000206,None,,,,,,,,,,,,,,,,,,,,,,,PPT32,001,2022-07-05_14h28.29.768,ABstudy,2022.1.4,59.93971262457014,
AB,Lag1_T1P_T2P,1,P,P,7,8,6,3,11,swing,Did you see the swing?,0.12,0.016,JPG\,sewingmachine01a,thermometer02b,sponge01,eraser,broccoli01a,fork03c,swing,stapler03b,belt02a,medal02b,pineapple01a,blankImage,blankImage,blankImage,blankImage,blankImage,blankImage,swing,,,,,,,,,,,,0,28,28,30,,,,,,,,,,,,,,,,,,,,,,,,,,,,,,,,,,,312.97608940000646,313.99012889998266,313.9733634000295,314.6621003000182,314.57038739998825,None,315.94553750002524,None,left,0.801578399958089,315.94553750002524,None,316.7784963999875,None,left,0.24912359996233135,316.7784963999875,None,,,,,,,,,,,,,,,,,,,,,,,PPT32,001,2022-07-05_14h28.29.768,ABstudy,2022.1.4,59.93971262457014,
AB,Lag1_T1P_T2P,1,P,P,5,6,4,5,11,owl,Did you see the owl?,0.12,0.016,JPG\,cellphone,tomato01,comb02a,candy,barnowl,stapler03a,toaster01,fan,feather03a,pen04b,lemon02,blankImage,blankImage,blankImage,blankImage,blankImage,blankImage,barnowl,,,,,,,,,,,,0,29,29,33,,,,,,,,,,,,,,,,,,,,,,,,,,,,,,,,,,,317.06192930002,318.07730649999576,318.04396400001133,318.63333710003644,318.63333710003644,None,319.9920229000272,None,left,0.8507608000072651,319.9920229000272,None,320.8638585000299,None,left,0.25082009995821863,320.8638585000299,None,,,,,,,,,,,,,,,,,,,,,,,PPT32,001,2022-07-05_14h28.29.768,ABstudy,2022.1.4,59.93971262457014,
AB,Lag5_T1P_T2A,5,P,A,6,11,5,3,14,Balcony,Did you see the Balcony?,0.12,0.016,JPG\,tomato01,pen04b,shirt02,carrot01,lamp04a,balcony02,pizza,avocado01,sewingmachine01a,apple07,iron01b,book01b,chain01,sock01a,blankImage,blankImage,blankImage,balcony02,,,,,,,,,,,,0,30,30,207,,,,,,,,,,,,,,,,,,,,,,,,,,,,,,,,,,,321.1545368999941,322.16510300000664,322.1484461000073,322.74175270000705,322.74175270000705,None,324.5349653000012,None,left,0.7881077000056393,324.5349653000012,None,325.35121330001857,None,right,0.3080780999734998,325.35121330001857,None,,,,,,,,,,,,,,,,,,,,,,,PPT32,001,2022-07-05_14h28.29.768,ABstudy,2022.1.4,59.93971262457014,
AB,Lag1_T1P_T2A,1,P,A,7,8,6,3,11,walkie talkie,Did you see the walkie talkie?,0.12,0.016,JPG\,teabag,envelope03a,cellphone,apple07,cauliflower01,orange,walkietalkie,book01b,hammer01,feather03a,toaster01,blankImage,blankImage,blankImage,blankImage,blankImage,blankImage,walkietalkie,,,,,,,,,,,,0,31,31,197,,,,,,,,,,,,,,,,,,,,,,,,,,,,,,,,,,,325.6890306000132,326.70267289999174,326.6859746000264,327.26344479998806,327.26344479998806,None,328.6040323000052,None,left,1.6627450000378303,328.6040323000052,None,330.2898905000184,None,right,0.4655079999938607,330.2898905000184,None,,,,,,,,,,,,,,,,,,,,,,,PPT32,001,2022-07-05_14h28.29.768,ABstudy,2022.1.4,59.93971262457014,
AB,Lag1_T1P_T2P,1,P,P,6,7,5,4,11,Bow,Did you see the Bow?,0.12,0.016,JPG\,broom01,plate01b,scissors01,garlic01a,paintbrush01,bow,stapler03a,shirt02,speaker04,celery,sandal,blankImage,blankImage,blankImage,blankImage,blankImage,blankImage,bow,,,,,,,,,,,,0,32,32,53,,,,,,,,,,,,,,,,,,,,,,,,,,,,,,,,,,,330.7787672000122,331.79130500002066,331.7747597999987,332.342858900025,332.342858900025,None,333.7401642000186,None,left,0.7266791999572888,333.7401642000186,None,334.4940462000086,None,left,0.32615350000560284,334.4940462000086,None,,,,,,,,,,,,,,,,,,,,,,,PPT32,001,2022-07-05_14h28.29.768,ABstudy,2022.1.4,59.93971262457014,
AB,Lag1_T1P_T2A,1,P,A,8,9,7,5,14,Ceiling fan,Did you see the Ceiling fan?,0.12,0.016,JPG\,cucumber,sponge01,alligator,pear01,ashtray01,hammer01,clock04,ceilingfan01,fork03c,binoculars01b,mushroom01,broccoli01a,leaf02a,acorn,blankImage,blankImage,blankImage,ceilingfan01,,,,,,,,,,,,0,33,33,183,,,,,,,,,,,,,,,,,,,,,,,,,,,,,,,,,,,334.8511229000287,335.8625816000276,335.8470504999859,336.4401323000202,336.4401323000202,None,338.0424673000234,None,right,2.768109299999196,338.0424673000234,None,340.83374309999635,None,right,0.448530999943614,340.83374309999635,None,,,,,,,,,,,,,,,,,,,,,,,PPT32,001,2022-07-05_14h28.29.768,ABstudy,2022.1.4,59.93971262457014,
AB,Lag1_T1P_T2P,1,P,P,6,7,5,3,10,windmill,Did you see the windmill?,0.12,0.016,JPG\,pizza,printer02,medal02b,spoon01,grape01,windmill,stapler04b,watermelon01,celery,battery02b,blankImage,blankImage,blankImage,blankImage,blankImage,blankImage,blankImage,windmill,,,,,,,,,,,,0,34,34,75,,,,,,,,,,,,,,,,,,,,,,,,,,,,,,,,,,,341.30326100002276,342.3184154999908,342.2850900000194,342.8768863999867,342.8768863999867,None,344.1387334000319,None,left,0.7436231999890879,344.1387334000319,None,344.90368180000223,None,left,0.3630204999935813,344.90368180000223,None,,,,,,,,,,,,,,,,,,,,,,,PPT32,001,2022-07-05_14h28.29.768,ABstudy,2022.1.4,59.93971262457014,
AB,Lag1_T1P_T2P,1,P,P,8,9,7,4,13,Doughnut,Did you see the Doughnut?,0.12,0.016,JPG\,brick,eraser,cucumber,ashtray01,thermometer02b,binoculars01b,lipstick02a,donut,stapler01,brownsugar,battery02b,iron01b,dice05a,blankImage,blankImage,blankImage,blankImage,donut,,,,,,,,,,,,0,35,35,39,,,,,,,,,,,,,,,,,,,,,,,,,,,,,,,,,,,345.29004480002914,346.30548740003724,346.2720799000235,346.859098099987,346.859098099987,None,348.45943679998163,None,left,0.8079346000449732,348.45943679998163,None,349.2916742999805,None,left,0.23059709998779,349.2916742999805,None,,,,,,,,,,,,,,,,,,,,,,,PPT32,001,2022-07-05_14h28.29.768,ABstudy,2022.1.4,59.93971262457014,
AB,Lag5_T1P_T2A,5,P,A,8,13,7,3,16,Shelves,Did you see the Shelves?,0.12,0.016,JPG\,pineapple01a,leaf02a,grape01,toiletpaper01a,match,tennisball01b,spoon01,shelves,pig,measuringcup01,ring01,lemon02,dice05a,pizza,potato02b,eraser,blankImage,shelves,,,,,,,,,,,,0,36,36,222,,,,,,,,,,,,,,,,,,,,,,,,,,,,,,,,,,,349.5455306000076,350.56002750003245,350.526586699998,351.10711959999753,351.10711959999753,None,353.09720150002977,None,left,0.8735354999662377,353.09720150002977,None,353.99697410000954,None,right,0.3739441999932751,353.99697410000954,None,,,,,,,,,,,,,,,,,,,,,,,PPT32,001,2022-07-05_14h28.29.768,ABstudy,2022.1.4,59.93971262457014,
AB,Lag5_T1P_T2A,5,P,A,5,10,4,4,14,Ship in a bottle,Did you see the Ship in a bottle?,0.12,0.016,JPG\,sewingmachine01a,thermometer02b,sponge01,eraser,shipinabottle,fork03c,pizza,violin,belt02a,medal02b,pineapple01a,tennisball01b,dandelion,cauliflower01,blankImage,blankImage,blankImage,shipinabottle,,,,,,,,,,,,0,37,37,208,,,,,,,,,,,,,,,,,,,,,,,,,,,,,,,,,,,354.40496740001254,355.4143276999821,355.39768599998206,355.9846889000037,355.9846889000037,None,357.7310227000271,None,right,1.3753765999572352,357.7310227000271,None,359.1353018999798,None,left,0.5398517000139691,359.1353018999798,None,,,,,,,,,,,,,,,,,,,,,,,PPT32,001,2022-07-05_14h28.29.768,ABstudy,2022.1.4,59.93971262457014,
AB,Lag5_T1A_T2P,5,A,P,5,10,4,4,14,mail box,Did you see the mail box?,0.12,0.016,JPG\,button01,celery,birthdaycandle,apple07,avocado01,tennisball01b,dice05a,teabag,clock01a,stapler05,tomato01,scarf,orange,battery02b,blankImage,blankImage,blankImage,jeep,,,,,,,,,,,,0,38,38,263,,,,,,,,,,,,,,,,,,,,,,,,,,,,,,,,,,,359.70873170002596,360.7199323999812,360.70331790001364,361.2992280999897,361.2992280999897,None,362.97353469999507,None,right,1.2606651000096463,362.97353469999507,None,364.2565822000033,None,left,0.6744116999907419,364.2565822000033,None,,,,,,,,,,,,,,,,,,,,,,,PPT32,001,2022-07-05_14h28.29.768,ABstudy,2022.1.4,59.93971262457014,
AB,Lag1_T1P_T2P,1,P,P,6,7,5,5,12,Snowboard,Did you see the Snowboard?,0.12,0.016,JPG\,belt02a,measuringcup01,spoon01,chain01,greenolive,snowboard,stapler01,onion,fan,strawberry,candle01,broom01,blankImage,blankImage,blankImage,blankImage,blankImage,snowboard,,,,,,,,,,,,0,39,39,49,,,,,,,,,,,,,,,,,,,,,,,,,,,,,,,,,,,364.9608450999949,365.975087800005,365.94166310003493,366.5299442000105,366.5299442000105,None,367.9729590000352,None,right,1.6133600999601185,367.9729590000352,None,369.61238700000104,None,left,0.45375670003704727,369.61238700000104,None,,,,,,,,,,,,,,,,,,,,,,,PPT32,001,2022-07-05_14h28.29.768,ABstudy,2022.1.4,59.93971262457014,
AB,Lag1_T1P_T2P,1,P,P,5,6,4,4,10,skateboard,Did you see the skateboard?,0.12,0.016,JPG\,binoculars01b,cymbal,pizza,candy,skateboard,stapler05,grape01,thermometer02b,speaker04,lemon02,blankImage,blankImage,blankImage,blankImage,blankImage,blankImage,blankImage,skateboard,,,,,,,,,,,,0,40,40,25,,,,,,,,,,,,,,,,,,,,,,,,,,,,,,,,,,,370.15665449999506,371.1638217000291,371.1469817000325,371.74266829999397,371.74266829999397,None,372.9240874000243,None,left,0.8306854999973439,372.9240874000243,None,373.7836843000259,None,left,0.2985786000499502,373.7836843000259,None,,,,,,,,,,,,,,,,,,,,,,,PPT32,001,2022-07-05_14h28.29.768,ABstudy,2022.1.4,59.93971262457014,
AB,Lag5_T1P_T2A,5,P,A,8,13,7,4,17,knife,Did you see the knife?,0.12,0.016,JPG\,lighter01,hammer01,spoon01,chain01,cymbal,sponge01,lipstick02a,knife03,pig,watermelon01,cauliflower01,lemon02,broccoli01a,tableknife02,tennisball01b,toothbrush03b,blankImage,knife03,,,,,,,,,,,,0,41,41,214,,,,,,,,,,,,,,,,,,,,,,,,,,,,,,,,,,,374.1051097000018,375.1172782999929,375.1006161000114,375.68201390001923,375.68201390001923,None,377.70889680000255,None,left,0.98952120001195,377.70889680000255,None,378.7210291000083,None,right,0.5942259000148624,378.7210291000083,None,,,,,,,,,,,,,,,,,,,,,,,PPT32,001,2022-07-05_14h28.29.768,ABstudy,2022.1.4,59.93971262457014,
AB,Lag5_T1P_T2P,5,P,P,8,13,7,5,18,pipe,Did you see the pipe?,0.12,0.016,JPG\,scissors01,ashtray01,garlic01a,medal02b,cigarette,candle08b,leaf02a,smokingpipe,cucumber,rice,toiletpaper01a,greenolive,stapler01,cellphone,tableknife02,spoon01,blankImage,smokingpipe,,,,,,,,,,,,0,42,42,138,,,,,,,,,,,,,,,,,,,,,,,,,,,,,,,,,,,379.3410753000062,380.3562338000047,380.32294650003314,380.89128720003646,380.89128720003646,None,382.88740970002254,None,left,0.7244881999795325,382.88740970002254,None,383.6426649999921,None,left,0.3848750999895856,383.6426649999921,None,,,,,,,,,,,,,,,,,,,,,,,PPT32,001,2022-07-05_14h28.29.768,ABstudy,2022.1.4,59.93971262457014,
AB,Lag5_T1P_T2P,5,P,P,5,10,4,3,13,rose,Did you see the rose?,0.12,0.016,JPG\,lipstick02a,cucumber,candle08b,printer02,rose,violin,paintbrush01,lighter01,belt02a,stapler03b,thermometer02b,microscope,cigarette,blankImage,blankImage,blankImage,blankImage,rose,,,,,,,,,,,,0,43,43,158,,,,,,,,,,,,,,,,,,,,,,,,,,,,,,,,,,,384.0619600000209,385.07742550002877,385.0440490000183,385.61503059999086,385.61503059999086,None,387.26946049998514,None,left,0.6611382000264712,387.26946049998514,None,387.9639124000096,None,left,0.36680459999479353,387.9639124000096,None,,,,,,,,,,,,,,,,,,,,,,,PPT32,001,2022-07-05_14h28.29.768,ABstudy,2022.1.4,59.93971262457014,
AB,Lag5_T1P_T2P,5,P,P,7,12,6,5,17,Pigeon,Did you see the Pigeon?,0.12,0.016,JPG\,strawberry,leaf02a,clock04,candle01,avocado01,paintbrush01,pigeon,brownsugar,ring01,lemon02,fork03c,stapler01,cauliflower01,tableknife02,tennisball01b,thermometer02b,blankImage,pigeon,,,,,,,,,,,,0,44,44,151,,,,,,,,,,,,,,,,,,,,,,,,,,,,,,,,,,,388.3570242000278,389.36519829998724,389.34848330001114,389.93226790003246,389.93226790003246,None,391.89789070002735,None,left,0.8406345999683253,391.89789070002735,None,392.76800769998226,None,left,0.3707824000157416,392.76800769998226,None,,,,,,,,,,,,,,,,,,,,,,,PPT32,001,2022-07-05_14h28.29.768,ABstudy,2022.1.4,59.93971262457014,
AB,Lag5_T1P_T2P,5,P,P,6,11,5,3,14,shower head,Did you see the shower head?,0.12,0.016,JPG\,belt02a,measuringcup01,spoon01,chain01,greenolive,showerhead01,computerkeyboard02,onion,fan,strawberry,stapler01,broom01,binoculars01b,ashtray01,blankImage,blankImage,blankImage,showerhead01,,,,,,,,,,,,0,45,45,98,,,,,,,,,,,,,,,,,,,,,,,,,,,,,,,,,,,393.23279919999186,394.23666250001406,394.22008519998053,394.80964170000516,394.80964170000516,None,396.4338854000089,None,left,0.8578626000089571,396.4338854000089,None,397.3229316000361,None,left,0.32798750000074506,397.3229316000361,None,,,,,,,,,,,,,,,,,,,,,,,PPT32,001,2022-07-05_14h28.29.768,ABstudy,2022.1.4,59.93971262457014,
AB,Lag1_T1P_T2P,1,P,P,8,9,7,3,12,cactus,Did you see the cactus?,0.12,0.016,JPG\,tennisball01b,paintbrush01,medal02b,apple07,speaker04,iron01b,avocado01,cactus,stapler03b,toiletpaper01a,watermelon01,candle01,blankImage,blankImage,blankImage,blankImage,blankImage,cactus,,,,,,,,,,,,0,46,46,58,,,,,,,,,,,,,,,,,,,,,,,,,,,,,,,,,,,397.6757271999959,398.69098730001133,398.6575115000014,399.2455628000316,399.2455628000316,None,400.7273084000335,None,left,0.9395999000407755,400.7273084000335,None,401.69397399999434,None,right,0.5249422999913804,401.69397399999434,None,,,,,,,,,,,,,,,,,,,,,,,PPT32,001,2022-07-05_14h28.29.768,ABstudy,2022.1.4,59.93971262457014,
AB,Lag1_T1P_T2P,1,P,P,5,6,4,5,11,candy cane,Did you see the candy cane?,0.12,0.016,JPG\,shirt02,match,screw02,foosballtable,candycane01a,stapler04b,sewingmachine01a,watch02a,button01,comb02a,dice05a,blankImage,blankImage,blankImage,blankImage,blankImage,blankImage,candycane01a,,,,,,,,,,,,0,47,47,9,,,,,,,,,,,,,,,,,,,,,,,,,,,,,,,,,,,402.3034974000184,403.3124645000207,403.2790071000345,403.9124634999898,403.9124634999898,None,405.15822240000125,None,left,0.9407697999849916,405.15822240000125,None,406.13169370003743,None,left,0.26308080001035705,406.13169370003743,None,,,,,,,,,,,,,,,,,,,,,,,PPT32,001,2022-07-05_14h28.29.768,ABstudy,2022.1.4,59.93971262457014,
AB,Lag1_T1A_T2A,1,A,A,6,7,5,5,12,flamingo,Did you see the flamingo?,0.12,0.016,JPG\,chain01,pen04b,birthdaycandle,watermelon01,broom01,scissors01,measuringcup01,candle01,hammer01,calculator01,ashtray01,feather03a,blankImage,blankImage,blankImage,blankImage,blankImage,witchhat,,,,,,,,,,,,0,48,48,288,,,,,,,,,,,,,,,,,,,,,,,,,,,,,,,,,,,406.41781050001737,407.4330064000096,407.3996853000135,407.9893852000241,407.9893852000241,None,409.44446510000853,None,right,1.7498633000068367,409.44446510000853,None,411.2204715000116,None,right,0.3826717000338249,411.2204715000116,None,,,,,,,,,,,,,,,,,,,,,,,PPT32,001,2022-07-05_14h28.29.768,ABstudy,2022.1.4,59.93971262457014,
AB,Lag5_T1P_T2P,5,P,P,8,13,7,3,16,Chefs hat,Did you see the Chefs hat?,0.12,0.016,JPG\,rice,watermelon01,tableknife02,scarf,computerkeyboard02,cauliflower01,battery02b,chefshat,book01b,sandal,sponge01,microscope,stapler01,fork03c,thermometer02b,apple07,blankImage,chefshat,,,,,,,,,,,,0,49,49,128,,,,,,,,,,,,,,,,,,,,,,,,,,,,,,,,,,,411.6899507000344,412.70584200002486,412.69027570000617,413.29930850001983,413.29930850001983,None,415.19012079999084,None,left,0.916536399978213,415.19012079999084,None,416.12495770002715,None,left,0.30972329998621717,416.12495770002715,None,,,,,,,,,,,,,,,,,,,,,,,PPT32,001,2022-07-05_14h28.29.768,ABstudy,2022.1.4,59.93971262457014,
AB,Lag5_T1P_T2P,5,P,P,6,11,5,3,14,ladder,Did you see the ladder?,0.12,0.016,JPG\,celery,orange,scissors01,balloon01b,avocado01,stepladder,mushroom01,sewingmachine01a,lighter01,dice05a,stapler01,fan,cd,sock01a,blankImage,blankImage,blankImage,stepladder,,,,,,,,,,,,0,50,50,119,,,,,,,,,,,,,,,,,,,,,,,,,,,,,,,,,,,416.4612012000289,417.4762808000087,417.44291630003136,418.01706520002335,418.01706520002335,None,419.81480739999097,None,left,0.8751722000306472,419.81480739999097,None,420.7141110000084,None,left,0.4883786999853328,420.7141110000084,None,,,,,,,,,,,,,,,,,,,,,,,PPT32,001,2022-07-05_14h28.29.768,ABstudy,2022.1.4,59.93971262457014,
AB,Lag1_T1P_T2P,1,P,P,8,9,7,5,14,helicopter,Did you see the helicopter?,0.12,0.016,JPG\,broom01,globe,cellphone,tableknife02,cauliflower01,scissors01,ring01,helicopter,stapler01,toaster01,cigarette,grape01,microscope,cucumber,blankImage,blankImage,blankImage,helicopter,,,,,,,,,,,,0,51,51,85,,,,,,,,,,,,,,,,,,,,,,,,,,,,,,,,,,,421.2393922000192,422.24775260000024,422.2310542000341,422.8115155000123,422.8115155000123,None,424.5555985000101,None,left,0.7663732999935746,424.5555985000101,None,425.35124099999666,None,left,0.2996262999949977,425.35124099999666,None,,,,,,,,,,,,,,,,,,,,,,,PPT32,001,2022-07-05_14h28.29.768,ABstudy,2022.1.4,59.93971262457014,
AB,Lag5_T1P_T2P,5,P,P,6,11,5,4,15,shower,Did you see the shower?,0.12,0.016,JPG\,dice05a,watch02a,pig,lighter01,button01,shower,paintbrush01,microscope,plate01b,pen04b,stapler05,weight04a,carrot01,shirt02,globe,blankImage,blankImage,shower,,,,,,,,,,,,0,52,52,121,,,,,,,,,,,,,,,,,,,,,,,,,,,,,,,,,,,425.67230670002755,426.6853106000344,426.6687027000007,427.2535029000137,427.2535029000137,None,429.04710229998454,None,right,1.0121511000324972,429.04710229998454,None,430.0894031000207,None,left,0.5851163999759592,430.0894031000207,None,,,,,,,,,,,,,,,,,,,,,,,PPT32,001,2022-07-05_14h28.29.768,ABstudy,2022.1.4,59.93971262457014,
AB,Lag1_T1A_T2A,1,A,A,8,9,7,4,13,Recycling bin,Did you see the Recycling bin?,0.12,0.016,JPG\,brick,plate01b,pen04b,toaster01,screwdriver04b,candle01,envelope03a,feather03a,pig,ring01,orange,clock01a,lighter01,blankImage,blankImage,blankImage,blankImage,bumpercar,,,,,,,,,,,,0,53,53,292,,,,,,,,,,,,,,,,,,,,,,,,,,,,,,,,,,,430.7151602000231,431.7236277000047,431.70703089999733,432.2840592000284,432.2840592000284,None,433.8477370000328,None,right,1.6189205999835394,433.8477370000328,None,435.4974052000325,None,right,0.27321369998389855,435.4974052000325,None,,,,,,,,,,,,,,,,,,,,,,,PPT32,001,2022-07-05_14h28.29.768,ABstudy,2022.1.4,59.93971262457014,
AB,Lag1_T1P_T2A,1,P,A,7,8,6,3,11,Armadillo,Did you see the Armadillo?,0.12,0.016,JPG\,clock01a,cellphone,toaster01,toothbrush03b,cauliflower01,microscope,armadillo,paintbrush01,scarf,clock04,sponge01,blankImage,blankImage,blankImage,blankImage,blankImage,blankImage,armadillo,,,,,,,,,,,,0,54,54,180,,,,,,,,,,,,,,,,,,,,,,,,,,,,,,,,,,,435.8113511999836,436.8122863000026,436.7956046999898,437.37843470001826,437.37843470001826,None,438.73801000003004,None,left,0.9921453000279143,438.73801000003004,None,439.7488952000276,None,right,0.3810171000077389,439.7488952000276,None,,,,,,,,,,,,,,,,,,,,,,,PPT32,001,2022-07-05_14h28.29.768,ABstudy,2022.1.4,59.93971262457014,
AB,Lag5_T1P_T2A,5,P,A,8,13,7,5,18,Nunchuks,Did you see the Nunchuks?,0.12,0.016,JPG\,celery,tennisball01b,calculator01,pear01,screw02,orange,button01,nunchuk,onion,apple07,iron01b,brownsugar,banana01,paintbrush01,dandelion,toothbrush03b,blankImage,nunchuk,,,,,,,,,,,,0,55,55,218,,,,,,,,,,,,,,,,,,,,,,,,,,,,,,,,,,,440.15617560001556,441.1668598999968,441.1501510000089,441.7165594000253,441.7165594000253,None,443.7581075000344,None,left,0.8525077999802306,443.7581075000344,None,444.6366135000135,None,right,0.6376696999650449,444.6366135000135,None,,,,,,,,,,,,,,,,,,,,,,,PPT32,001,2022-07-05_14h28.29.768,ABstudy,2022.1.4,59.93971262457014,
AB,Lag5_T1P_T2P,5,P,P,5,10,4,3,13,bathtub,Did you see the bathtub?,0.12,0.016,JPG\,belt02a,sunglasses04,computerkeyboard02,cherry01,bathtub,eraser,watch02a,dice05a,blueberry01,stapler04b,match,leaf02a,iron01b,blankImage,blankImage,blankImage,blankImage,bathtub,,,,,,,,,,,,0,56,56,103,,,,,,,,,,,,,,,,,,,,,,,,,,,,,,,,,,,445.30746640003053,446.3218276000116,446.2886421000003,446.9189635000075,446.9189635000075,None,448.43332200002624,None,left,1.1846722000045702,448.43332200002624,None,449.6420455999905,None,left,0.25625530001707375,449.6420455999905,None,,,,,,,,,,,,,,,,,,,,,,,PPT32,001,2022-07-05_14h28.29.768,ABstudy,2022.1.4,59.93971262457014,
AB,Lag1_T1A_T2P,1,A,P,5,6,4,3,9,chimney,Did you see the chimney?,0.12,0.016,JPG\,cucumber,sponge01,alligator,pear01,ashtray01,stapler06,clock04,battery02b,fork03c,blankImage,blankImage,blankImage,blankImage,blankImage,blankImage,blankImage,blankImage,trophy01,,,,,,,,,,,,0,57,57,246,,,,,,,,,,,,,,,,,,,,,,,,,,,,,,,,,,,449.92931510001654,450.9432044000132,450.9263932000031,451.55031210003654,451.55031210003654,None,452.6145224000211,None,right,1.3553775000036694,452.6145224000211,None,453.9963149999967,None,right,0.614415000018198,453.9963149999967,None,,,,,,,,,,,,,,,,,,,,,,,PPT32,001,2022-07-05_14h28.29.768,ABstudy,2022.1.4,59.93971262457014,
AB,Lag1_T1P_T2P,1,P,P,5,6,4,3,9,Pumpkin,Did you see the Pumpkin?,0.12,0.016,JPG\,binoculars01b,speaker04,sandal,envelope03a,pumpkin,stapler03b,battery02b,chain01,measuringcup01,blankImage,blankImage,blankImage,blankImage,blankImage,blankImage,blankImage,blankImage,pumpkin,,,,,,,,,,,,0,58,58,23,,,,,,,,,,,,,,,,,,,,,,,,,,,,,,,,,,,454.6361692000064,455.64791010000044,455.6312365999911,456.2115339000011,456.2115339000011,None,457.28294810000807,None,left,1.1030099000199698,457.28294810000807,None,458.4173188999994,None,right,0.4489387000212446,458.4173188999994,None,,,,,,,,,,,,,,,,,,,,,,,PPT32,001,2022-07-05_14h28.29.768,ABstudy,2022.1.4,59.93971262457014,
AB,Lag5_T1A_T2P,5,A,P,6,11,5,3,14,saxophone,Did you see the saxophone?,0.12,0.016,JPG\,globe,belt02a,sponge01,violin,fork03c,tomato01,clock01a,microscope,balloon01b,scarf,stapler03b,pen04b,brick,brownsugar,blankImage,blankImage,blankImage,microphone01,,,,,,,,,,,,0,59,59,267,,,,,,,,,,,,,,,,,,,,,,,,,,,,,,,,,,,458.8912261000369,459.9020239000092,459.8853864999837,460.47069159999955,460.47069159999955,None,462.1090461999993,None,left,0.7095520999864675,462.1090461999993,None,462.8406412000186,None,left,0.32942779996665195,462.8406412000186,None,,,,,,,,,,,,,,,,,,,,,,,PPT32,001,2022-07-05_14h28.29.768,ABstudy,2022.1.4,59.93971262457014,
AB,Lag5_T1A_T2P,5,A,P,7,12,6,4,16,ear,Did you see the ear?,0.12,0.016,JPG\,candle01,shirt02,brick,orange,greenolive,toothbrush03b,pizza,thermometer02b,book01b,toiletpaper01a,sewingmachine01a,stapler01,candy,cymbal,potato02b,plate01b,blankImage,chair,,,,,,,,,,,,0,60,60,257,,,,,,,,,,,,,,,,,,,,,,,,,,,,,,,,,,,463.1917475000373,464.1900498000323,464.17444939998677,464.81965030002175,464.7515499999863,None,466.68813219998265,None,right,0.9463869000319391,466.68813219998265,None,467.6597202999983,None,left,0.470764700032305,467.6597202999983,None,,,,,,,,,,,,,,,,,,,,,,,PPT32,001,2022-07-05_14h28.29.768,ABstudy,2022.1.4,59.93971262457014,
AB,Lag5_T1P_T2P,5,P,P,6,11,5,4,15,punching bag,Did you see the punching bag?,0.12,0.016,JPG\,foosballtable,cigarette,pen04b,birthdaycandle,hammer01,punchingbag,binoculars01b,chain01,potato02b,cauliflower01,stapler04b,ashtray01,scarf,cellphone,calculator01,blankImage,blankImage,punchingbag,,,,,,,,,,,,0,61,61,156,,,,,,,,,,,,,,,,,,,,,,,,,,,,,,,,,,,468.16477339999983,469.17783850000706,469.1613396999892,469.6618858000147,469.6618858000147,None,471.5366446999833,None,left,0.8253661000053398,471.5366446999833,None,472.38152599998284,None,left,0.2925610999809578,472.38152599998284,None,,,,,,,,,,,,,,,,,,,,,,,PPT32,001,2022-07-05_14h28.29.768,ABstudy,2022.1.4,59.93971262457014,
AB,Lag5_T1P_T2P,5,P,P,5,10,4,5,15,Bee,Did you see the Bee?,0.12,0.016,JPG\,fork03c,dandelion,dice05a,belt02a,honeybee,watch02a,key01,globe,eraser,stapler03a,greenolive,shirt02,candle08b,cigarette,garlic01a,blankImage,blankImage,honeybee,,,,,,,,,,,,0,62,62,149,,,,,,,,,,,,,,,,,,,,,,,,,,,,,,,,,,,472.7030813000165,473.7166298000375,473.70087940001395,474.3328541999799,474.3114117999794,None,476.1478761000326,None,left,0.8220999999903142,476.1478761000326,None,477.0024770000018,None,left,0.32729620003374293,477.0024770000018,None,,,,,,,,,,,,,,,,,,,,,,,PPT32,001,2022-07-05_14h28.29.768,ABstudy,2022.1.4,59.93971262457014,
AB,Lag5_T1P_T2P,5,P,P,8,13,7,5,18,Kiwi,Did you see the Kiwi?,0.12,0.016,JPG\,violin,pizza,toothbrush03b,pineapple01a,banana01,ashtray01,candy,kiwi03,clock04,sock01a,microscope,speaker04,stapler04b,sunglasses04,lipstick02a,blueberry01,blankImage,kiwi03,,,,,,,,,,,,0,63,63,111,,,,,,,,,,,,,,,,,,,,,,,,,,,,,,,,,,,477.4144653999829,478.42031419998966,478.4036247000331,479.00084049999714,479.00084049999714,None,480.85129459999735,None,left,0.8074565000133589,480.85129459999735,None,481.69028789998265,None,left,0.2961294999695383,481.69028789998265,None,,,,,,,,,,,,,,,,,,,,,,,PPT32,001,2022-07-05_14h28.29.768,ABstudy,2022.1.4,59.93971262457014,
AB,Lag1_T1P_T2P,1,P,P,8,9,7,3,12,Eiffel tower,Did you see the Eiffel tower?,0.12,0.016,JPG\,celery,tennisball01b,calculator01,pear01,screw02,orange,button01,eiffeltower,stapler03b,apple07,iron01b,brownsugar,blankImage,blankImage,blankImage,blankImage,blankImage,eiffeltower,,,,,,,,,,,,0,64,64,40,,,,,,,,,,,,,,,,,,,,,,,,,,,,,,,,,,,482.01604950003093,483.0251927000354,483.00849799998105,483.5872577999835,483.5872577999835,None,485.00675830000546,None,left,0.9234189999988303,485.00675830000546,None,485.96142579999287,None,left,0.5368735999800265,485.96142579999287,None,,,,,,,,,,,,,,,,,,,,,,,PPT32,001,2022-07-05_14h28.29.768,ABstudy,2022.1.4,59.93971262457014,
AB,Lag5_T1P_T2A,5,P,A,6,11,5,5,16,hat,Did you see the hat?,0.12,0.016,JPG\,apple07,toiletpaper01a,pizza,dandelion,greenolive,pilgrimhat,microscope,violin,orange,lipstick02a,balloon01b,sandal,lighter01,fan,book01b,sewingmachine01a,blankImage,pilgrimhat,,,,,,,,,,,,0,65,65,206,,,,,,,,,,,,,,,,,,,,,,,,,,,,,,,,,,,486.5306510000373,487.54609220003476,487.5129065000219,488.10032199998386,488.10032199998386,None,490.0378180000116,None,left,1.1321591000305489,490.0378180000116,None,491.19997800001875,None,right,0.39426560001447797,491.19997800001875,None,,,,,,,,,,,,,,,,,,,,,,,PPT32,001,2022-07-05_14h28.29.768,ABstudy,2022.1.4,59.93971262457014,
AB,Lag5_T1P_T2P,5,P,P,5,10,4,5,15,Safe,Did you see the Safe?,0.12,0.016,JPG\,candle01,shirt02,brick,orange,safe,toothbrush03b,pizza,thermometer02b,book01b,stapler01,sewingmachine01a,toaster01,candy,cymbal,potato02b,blankImage,blankImage,safe,,,,,,,,,,,,0,66,66,159,,,,,,,,,,,,,,,,,,,,,,,,,,,,,,,,,,,491.6168585999985,492.6179573999834,492.6012172999908,493.1787408000091,493.1787408000091,None,495.00688589998754,None,left,0.8831514000194147,495.00688589998754,None,495.92069380002795,None,left,0.36116229998879135,495.92069380002795,None,,,,,,,,,,,,,,,,,,,,,,,PPT32,001,2022-07-05_14h28.29.768,ABstudy,2022.1.4,59.93971262457014,
AB,Lag5_T1P_T2P,5,P,P,5,10,4,5,15,penguin,Did you see the penguin?,0.12,0.016,JPG\,watermelon01,cigarette,pintofbeer,cymbal,penguin,feather03a,cherry01,broom01,battery02b,stapler05,baseball01a,iron01b,garlic01a,computerkeyboard02,pig,blankImage,blankImage,penguin,,,,,,,,,,,,0,67,67,137,,,,,,,,,,,,,,,,,,,,,,,,,,,,,,,,,,,496.3100191000267,497.3227659999975,497.3060182000045,497.8841155000264,497.8841155000264,None,499.6259883000166,None,left,0.767675600014627,499.6259883000166,None,500.42584500001976,None,left,0.30465689999982715,500.42584500001976,None,,,,,,,,,,,,,,,,,,,,,,,PPT32,001,2022-07-05_14h28.29.768,ABstudy,2022.1.4,59.93971262457014,
AB,Lag5_T1P_T2A,5,P,A,6,11,5,3,14,toy truck,Did you see the toy truck?,0.12,0.016,JPG\,globe,belt02a,sponge01,violin,fork03c,bluecheese,clock01a,microscope,balloon01b,scarf,teabag,pen04b,brick,brownsugar,blankImage,blankImage,blankImage,bluecheese,,,,,,,,,,,,0,68,68,204,,,,,,,,,,,,,,,,,,,,,,,,,,,,,,,,,,,500.81454870000016,501.82661859999644,501.80998710001586,502.4067952000187,502.4067952000187,None,503.94737800001167,None,right,0.9426798999775201,503.94737800001167,None,504.91365689999657,None,left,0.4565023999894038,504.91365689999657,None,,,,,,,,,,,,,,,,,,,,,,,PPT32,001,2022-07-05_14h28.29.768,ABstudy,2022.1.4,59.93971262457014,
AB,Lag1_T1P_T2A,1,P,A,7,8,6,3,11,Snowshoe,Did you see the Snowshoe?,0.12,0.016,JPG\,birthdaycandle,mushroom01,strawberry,match,cherry01,eraser,snowshoe,thermometer02b,sock01a,ring01,feather03a,blankImage,blankImage,blankImage,blankImage,blankImage,blankImage,snowshoe,,,,,,,,,,,,0,69,69,194,,,,,,,,,,,,,,,,,,,,,,,,,,,,,,,,,,,505.4031647000229,506.41524240002036,506.3984548000153,506.89886630000547,506.89886630000547,None,508.4004054000252,None,right,1.0340504999621771,508.4004054000252,None,509.4512196999858,None,left,0.4471531000453979,509.4512196999858,None,,,,,,,,,,,,,,,,,,,,,,,PPT32,001,2022-07-05_14h28.29.768,ABstudy,2022.1.4,59.93971262457014,
AB,Lag1_T1P_T2P,1,P,P,7,8,6,4,12,rooster,Did you see the rooster?,0.12,0.016,JPG\,pizza,strawberry,potato02b,speaker04,battery02b,iron01b,rooster,stapler03b,globe,banana01,medal02b,baseball01a,blankImage,blankImage,blankImage,blankImage,blankImage,rooster,,,,,,,,,,,,0,70,70,69,,,,,,,,,,,,,,,,,,,,,,,,,,,,,,,,,,,509.9206784000271,510.93620340002235,510.90266030002385,511.4947064000298,511.4947064000298,None,512.9535690000048,None,left,0.6968591000186279,512.9535690000048,None,513.6724541999865,None,left,0.34561609994852915,513.6724541999865,None,,,,,,,,,,,,,,,,,,,,,,,PPT32,001,2022-07-05_14h28.29.768,ABstudy,2022.1.4,59.93971262457014,
AB,Lag5_T1P_T2A,5,P,A,7,12,6,5,17,corn,Did you see the corn?,0.12,0.016,JPG\,avocado01,pingpongpaddle01c,match,cauliflower01,paintbrush01,clock01a,corn02,cd,balloon01b,cellphone,watch02a,pear01,toaster01,sponge01,orange,blueberry01,blankImage,corn02,,,,,,,,,,,,0,71,71,210,,,,,,,,,,,,,,,,,,,,,,,,,,,,,,,,,,,514.0413292000303,515.056749499985,515.0233618000057,515.6102265000227,515.6102265000227,None,517.659759800008,None,left,0.8945921999984421,517.659759800008,None,518.5781287000282,None,right,0.47990009997738525,518.5781287000282,None,,,,,,,,,,,,,,,,,,,,,,,PPT32,001,2022-07-05_14h28.29.768,ABstudy,2022.1.4,59.93971262457014,
AB,Lag5_T1A_T2P,5,A,P,5,10,4,3,13,License Plate,Did you see the License Plate?,0.12,0.016,JPG\,tomato01,pen04b,shirt02,carrot01,lamp04a,key01,pizza,avocado01,sewingmachine01a,stapler06,iron01b,book01b,chain01,blankImage,blankImage,blankImage,blankImage,porcupine,,,,,,,,,,,,0,72,72,270,,,,,,,,,,,,,,,,,,,,,,,,,,,,,,,,,,,519.0796067999909,520.0949012000347,520.061592300015,520.6255228000227,520.6255228000227,None,522.2101204000064,None,right,2.072504299983848,522.2101204000064,None,524.299684800033,None,right,0.38283899996895343,524.299684800033,None,,,,,,,,,,,,,,,,,,,,,,,PPT32,001,2022-07-05_14h28.29.768,ABstudy,2022.1.4,59.93971262457014,
AB,Lag5_T1P_T2A,5,P,A,5,10,4,3,13,pin,Did you see the pin?,0.12,0.016,JPG\,candle01,fork03c,plate01b,violin,pin,candy,calculator01,paintbrush01,cherry01,sock01a,teabag,banana01,cd,blankImage,blankImage,blankImage,blankImage,pin,,,,,,,,,,,,0,73,73,215,,,,,,,,,,,,,,,,,,,,,,,,,,,,,,,,,,,524.7042898000218,525.717638400034,525.700897999981,526.2837150000269,526.2837150000269,None,527.9399801000254,None,right,1.3021191000007093,527.9399801000254,None,529.2737823000061,None,right,0.3523720999946818,529.2737823000061,None,,,,,,,,,,,,,,,,,,,,,,,PPT32,001,2022-07-05_14h28.29.768,ABstudy,2022.1.4,59.93971262457014,
AB,Lag5_T1A_T2P,5,A,P,5,10,4,5,15,Sushi,Did you see the Sushi?,0.12,0.016,JPG\,pineapple01a,leaf02a,grape01,toiletpaper01a,match,tennisball01b,spoon01,chain01,pig,stapler04b,ring01,lemon02,dice05a,pizza,potato02b,blankImage,blankImage,crown,,,,,,,,,,,,0,74,74,285,,,,,,,,,,,,,,,,,,,,,,,,,,,,,,,,,,,529.6653655000264,530.6727350000292,530.656035299995,531.2484870000044,531.2484870000044,None,533.0871828999952,None,right,0.906306000018958,533.0871828999952,None,534.0256398000056,None,left,0.3778601000085473,534.0256398000056,None,,,,,,,,,,,,,,,,,,,,,,,PPT32,001,2022-07-05_14h28.29.768,ABstudy,2022.1.4,59.93971262457014,
AB,Lag1_T1P_T2A,1,P,A,8,9,7,5,14,Fridge,Did you see the Fridge?,0.12,0.016,JPG\,cherry01,cymbal,envelope03a,foosballtable,shirt02,cellphone,sewingmachine01a,fridge,battery02b,apple07,pencil01,screwdriver04b,strawberry,sunglasses04,blankImage,blankImage,blankImage,fridge,,,,,,,,,,,,0,75,75,173,,,,,,,,,,,,,,,,,,,,,,,,,,,,,,,,,,,534.428358300007,535.4439470000216,535.4105509000365,535.9922024999978,535.9922024999978,None,537.7334945999901,None,left,0.8444899000460282,537.7334945999901,None,538.5968946000212,None,left,0.2771880999789573,538.5968946000212,None,,,,,,,,,,,,,,,,,,,,,,,PPT32,001,2022-07-05_14h28.29.768,ABstudy,2022.1.4,59.93971262457014,
AB,Lag1_T1P_T2P,1,P,P,8,9,7,3,12,snow globe,Did you see the Snow globe?,0.12,0.016,JPG\,eraser,measuringcup01,chain01,birthdaycandle,ring01,rice,8ball,stapler04b,stapler01,celery,microscope,sunglasses04,blankImage,blankImage,blankImage,blankImage,blankImage,snowglobe,,,,,,,,,,,,0,76,76,56,,,,,,,,,,,,,,,,,,,,,,,,,,,,,,,,,,,538.9014996000333,539.914893499983,539.8982186000212,540.4754541000002,540.4754541000002,None,541.9675155000295,None,left,1.7060392999555916,541.9675155000295,None,543.7019414000097,None,left,0.6116325999610126,543.7019414000097,None,,,,,,,,,,,,,,,,,,,,,,,PPT32,001,2022-07-05_14h28.29.768,ABstudy,2022.1.4,59.93971262457014,
AB,Lag5_T1P_T2P,5,P,P,6,11,5,4,15,Bumper car,Did you see the Bumper car?,0.12,0.016,JPG\,eraser,measuringcup01,chain01,birthdaycandle,ring01,bumpercar,weight04a,pig,cauliflower01,celery,stapler01,sunglasses04,greenolive,candy,strawberry,blankImage,blankImage,bumpercar,,,,,,,,,,,,0,77,77,104,,,,,,,,,,,,,,,,,,,,,,,,,,,,,,,,,,,544.3846370999818,545.3871353000286,545.3704075000132,545.9537060000002,545.9537060000002,None,547.7526331000263,None,left,0.7769154999987222,547.7526331000263,None,548.5571793999989,None,left,0.3014098000130616,548.5571793999989,None,,,,,,,,,,,,,,,,,,,,,,,PPT32,001,2022-07-05_14h28.29.768,ABstudy,2022.1.4,59.93971262457014,
AB,Lag1_T1P_T2P,1,P,P,5,6,4,5,11,Light switch,Did you see the Light switch?,0.12,0.016,JPG\,iron01b,orange,birthdaycandle,potato02b,lightswitch01,stapler03b,key01,candle08b,celery,tableknife02,pen04b,blankImage,blankImage,blankImage,blankImage,blankImage,blankImage,lightswitch01,,,,,,,,,,,,0,78,78,18,,,,,,,,,,,,,,,,,,,,,,,,,,,,,,,,,,,548.8969278000295,549.9083713000291,549.8917315999861,550.4641984000336,550.4641984000336,None,551.8488323999918,None,right,0.8652169000124559,551.8488323999918,None,552.7445721999975,None,left,0.4814189000171609,552.7445721999975,None,,,,,,,,,,,,,,,,,,,,,,,PPT32,001,2022-07-05_14h28.29.768,ABstudy,2022.1.4,59.93971262457014,
AB,Lag1_T1P_T2A,1,P,A,5,6,4,4,10,flower,Did you see the flower?,0.12,0.016,JPG\,broom01,globe,cellphone,tableknife02,daffodil,scissors01,ring01,alligator,rice,toaster01,blankImage,blankImage,blankImage,blankImage,blankImage,blankImage,blankImage,daffodil,,,,,,,,,,,,0,79,79,184,,,,,,,,,,,,,,,,,,,,,,,,,,,,,,,,,,,553.2490079000127,554.2626751000062,554.2460276000202,554.8289542000275,554.8289542000275,None,556.0355347000295,None,left,1.6070850999676622,556.0355347000295,None,557.6670689000166,None,left,0.4314657000359148,557.6670689000166,None,,,,,,,,,,,,,,,,,,,,,,,PPT32,001,2022-07-05_14h28.29.768,ABstudy,2022.1.4,59.93971262457014,
AB,Lag1_T1P_T2P,1,P,P,6,7,5,3,10,handcuffs,Did you see the handcuffs?,0.12,0.016,JPG\,sewingmachine01a,scarf,carrot01,book01b,eraser,handcuffs,stapler05,lipstick02a,printer02,garlic01a,blankImage,blankImage,blankImage,blankImage,blankImage,blankImage,blankImage,handcuffs,,,,,,,,,,,,0,80,80,2,,,,,,,,,,,,,,,,,,,,,,,,,,,,,,,,,,,558.1183668000158,559.1338005000143,559.1004227999947,559.6822523000301,559.6822523000301,None,560.9534493000247,None,left,0.9522836999967694,560.9534493000247,None,561.9368572999956,None,left,0.28119440004229546,561.9368572999956,None,,,,,,,,,,,,,,,,,,,,,,,PPT32,001,2022-07-05_14h28.29.768,ABstudy,2022.1.4,59.93971262457014,
AB,Lag1_T1P_T2A,1,P,A,5,6,4,4,10,paper airplane,Did you see the paper airplane?,0.12,0.016,JPG\,thermometer02b,avocado01,scissors01,tennisball01b,paperairplane,banana01,strawberry,cigarette,potato02b,pineapple01a,blankImage,blankImage,blankImage,blankImage,blankImage,blankImage,blankImage,paperairplane,,,,,,,,,,,,0,81,81,191,,,,,,,,,,,,,,,,,,,,,,,,,,,,,,,,,,,562.2529043999966,563.2554914000211,563.239757400006,563.8911194999819,563.8178019000334,None,565.0215351000079,None,right,0.9645434999838471,565.0215351000079,None,566.0074817999848,None,right,0.4434866000083275,566.0074817999848,None,,,,,,,,,,,,,,,,,,,,,,,PPT32,001,2022-07-05_14h28.29.768,ABstudy,2022.1.4,59.93971262457014,
AB,Lag5_T1P_T2P,5,P,P,6,11,5,5,16,Car,Did you see the Car?,0.12,0.016,JPG\,leaf02a,apple07,cd,pineapple01a,envelope03a,car,pig,canoftennisballs,rice,feather03a,stapler03a,balloon01b,avocado01,calculator01,watermelon01,teabag,blankImage,car,,,,,,,,,,,,0,82,82,127,,,,,,,,,,,,,,,,,,,,,,,,,,,,,,,,,,,566.4768443999928,567.4923475999967,567.4589231000282,568.039680899994,568.039680899994,None,570.0051543000154,None,left,0.6772092999890447,570.0051543000154,None,570.7121828999952,None,left,0.37750259996391833,570.7121828999952,None,,,,,,,,,,,,,,,,,,,,,,,PPT32,001,2022-07-05_14h28.29.768,ABstudy,2022.1.4,59.93971262457014,
AB,Lag5_T1P_T2P,5,P,P,8,13,7,5,18,sock,Did you see the sock?,0.12,0.016,JPG\,thermometer02b,avocado01,scissors01,tennisball01b,medal02b,banana01,strawberry,athleticsock,potato02b,pineapple01a,microscope,cymbal,stapler03b,celery,garlic01a,sunglasses04,blankImage,athleticsock,,,,,,,,,,,,0,83,83,141,,,,,,,,,,,,,,,,,,,,,,,,,,,,,,,,,,,571.1155456000124,572.1302252000314,572.0968397000106,572.6826455999981,572.6826455999981,None,574.6032975999988,None,left,0.9992957999929786,574.6032975999988,None,575.6337835000013,None,right,0.30416899995179847,575.6337835000013,None,,,,,,,,,,,,,,,,,,,,,,,PPT32,001,2022-07-05_14h28.29.768,ABstudy,2022.1.4,59.93971262457014,
AB,Lag5_T1P_T2P,5,P,P,7,12,6,5,17,Badminton Racket,Did you see the Badminton Racket?,0.12,0.016,JPG\,paintbrush01,dice05a,watermelon01,broccoli01a,hammer01,leaf02a,badmintonracket,tennisball01b,lemon02,fan,lipstick02a,stapler04b,envelope03a,sponge01,foosballtable,orange,blankImage,badmintonracket,,,,,,,,,,,,0,84,84,163,,,,,,,,,,,,,,,,,,,,,,,,,,,,,,,,,,,575.9725365000195,576.9851384999929,576.9684474000242,577.540135200019,577.540135200019,None,579.5205378999817,None,right,1.1048819000134245,579.5205378999817,None,580.6561946999864,None,right,0.4262752000358887,580.6561946999864,None,,,,,,,,,,,,,,,,,,,,,,,PPT32,001,2022-07-05_14h28.29.768,ABstudy,2022.1.4,59.93971262457014,
AB,Lag1_T1P_T2P,1,P,P,8,9,7,4,13,Bird House,Did you see the Bird House?,0.12,0.016,JPG\,toiletpaper01a,mushroom01,medal02b,sandal,rice,cd,feather03a,birdhouse,stapler01,garlic01a,toaster01,belt02a,cigarette,blankImage,blankImage,blankImage,blankImage,birdhouse,,,,,,,,,,,,0,85,85,77,,,,,,,,,,,,,,,,,,,,,,,,,,,,,,,,,,,581.1171915000305,582.1239454000024,582.1072292000172,582.7099557000329,582.7099557000329,None,584.2772078000125,None,left,0.6842377000139095,584.2772078000125,None,584.993069100019,None,left,0.24036049999995157,584.993069100019,None,,,,,,,,,,,,,,,,,,,,,,,PPT32,001,2022-07-05_14h28.29.768,ABstudy,2022.1.4,59.93971262457014,
AB,Lag5_T1P_T2P,5,P,P,7,12,6,5,17,American football helmet,Did you see the American football helmet?,0.12,0.016,JPG\,alligator,banana01,apple07,tomato01,button01,spoon01,footballhelmet,fork03c,slipper03b,potato02b,grape01,stapler03b,teabag,screwdriver04b,hammer01,tennisball01b,blankImage,footballhelmet,,,,,,,,,,,,0,86,86,148,,,,,,,,,,,,,,,,,,,,,,,,,,,,,,,,,,,585.3130797999911,586.3277374000172,586.3110414000112,586.8115313000162,586.8115313000162,None,588.827824899985,None,left,0.9425203999853693,588.827824899985,None,589.7978132999851,None,left,0.9559051000396721,589.7978132999851,None,,,,,,,,,,,,,,,,,,,,,,,PPT32,001,2022-07-05_14h28.29.768,ABstudy,2022.1.4,59.93971262457014,
AB,Lag5_T1P_T2P,5,P,P,8,13,7,4,17,Accordion,Did you see the Accordion?,0.12,0.016,JPG\,toiletpaper01a,lipstick02a,potato02b,speaker04,globe,strawberry,carrot01,accordion01,sock01a,candle08b,pen04b,calculator01,stapler01,brick,pear01,fork03c,blankImage,accordion01,,,,,,,,,,,,0,87,87,162,,,,,,,,,,,,,,,,,,,,,,,,,,,,,,,,,,,590.7824265999952,591.7830734000308,591.7672882000334,592.3529267000267,592.3529267000267,None,594.3173561000149,None,left,0.7322206000098959,594.3173561000149,None,595.0697761999909,None,left,0.2996088999789208,595.0697761999909,None,,,,,,,,,,,,,,,,,,,,,,,PPT32,001,2022-07-05_14h28.29.768,ABstudy,2022.1.4,59.93971262457014,
AB,Lag5_T1A_T2P,5,A,P,6,11,5,3,14,Kiwi,Did you see the Kiwi?,0.12,0.016,JPG\,paintbrush01,dice05a,watermelon01,broccoli01a,hammer01,leaf02a,match,tennisball01b,lemon02,fan,stapler06,grape01,envelope03a,sponge01,blankImage,blankImage,blankImage,granolabar01,,,,,,,,,,,,0,88,88,261,,,,,,,,,,,,,,,,,,,,,,,,,,,,,,,,,,,595.3889770000242,596.4043952000211,596.3710498000146,596.9400866000215,596.9400866000215,None,598.6533541000099,None,right,0.9972338000079617,598.6533541000099,None,599.688811900036,None,right,0.3217134999576956,599.688811900036,None,,,,,,,,,,,,,,,,,,,,,,,PPT32,001,2022-07-05_14h28.29.768,ABstudy,2022.1.4,59.93971262457014,
AB,Lag1_T1A_T2A,1,A,A,6,7,5,5,12,Safe,Did you see the Safe?,0.12,0.016,JPG\,hammer01,sponge01,toaster01,cherry01,feather03a,mushroom01,measuringcup01,pencil01,tennisball01b,brick,clock04,medal02b,blankImage,blankImage,blankImage,blankImage,blankImage,downhillski,,,,,,,,,,,,0,89,89,294,,,,,,,,,,,,,,,,,,,,,,,,,,,,,,,,,,,600.0515902999905,601.0601423000335,601.0444882999873,601.6903459000168,601.6179998000152,None,603.1276504999842,None,right,1.1300188999739476,603.1276504999842,None,604.2789390999824,None,right,0.2908797000418417,604.2789390999824,None,,,,,,,,,,,,,,,,,,,,,,,PPT32,001,2022-07-05_14h28.29.768,ABstudy,2022.1.4,59.93971262457014,
AB,Lag5_T1A_T2P,5,A,P,5,10,4,4,14,Chefs hat,Did you see the Chefs hat?,0.12,0.016,JPG\,candle01,fork03c,plate01b,violin,computerkeyboard02,candy,calculator01,paintbrush01,cherry01,stapler06,teabag,banana01,cd,lighter01,blankImage,blankImage,blankImage,horseshoe,,,,,,,,,,,,0,90,90,278,,,,,,,,,,,,,,,,,,,,,,,,,,,,,,,,,,,604.5988425000105,605.6136012999923,605.5801762000192,606.1574799999944,606.1574799999944,None,607.8944523999817,None,right,0.7630102999974042,607.8944523999817,None,608.6833021999919,None,left,0.5272331000305712,608.6833021999919,None,,,,,,,,,,,,,,,,,,,,,,,PPT32,001,2022-07-05_14h28.29.768,ABstudy,2022.1.4,59.93971262457014,
AB,Lag1_T1P_T2P,1,P,P,7,8,6,5,13,dream catcher,Did you see the dream catcher?,0.12,0.016,JPG\,clock01a,cellphone,toaster01,toothbrush03b,cauliflower01,microscope,dreamcatcher,stapler05,scarf,clock04,sponge01,iron01b,watch02a,blankImage,blankImage,blankImage,blankImage,dreamcatcher,,,,,,,,,,,,0,91,91,81,,,,,,,,,,,,,,,,,,,,,,,,,,,,,,,,,,,609.2361466999864,610.2515491999802,610.218110900023,610.8069142000168,610.8069142000168,None,612.4165004999959,None,left,1.0169690000475384,612.4165004999959,None,613.4547138999915,None,right,0.45257239998318255,613.4547138999915,None,,,,,,,,,,,,,,,,,,,,,,,PPT32,001,2022-07-05_14h28.29.768,ABstudy,2022.1.4,59.93971262457014,
AB,Lag1_T1P_T2A,1,P,A,5,6,4,5,11,Moon,Did you see the Moon?,0.12,0.016,JPG\,lamp04a,broccoli01a,alligator,garlic01a,moon,brownsugar,avocado01,ring01,leaf02a,cellphone,medal02b,blankImage,blankImage,blankImage,blankImage,blankImage,blankImage,moon,,,,,,,,,,,,0,92,92,190,,,,,,,,,,,,,,,,,,,,,,,,,,,,,,,,,,,613.9407679000287,614.9562061000033,614.9228510999819,615.5005994000239,615.5005994000239,None,616.866814500012,None,right,0.8866431000060402,616.866814500012,None,617.7756581000285,None,right,0.3536453999695368,617.7756581000285,None,,,,,,,,,,,,,,,,,,,,,,,PPT32,001,2022-07-05_14h28.29.768,ABstudy,2022.1.4,59.93971262457014,
AB,Lag5_T1P_T2P,5,P,P,5,10,4,4,14,bell,Did you see the bell?,0.12,0.016,JPG\,teabag,envelope03a,cellphone,apple07,callbell,orange,brownsugar,book01b,hammer01,stapler03b,toaster01,calculator01,globe,battery02b,blankImage,blankImage,blankImage,callbell,,,,,,,,,,,,0,93,93,147,,,,,,,,,,,,,,,,,,,,,,,,,,,,,,,,,,,618.1616347000236,619.1770933999796,619.1437121999916,619.7207438999903,619.7207438999903,None,621.5124321000185,None,right,1.8657546999747865,621.5124321000185,None,623.4008696000092,None,left,0.6575574000016786,623.4008696000092,None,,,,,,,,,,,,,,,,,,,,,,,PPT32,001,2022-07-05_14h28.29.768,ABstudy,2022.1.4,59.93971262457014,
AB,Lag1_T1P_T2P,1,P,P,6,7,5,5,12,bat,Did you see the bat?,0.12,0.016,JPG\,comb02a,key01,medal02b,battery02b,lighter01,bat,stapler05,sandal,pig,cellphone,computerkeyboard02,calculator01,blankImage,blankImage,blankImage,blankImage,blankImage,bat,,,,,,,,,,,,0,94,94,35,,,,,,,,,,,,,,,,,,,,,,,,,,,,,,,,,,,624.0842259000055,625.0836426999886,625.0679528000182,625.6682335000369,625.6682335000369,None,627.1383872000151,None,left,0.7751066000200808,627.1383872000151,None,627.9358494000044,None,left,0.3141040999908,627.9358494000044,None,,,,,,,,,,,,,,,,,,,,,,,PPT32,001,2022-07-05_14h28.29.768,ABstudy,2022.1.4,59.93971262457014,
AB,Lag1_T1P_T2P,1,P,P,7,8,6,4,12,trophy,Did you see the trophy?,0.12,0.016,JPG\,cherry01,cymbal,envelope03a,foosballtable,shirt02,cellphone,trophy01,stapler04b,battery02b,apple07,pencil01,screwdriver04b,blankImage,blankImage,blankImage,blankImage,blankImage,trophy01,,,,,,,,,,,,0,95,95,74,,,,,,,,,,,,,,,,,,,,,,,,,,,,,,,,,,,628.2757296999916,629.2871166000259,629.2704593000235,629.8495261000353,629.8495261000353,None,631.2929600999923,None,left,0.46923620003508404,631.2929600999923,None,631.7900114000076,None,left,0.2520533000351861,631.7900114000076,None,,,,,,,,,,,,,,,,,,,,,,,PPT32,001,2022-07-05_14h28.29.768,ABstudy,2022.1.4,59.93971262457014,
AB,Lag1_T1P_T2P,1,P,P,7,8,6,3,11,cloud,Did you see the cloud?,0.12,0.016,JPG\,lighter01,hammer01,spoon01,chain01,cymbal,sponge01,cloud,stapler06,pig,watermelon01,cauliflower01,blankImage,blankImage,blankImage,blankImage,blankImage,blankImage,cloud,,,,,,,,,,,,0,96,96,36,,,,,,,,,,,,,,,,,,,,,,,,,,,,,,,,,,,632.0766530000255,633.0911627000314,633.0744195000152,633.6705829999992,633.6705829999992,None,634.9748289000127,None,left,0.5305539999972098,634.9748289000127,None,635.5267240999965,None,left,0.2756091000046581,635.5267240999965,None,,,,,,,,,,,,,,,,,,,,,,,PPT32,001,2022-07-05_14h28.29.768,ABstudy,2022.1.4,59.93971262457014,
AB,Lag5_T1P_T2P,5,P,P,8,13,7,3,16,banjo,Did you see the banjo?,0.12,0.016,JPG\,celery,brownsugar,key01,sunglasses04,leaf02a,toothbrush03b,dice05a,banjo,scarf,globe,paintbrush01,scissors01,stapler03a,battery02b,feather03a,cymbal,blankImage,banjo,,,,,,,,,,,,0,97,97,102,,,,,,,,,,,,,,,,,,,,,,,,,,,,,,,,,,,635.8827362000011,636.8949383000145,636.8781358000124,637.4805388000095,637.4805388000095,None,639.2648235000088,None,left,0.8495832000044174,639.2648235000088,None,640.1312845000066,None,left,0.37398799997754395,640.1312845000066,None,,,,,,,,,,,,,,,,,,,,,,,PPT32,001,2022-07-05_14h28.29.768,ABstudy,2022.1.4,59.93971262457014,
AB,Lag1_T1P_T2P,1,P,P,5,6,4,5,11,football,Did you see the football?,0.12,0.016,JPG\,globe,belt02a,sponge01,violin,soccerball,stapler01,clock01a,microscope,balloon01b,scarf,teabag,blankImage,blankImage,blankImage,blankImage,blankImage,blankImage,soccerball,,,,,,,,,,,,0,98,98,26,,,,,,,,,,,,,,,,,,,,,,,,,,,,,,,,,,,640.5345246000215,641.5494375000126,641.5160579000367,642.155899800011,642.155899800011,None,643.4850873000105,None,left,0.8206348000094295,643.4850873000105,None,644.3357486000168,None,left,0.3461855999776162,644.3357486000168,None,,,,,,,,,,,,,,,,,,,,,,,PPT32,001,2022-07-05_14h28.29.768,ABstudy,2022.1.4,59.93971262457014,
AB,Lag1_T1P_T2P,1,P,P,8,9,7,5,14,Waterfall,Did you see the Waterfall?,0.12,0.016,JPG\,pizza,watch02a,greenolive,cucumber,match,violin,scissors01,waterfall,stapler03a,cherry01,ring01,cigarette,microscope,cellphone,blankImage,blankImage,blankImage,waterfall,,,,,,,,,,,,0,99,99,52,,,,,,,,,,,,,,,,,,,,,,,,,,,,,,,,,,,644.7072942000232,645.720332900004,645.703572700033,646.3089784000185,646.3089784000185,None,647.9953007000149,None,left,0.4793821999919601,647.9953007000149,None,648.5091529000201,None,left,0.32426540000597015,648.5091529000201,None,,,,,,,,,,,,,,,,,,,,,,,PPT32,001,2022-07-05_14h28.29.768,ABstudy,2022.1.4,59.93971262457014,
AB,Lag5_T1P_T2P,5,P,P,5,10,4,3,13,Rabbit,Did you see the Rabbit?,0.12,0.016,JPG\,celery,tennisball01b,calculator01,pear01,jackrabbit,orange,button01,cellphone,onion,stapler06,iron01b,brownsugar,banana01,blankImage,blankImage,blankImage,blankImage,jackrabbit,,,,,,,,,,,,0,100,100,90,,,,,,,,,,,,,,,,,,,,,,,,,,,,,,,,,,,648.8591577000334,649.8743452000199,649.8409993000096,650.4237859999994,650.4237859999994,None,652.0483604000183,None,left,0.5214623999781907,652.0483604000183,None,652.5936973000062,None,left,0.2480770000256598,652.5936973000062,None,,,,,,,,,,,,,,,,,,,,,,,PPT32,001,2022-07-05_14h28.29.768,ABstudy,2022.1.4,59.93971262457014,
AB,Lag5_T1P_T2P,5,P,P,7,12,6,3,15,Rollerblade,Did you see the Rollerblade?,0.12,0.016,JPG\,hammer01,sponge01,toaster01,cherry01,feather03a,mushroom01,rollerblade,pencil01,tennisball01b,brick,clock04,stapler06,teabag,garlic01a,envelope03a,blankImage,blankImage,rollerblade,,,,,,,,,,,,0,101,101,116,,,,,,,,,,,,,,,,,,,,,,,,,,,,,,,,,,,652.86387619999,653.8782722000033,653.8449314000318,654.4153902999824,654.4153902999824,None,656.2348432000144,None,left,0.7110722999786958,656.2348432000144,None,656.9647362999967,None,left,0.3323854000191204,656.9647362999967,None,,,,,,,,,,,,,,,,,,,,,,,PPT32,001,2022-07-05_14h28.29.768,ABstudy,2022.1.4,59.93971262457014,
AB,Lag1_T1P_T2P,1,P,P,6,7,5,3,10,drum sticks,Did you see the drum sticks?,0.12,0.016,JPG\,pineapple01a,tennisball01b,computerkeyboard02,feather03a,belt02a,drumstick,stapler03b,blueberry01,medal02b,alligator,blankImage,blankImage,blankImage,blankImage,blankImage,blankImage,blankImage,drumstick,,,,,,,,,,,,0,102,102,61,,,,,,,,,,,,,,,,,,,,,,,,,,,,,,,,,,,657.3199340000283,658.3327321999823,658.3160549000022,658.9018939000089,658.9018939000089,None,660.0353056000313,None,left,0.7738192999968305,660.0353056000313,None,660.8352837000275,None,left,0.4138289999682456,660.8352837000275,None,,,,,,,,,,,,,,,,,,,,,,,PPT32,001,2022-07-05_14h28.29.768,ABstudy,2022.1.4,59.93971262457014,
AB,Lag5_T1P_T2P,5,P,P,7,12,6,4,16,flower,Did you see the flower?,0.12,0.016,JPG\,cucumber,sponge01,alligator,pear01,ashtray01,hammer01,hibiscusflower02,battery02b,fork03c,binoculars01b,mushroom01,stapler01,leaf02a,acorn,comb02a,screwdriver04b,blankImage,hibiscusflower02,,,,,,,,,,,,0,103,103,132,,,,,,,,,,,,,,,,,,,,,,,,,,,,,,,,,,,661.2711958999862,662.2866907999851,662.2532399999909,662.8323083000141,662.8323083000141,None,664.8038381999941,None,left,0.3895883000222966,664.8038381999941,None,665.2234658999951,None,left,0.3460725999902934,665.2234658999951,None,,,,,,,,,,,,,,,,,,,,,,,PPT32,001,2022-07-05_14h28.29.768,ABstudy,2022.1.4,59.93971262457014,
AB,Lag5_T1P_T2P,5,P,P,6,11,5,4,15,sword,Did you see the sword?,0.12,0.016,JPG\,8ball,banana01,scissors01,pig,shirt02,broadsword,pear01,sponge01,fork03c,tableknife02,stapler06,match,toothbrush03b,birthdaycandle,candle01,blankImage,blankImage,broadsword,,,,,,,,,,,,0,104,104,167,,,,,,,,,,,,,,,,,,,,,,,,,,,,,,,,,,,665.5950430000084,666.6080137999961,666.5912954999949,667.1982673000311,667.1982673000311,None,668.9715442000306,None,left,0.4155105999670923,668.9715442000306,None,669.410840800032,None,left,0.5902409999980591,669.410840800032,None,,,,,,,,,,,,,,,,,,,,,,,PPT32,001,2022-07-05_14h28.29.768,ABstudy,2022.1.4,59.93971262457014,
AB,Lag5_T1A_T2P,5,A,P,7,12,6,5,17,Rollerblade,Did you see the Rollerblade?,0.12,0.016,JPG\,binoculars01b,cymbal,pizza,candy,paintbrush01,sponge01,grape01,thermometer02b,speaker04,lemon02,lipstick02a,stapler03b,candle01,8ball,plate01b,pen04b,blankImage,lion,,,,,,,,,,,,0,105,105,266,,,,,,,,,,,,,,,,,,,,,,,,,,,,,,,,,,,670.0341153999907,671.0455929000163,671.0288680000231,671.6252148000058,671.6252148000058,None,673.5157150999876,None,right,0.9733968000509776,673.5157150999876,None,674.5159713000176,None,left,0.581209999974817,674.5159713000176,None,,,,,,,,,,,,,,,,,,,,,,,PPT32,001,2022-07-05_14h28.29.768,ABstudy,2022.1.4,59.93971262457014,
AB,Lag1_T1P_T2P,1,P,P,8,9,7,5,14,finger print,Did you see the finger print?,0.12,0.016,JPG\,chain01,pen04b,birthdaycandle,watermelon01,broom01,scissors01,measuringcup01,fingerprint,stapler01,calculator01,ashtray01,feather03a,sewingmachine01a,thermometer02b,blankImage,blankImage,blankImage,fingerprint,,,,,,,,,,,,0,106,106,62,,,,,,,,,,,,,,,,,,,,,,,,,,,,,,,,,,,675.177755200013,676.1839547000127,676.167119699996,676.7473293000367,676.7473293000367,None,678.4095789000276,None,left,0.775625400012359,678.4095789000276,None,679.2046485000174,None,left,0.3093858999782242,679.2046485000174,None,,,,,,,,,,,,,,,,,,,,,,,PPT32,001,2022-07-05_14h28.29.768,ABstudy,2022.1.4,59.93971262457014,
AB,Lag5_T1A_T2P,5,A,P,7,12,6,3,15,hockey puck,Did you see the hockey puck?,0.12,0.016,JPG\,toiletpaper01a,lipstick02a,potato02b,speaker04,globe,strawberry,carrot01,plate01b,sock01a,candle08b,pen04b,stapler04b,foosballtable,brick,pear01,blankImage,blankImage,frisbee,,,,,,,,,,,,0,107,107,260,,,,,,,,,,,,,,,,,,,,,,,,,,,,,,,,,,,679.5462464999873,680.5549563000095,680.5383204999962,681.1178020000225,681.1178020000225,None,682.9743258000235,None,right,1.091024200024549,682.9743258000235,None,684.0917167000007,None,right,0.3264392999699339,684.0917167000007,None,,,,,,,,,,,,,,,,,,,,,,,PPT32,001,2022-07-05_14h28.29.768,ABstudy,2022.1.4,59.93971262457014,
AB,Lag5_T1P_T2P,5,P,P,5,10,4,4,14,duck,Did you see the duck?,0.12,0.016,JPG\,celery,pencil01,fan,foosballtable,duck01,shirt02,potato02b,fork03c,button01,stapler03a,baseball01a,printer02,cauliflower01,dandelion,blankImage,blankImage,blankImage,duck01,,,,,,,,,,,,0,108,108,130,,,,,,,,,,,,,,,,,,,,,,,,,,,,,,,,,,,684.4448680999922,685.4598052999936,685.4263962000259,686.010395499994,686.010395499994,None,687.6299151999992,None,left,0.875858600018546,687.6299151999992,None,688.529442100029,None,left,0.42431349999969825,688.529442100029,None,,,,,,,,,,,,,,,,,,,,,,,PPT32,001,2022-07-05_14h28.29.768,ABstudy,2022.1.4,59.93971262457014,
AB,Lag5_T1A_T2P,5,A,P,7,12,6,4,16,church,Did you see the church?,0.12,0.016,JPG\,printer02,leaf02a,cauliflower01,sock01a,brownsugar,paintbrush01,pig,orange,belt02a,shirt02,key01,stapler06,cigarette,scissors01,envelope03a,blueberry01,blankImage,ant,,,,,,,,,,,,0,109,109,279,,,,,,,,,,,,,,,,,,,,,,,,,,,,,,,,,,,688.9821449000156,689.9976235000067,689.9642610999872,690.5752396000316,690.5752396000316,None,692.4932656000019,None,right,0.8687385999946855,692.4932656000019,None,693.3872208999819,None,left,0.5021287000272423,693.3872208999819,None,,,,,,,,,,,,,,,,,,,,,,,PPT32,001,2022-07-05_14h28.29.768,ABstudy,2022.1.4,59.93971262457014,
AB,Lag1_T1P_T2P,1,P,P,7,8,6,3,11,harmonica,Did you see the harmonica?,0.12,0.016,JPG\,cucumber,ring01,lipstick02a,microscope,violin,garlic01a,harmonica,stapler03b,cherry01,sewingmachine01a,belt02a,blankImage,blankImage,blankImage,blankImage,blankImage,blankImage,harmonica,,,,,,,,,,,,0,110,110,43,,,,,,,,,,,,,,,,,,,,,,,,,,,,,,,,,,,693.9204699000111,694.9356675000163,694.9022881999845,695.4834725999972,695.4834725999972,None,696.8683738000109,None,left,0.8526868000044487,696.8683738000109,None,697.7390735000372,None,left,0.2299273000098765,697.7390735000372,None,,,,,,,,,,,,,,,,,,,,,,,PPT32,001,2022-07-05_14h28.29.768,ABstudy,2022.1.4,59.93971262457014,
AB,Lag1_T1P_T2A,1,P,A,7,8,6,3,11,fish,Did you see the fish?,0.12,0.016,JPG\,rice,watermelon01,tableknife02,scarf,computerkeyboard02,cauliflower01,salmon,binoculars01b,book01b,sandal,sponge01,blankImage,blankImage,blankImage,blankImage,blankImage,blankImage,salmon,,,,,,,,,,,,0,111,111,179,,,,,,,,,,,,,,,,,,,,,,,,,,,,,,,,,,,697.9922840000363,699.0067704999819,698.9734345999896,699.5578493000357,699.5578493000357,None,700.9939564000233,None,right,0.9038699999800883,700.9939564000233,None,701.9265199000365,None,right,0.3547120000002906,701.9265199000365,None,,,,,,,,,,,,,,,,,,,,,,,PPT32,001,2022-07-05_14h28.29.768,ABstudy,2022.1.4,59.93971262457014,
AB,Lag5_T1P_T2P,5,P,P,6,11,5,4,15,saxophone,Did you see the saxophone?,0.12,0.016,JPG\,pizza,strawberry,potato02b,speaker04,battery02b,saxophone,dice05a,cellphone,globe,banana01,stapler03b,baseball01a,toaster01,broom01,ring01,blankImage,blankImage,saxophone,,,,,,,,,,,,0,112,112,117,,,,,,,,,,,,,,,,,,,,,,,,,,,,,,,,,,,702.3157663000165,703.3276193999918,703.3108302000328,703.902372099983,703.902372099983,None,705.6945574000129,None,left,0.8427820000215434,705.6945574000129,None,706.5644842000329,None,left,0.8767497999942861,706.5644842000329,None,,,,,,,,,,,,,,,,,,,,,,,PPT32,001,2022-07-05_14h28.29.768,ABstudy,2022.1.4,59.93971262457014,
AB,Lag1_T1P_T2A,1,P,A,6,7,5,5,12,Tombstone,Did you see the Tombstone?,0.12,0.016,JPG\,cigarette,ashtray01,envelope03a,sandal,chain01,tombstone,broccoli01a,tomato01,dandelion,candle01,lemon02,button01,blankImage,blankImage,blankImage,blankImage,blankImage,tombstone,,,,,,,,,,,,0,113,113,196,,,,,,,,,,,,,,,,,,,,,,,,,,,,,,,,,,,707.4717981999856,708.482965400035,708.4661035999889,709.0492080000113,709.0492080000113,None,710.5110759999952,None,left,1.1305029999930412,710.5110759999952,None,711.6696184999892,None,right,0.4440941999782808,711.6696184999892,None,,,,,,,,,,,,,,,,,,,,,,,PPT32,001,2022-07-05_14h28.29.768,ABstudy,2022.1.4,59.93971262457014,
AB,Lag1_T1P_T2P,1,P,P,6,7,5,4,11,bowling pin,Did you see the bowling pin?,0.12,0.016,JPG\,strawberry,leaf02a,clock04,candle01,avocado01,bowlingpin,stapler03a,brownsugar,ring01,lemon02,fork03c,blankImage,blankImage,blankImage,blankImage,blankImage,blankImage,bowlingpin,,,,,,,,,,,,0,114,114,8,,,,,,,,,,,,,,,,,,,,,,,,,,,,,,,,,,,712.1434912999975,713.1541610999848,713.137477900018,713.7351310999948,713.7351310999948,None,715.0587590000359,None,left,1.3110340999555774,715.0587590000359,None,716.3905269000097,None,right,0.4595116999698803,716.3905269000097,None,,,,,,,,,,,,,,,,,,,,,,,PPT32,001,2022-07-05_14h28.29.768,ABstudy,2022.1.4,59.93971262457014,
AB,Lag5_T1P_T2P,5,P,P,5,10,4,5,15,funnel,Did you see the funnel?,0.12,0.016,JPG\,pineapple01a,tennisball01b,computerkeyboard02,feather03a,funnel,acorn,violin,blueberry01,medal02b,stapler01,greenolive,screwdriver04b,potato02b,fork03c,cymbal,blankImage,blankImage,funnel,,,,,,,,,,,,0,115,115,109,,,,,,,,,,,,,,,,,,,,,,,,,,,,,,,,,,,716.8765947000356,717.8920554000069,717.8586945999996,718.4442085000337,718.4442085000337,None,720.178715099988,None,left,0.8061372000374831,720.178715099988,None,721.011969299987,None,right,0.46126339997863397,721.011969299987,None,,,,,,,,,,,,,,,,,,,,,,,PPT32,001,2022-07-05_14h28.29.768,ABstudy,2022.1.4,59.93971262457014,
AB,Lag5_T1A_T2P,5,A,P,5,10,4,5,15,parachute,Did you see the parachute?,0.12,0.016,JPG\,binoculars01b,speaker04,sandal,envelope03a,plate01b,comb02a,battery02b,chain01,measuringcup01,stapler03b,medal02b,lamp04a,tennisball01b,pizza,cigarette,blankImage,blankImage,knee,,,,,,,,,,,,0,116,116,264,,,,,,,,,,,,,,,,,,,,,,,,,,,,,,,,,,,721.5019022999913,722.5135751999915,722.4969844000298,723.0922587999958,723.0922587999958,None,724.8758092999924,None,left,1.59732579998672,724.8758092999924,None,726.5005769000272,None,right,0.3165449000080116,726.5005769000272,None,,,,,,,,,,,,,,,,,,,,,,,PPT32,001,2022-07-05_14h28.29.768,ABstudy,2022.1.4,59.93971262457014,
AB,Lag1_T1A_T2P,1,A,P,6,7,5,5,12,Ostrich,Did you see the Ostrich?,0.12,0.016,JPG\,thermometer02b,candle08b,comb02a,toothbrush03b,brick,computerkeyboard02,stapler05,pineapple01a,candy,birthdaycandle,clock04,hairclip03,blankImage,blankImage,blankImage,blankImage,blankImage,discoball,,,,,,,,,,,,0,117,117,232,,,,,,,,,,,,,,,,,,,,,,,,,,,,,,,,,,,726.898810499988,727.9021991000045,727.8854570999974,728.4881545000244,728.4881545000244,None,729.9013137000147,None,right,0.7480844999663532,729.9013137000147,None,730.6717677999986,None,right,0.40948860003845766,730.6717677999986,None,,,,,,,,,,,,,,,,,,,,,,,PPT32,001,2022-07-05_14h28.29.768,ABstudy,2022.1.4,59.93971262457014,
AB,Lag1_T1P_T2P,1,P,P,6,7,5,3,10,spider web,Did you see the spider web?,0.12,0.016,JPG\,toaster01,chain01,sponge01,baseball01a,carrot01,spiderweb,stapler03b,iron01b,grape01,brick,blankImage,blankImage,blankImage,blankImage,blankImage,blankImage,blankImage,spiderweb,,,,,,,,,,,,0,118,118,72,,,,,,,,,,,,,,,,,,,,,,,,,,,,,,,,,,,731.1115149999969,732.1231070000213,732.1063200000208,732.6991625999799,732.6991625999799,None,733.9532452999847,None,left,0.887974800018128,733.9532452999847,None,734.8593655999866,None,left,0.2939478999469429,734.8593655999866,None,,,,,,,,,,,,,,,,,,,,,,,PPT32,001,2022-07-05_14h28.29.768,ABstudy,2022.1.4,59.93971262457014,
AB,Lag5_T1A_T2P,5,A,P,7,12,6,5,17,funnel,Did you see the funnel?,0.12,0.016,JPG\,iron01b,orange,birthdaycandle,potato02b,cauliflower01,pencil01,key01,candle08b,celery,tableknife02,pen04b,stapler04b,ring01,rice,lemon02,tomato01,blankImage,englishcucumber,,,,,,,,,,,,0,119,119,259,,,,,,,,,,,,,,,,,,,,,,,,,,,,,,,,,,,735.1795870999922,736.1937857000157,736.1603246000013,736.7475740999798,736.7475740999798,None,738.7461751999799,None,right,1.0227318999823183,738.7461751999799,None,739.7971634999849,None,right,0.27674930001376197,739.7971634999849,None,,,,,,,,,,,,,,,,,,,,,,,PPT32,001,2022-07-05_14h28.29.768,ABstudy,2022.1.4,59.93971262457014,
AB,Lag5_T1P_T2A,5,P,A,7,12,6,3,15,Toy soldier,Did you see the Toy soldier?,0.12,0.016,JPG\,binoculars01b,cymbal,pizza,candy,paintbrush01,sponge01,toysoldier01b,thermometer02b,speaker04,lemon02,lipstick02a,strawberry,candle01,acorn,plate01b,blankImage,blankImage,toysoldier01b,,,,,,,,,,,,0,120,120,203,,,,,,,,,,,,,,,,,,,,,,,,,,,,,,,,,,,740.1010091000353,741.1151614999981,741.0817767999833,741.677915600012,741.677915600012,None,743.4867746999953,None,left,0.8424832000164315,743.4867746999953,None,744.3520990000106,None,right,0.41020189999835566,744.3520990000106,None,,,,,,,,,,,,,,,,,,,,,,,PPT32,001,2022-07-05_14h28.29.768,ABstudy,2022.1.4,59.93971262457014,
AB,Lag1_T1P_T2P,1,P,P,6,7,5,5,12,owl,Did you see the owl?,0.12,0.016,JPG\,paintbrush01,eraser,medal02b,hammer01,speaker04,greathornowl,stapler01,comb02a,plate01b,clock01a,button01,globe,blankImage,blankImage,blankImage,blankImage,blankImage,greathornowl,,,,,,,,,,,,0,121,121,1,,,,,,,,,,,,,,,,,,,,,,,,,,,,,,,,,,,744.7891077999957,745.8033663000097,745.7699284999981,746.366173700022,746.366173700022,None,747.8999580999953,None,left,0.8059519999660552,747.8999580999953,None,748.72271370003,None,left,1.6061508000129834,748.72271370003,None,,,,,,,,,,,,,,,,,,,,,,,PPT32,001,2022-07-05_14h28.29.768,ABstudy,2022.1.4,59.93971262457014,
AB,Lag1_T1P_T2A,1,P,A,5,6,4,5,11,Toaster oven,Did you see the Toaster oven?,0.12,0.016,JPG\,fork03c,toothbrush03b,cellphone,fan,toasteroven,clock01a,ring01,eraser,sunglasses04,thermometer02b,violin,blankImage,blankImage,blankImage,blankImage,blankImage,blankImage,toasteroven,,,,,,,,,,,,0,122,122,200,,,,,,,,,,,,,,,,,,,,,,,,,,,,,,,,,,,750.3623454000335,751.3757201000117,751.35907950002,751.9141669999808,751.9141669999808,None,753.337530800025,None,right,0.9678296999773011,753.337530800025,None,754.3281421000138,None,right,0.3450241999817081,754.3281421000138,None,,,,,,,,,,,,,,,,,,,,,,,PPT32,001,2022-07-05_14h28.29.768,ABstudy,2022.1.4,59.93971262457014,
AB,Lag5_T1P_T2A,5,P,A,7,12,6,3,15,helmet,Did you see the helmet?,0.12,0.016,JPG\,fork03c,belt02a,grape01,computerkeyboard02,lemon02,printer02,skihelmet01,toiletpaper01a,toaster01,lipstick02a,book01b,blueberry01,spoon01,apple07,avocado01,blankImage,blankImage,skihelmet01,,,,,,,,,,,,0,123,123,225,,,,,,,,,,,,,,,,,,,,,,,,,,,,,,,,,,,754.697559399996,755.712849100004,755.6794880999951,756.2538304000045,756.2538304000045,None,758.0781104000052,None,right,0.7480818000040017,758.0781104000052,None,758.8498432000051,None,right,0.6402278000023216,758.8498432000051,None,,,,,,,,,,,,,,,,,,,,,,,PPT32,001,2022-07-05_14h28.29.768,ABstudy,2022.1.4,59.93971262457014,
AB,Lag5_T1A_T2P,5,A,P,7,12,6,4,16,scooter,Did you see the scooter?,0.12,0.016,JPG\,cigarette,pig,banana01,strawberry,clock01a,plate01b,spoon01,blueberry01,battery02b,pineapple01a,chain01,stapler05,candy,pen04b,teabag,birthdaycandle,blankImage,1nose,,,,,,,,,,,,0,124,124,268,,,,,,,,,,,,,,,,,,,,,,,,,,,,,,,,,,,759.5190903000184,760.5344990000012,760.501181300031,761.0733502000221,761.0733502000221,None,763.0080588000128,None,right,0.6408514999784529,763.0080588000128,None,763.6709733000025,None,right,0.5778802999993786,763.6709733000025,None,,,,,,,,,,,,,,,,,,,,,,,PPT32,001,2022-07-05_14h28.29.768,ABstudy,2022.1.4,59.93971262457014,
AB,Lag5_T1P_T2P,5,P,P,5,10,4,5,15,baseball bat,Did you see the baseball bat?,0.12,0.016,JPG\,pizza,printer02,medal02b,spoon01,baseballbat,lighter01,belt02a,watermelon01,celery,stapler04b,screw02,comb02a,cauliflower01,lipstick02a,potato02b,blankImage,blankImage,baseballbat,,,,,,,,,,,,0,125,125,123,,,,,,,,,,,,,,,,,,,,,,,,,,,,,,,,,,,764.2758908999967,765.2892130999826,765.2725652999943,765.8605510999914,765.8605510999914,None,767.6688678000355,None,left,0.869501700042747,767.6688678000355,None,768.560533699987,None,left,0.6490040000062436,768.560533699987,None,,,,,,,,,,,,,,,,,,,,,,,PPT32,001,2022-07-05_14h28.29.768,ABstudy,2022.1.4,59.93971262457014,
AB,Lag1_T1A_T2P,1,A,P,6,7,5,3,10,Jellyfish,Did you see the Jellyfish?,0.12,0.016,JPG\,thermometer02b,avocado01,scissors01,tennisball01b,medal02b,banana01,stapler01,cigarette,potato02b,pineapple01a,blankImage,blankImage,blankImage,blankImage,blankImage,blankImage,blankImage,firehydrant,,,,,,,,,,,,0,126,126,255,,,,,,,,,,,,,,,,,,,,,,,,,,,,,,,,,,,769.2360628999886,770.2445337999961,770.2276838999824,770.8066345999832,770.8066345999832,None,772.0835212999955,None,right,0.5095076000434346,772.0835212999955,None,772.6135947000002,None,left,0.5720905999769457,772.6135947000002,None,,,,,,,,,,,,,,,,,,,,,,,PPT32,001,2022-07-05_14h28.29.768,ABstudy,2022.1.4,59.93971262457014,
AB,Lag1_T1P_T2A,1,P,A,6,7,5,5,12,Barn,Did you see the Barn?,0.12,0.016,JPG\,celery,pencil01,fan,foosballtable,iron01b,barn,potato02b,fork03c,button01,pineapple01a,baseball01a,printer02,blankImage,blankImage,blankImage,blankImage,blankImage,barn,,,,,,,,,,,,0,127,127,181,,,,,,,,,,,,,,,,,,,,,,,,,,,,,,,,,,,773.2194564000238,774.231673500035,774.2149314000271,774.7954008000088,774.7954008000088,None,776.2706660000258,None,left,1.1706854999647476,776.2706660000258,None,777.4683733999846,None,left,0.3810257999575697,777.4683733999846,None,,,,,,,,,,,,,,,,,,,,,,,PPT32,001,2022-07-05_14h28.29.768,ABstudy,2022.1.4,59.93971262457014,
AB,Lag5_T1P_T2P,5,P,P,8,13,7,4,17,surf board,Did you see the surf board?,0.12,0.016,JPG\,candy,brownsugar,dice05a,cd,sock01a,blueberry01,button01,surfboard,feather03a,grape01,dandelion,scissors01,stapler03b,candle08b,book01b,globe,blankImage,surfboard,,,,,,,,,,,,0,128,128,142,,,,,,,,,,,,,,,,,,,,,,,,,,,,,,,,,,,777.8745762000326,778.8864596000058,778.8698297999799,779.4448969000368,779.4448969000368,None,781.414566099993,None,left,0.8021732000051998,781.414566099993,None,782.2394487999845,None,left,0.4185525000211783,782.2394487999845,None,,,,,,,,,,,,,,,,,,,,,,,PPT32,001,2022-07-05_14h28.29.768,ABstudy,2022.1.4,59.93971262457014,
AB,Lag5_T1P_T2A,5,P,A,8,13,7,4,17,fountain,Did you see the fountain?,0.12,0.016,JPG\,printer02,envelope03a,potato02b,calculator01,tableknife02,cigarette,ashtray01,parkfountain,broom01,greenolive,candle08b,battery02b,strawberry,candle01,foosballtable,tennisball01b,blankImage,parkfountain,,,,,,,,,,,,0,129,129,219,,,,,,,,,,,,,,,,,,,,,,,,,,,,,,,,,,,782.6921392999939,783.7075493999873,783.6742556000245,784.2596645000158,784.2596645000158,None,786.2339494000189,None,left,0.782815299986396,786.2339494000189,None,787.0448831000249,None,right,0.4044368999893777,787.0448831000249,None,,,,,,,,,,,,,,,,,,,,,,,PPT32,001,2022-07-05_14h28.29.768,ABstudy,2022.1.4,59.93971262457014,
AB,Lag1_T1P_T2P,1,P,P,7,8,6,5,13,disco ball,Did you see the disco ball?,0.12,0.016,JPG\,candle01,paintbrush01,scissors01,fan,microscope,toothbrush03b,discoball,stapler03b,teabag,pencil01,lemon02,ashtray01,shirt02,blankImage,blankImage,blankImage,blankImage,discoball,,,,,,,,,,,,0,130,130,60,,,,,,,,,,,,,,,,,,,,,,,,,,,,,,,,,,,787.5408828000072,788.5460678000236,788.5293897000374,789.1032884999877,789.1032884999877,None,790.6936015000101,None,left,0.8440898999688216,790.6936015000101,None,791.5657370000263,None,left,0.41966760001378134,791.5657370000263,None,,,,,,,,,,,,,,,,,,,,,,,PPT32,001,2022-07-05_14h28.29.768,ABstudy,2022.1.4,59.93971262457014,
AB,Lag1_T1P_T2P,1,P,P,7,8,6,3,11,locker,Did you see the locker?,0.12,0.016,JPG\,toiletpaper01a,lipstick02a,potato02b,speaker04,globe,strawberry,locker,stapler04b,sock01a,candle08b,pen04b,blankImage,blankImage,blankImage,blankImage,blankImage,blankImage,locker,,,,,,,,,,,,0,131,131,19,,,,,,,,,,,,,,,,,,,,,,,,,,,,,,,,,,,792.0215150000295,793.0332531000022,793.0176217000117,793.5945126999868,793.5945126999868,None,794.9789733000216,None,left,0.5428594999830239,794.9789733000216,None,795.5526893000351,None,left,0.31221899995580316,795.5526893000351,None,,,,,,,,,,,,,,,,,,,,,,,PPT32,001,2022-07-05_14h28.29.768,ABstudy,2022.1.4,59.93971262457014,
AB,Lag5_T1P_T2P,5,P,P,5,10,4,4,14,License Plate,Did you see the License Plate?,0.12,0.016,JPG\,toaster01,chain01,sponge01,baseball01a,licenseplate,belt02a,book01b,iron01b,grape01,stapler06,celery,onion,mushroom01,toothbrush03b,blankImage,blankImage,blankImage,licenseplate,,,,,,,,,,,,0,132,132,120,,,,,,,,,,,,,,,,,,,,,,,,,,,,,,,,,,,795.8901837000158,796.9042771999957,796.8875057999976,797.563212500012,797.4768189000315,None,799.1369326999993,None,left,0.47279460000572726,799.1369326999993,None,799.6403700000374,None,left,0.4096910000080243,799.6403700000374,None,,,,,,,,,,,,,,,,,,,,,,,PPT32,001,2022-07-05_14h28.29.768,ABstudy,2022.1.4,59.93971262457014,
AB,Lag1_T1A_T2P,1,A,P,7,8,6,3,11,lion,Did you see the lion?,0.12,0.016,JPG\,sock01a,spoon01,alligator,comb02a,printer02,medal02b,lamp04a,stapler01,greenolive,computerkeyboard02,cauliflower01,blankImage,blankImage,blankImage,blankImage,blankImage,blankImage,bullet,,,,,,,,,,,,0,133,133,229,,,,,,,,,,,,,,,,,,,,,,,,,,,,,,,,,,,800.0785896999878,801.0918529999908,801.0751626000274,801.6692228000029,801.6692228000029,None,803.0480544000166,None,right,0.9692019000067376,803.0480544000166,None,804.0468222000054,None,left,0.553856700018514,804.0468222000054,None,,,,,,,,,,,,,,,,,,,,,,,PPT32,001,2022-07-05_14h28.29.768,ABstudy,2022.1.4,59.93971262457014,
AB,Lag5_T1P_T2P,5,P,P,8,13,7,4,17,lamp,Did you see the lamp?,0.12,0.016,JPG\,globe,broccoli01a,binoculars01b,iron01b,avocado01,dandelion,pineapple01a,floorlamp,fan,pizza,celery,blueberry01,stapler01,dice05a,watermelon01,candy,blankImage,floorlamp,,,,,,,,,,,,0,134,134,99,,,,,,,,,,,,,,,,,,,,,,,,,,,,,,,,,,,804.6281145000248,805.629340799991,805.6127145999926,806.2273149000248,806.2273149000248,None,808.1129125999869,None,left,0.8237876000348479,808.1129125999869,None,808.967073399981,None,left,0.43522059998940676,808.967073399981,None,,,,,,,,,,,,,,,,,,,,,,,PPT32,001,2022-07-05_14h28.29.768,ABstudy,2022.1.4,59.93971262457014,
AB,Lag1_T1A_T2P,1,A,P,8,9,7,4,13,Rabbit,Did you see the Rabbit?,0.12,0.016,JPG\,lamp04a,broccoli01a,alligator,garlic01a,dandelion,brownsugar,avocado01,ring01,stapler06,cellphone,medal02b,cd,calculator01,blankImage,blankImage,blankImage,blankImage,escalator,,,,,,,,,,,,0,135,135,254,,,,,,,,,,,,,,,,,,,,,,,,,,,,,,,,,,,809.4368482999853,810.4508667000337,810.4342115999898,811.0627995000104,810.9917701000231,None,812.6378433000064,None,right,0.8113580000353977,812.6378433000064,None,813.4708033000352,None,left,0.4832775000249967,813.4708033000352,None,,,,,,,,,,,,,,,,,,,,,,,PPT32,001,2022-07-05_14h28.29.768,ABstudy,2022.1.4,59.93971262457014,
AB,Lag5_T1P_T2P,5,P,P,5,10,4,5,15,rake,Did you see the rake?,0.12,0.016,JPG\,scissors01,grape01,mushroom01,toiletpaper01a,leafrake,pizza,cigarette,ashtray01,carrot01,stapler03b,foosballtable,lipstick02a,teabag,acorn,potato02b,blankImage,blankImage,leafrake,,,,,,,,,,,,0,136,136,92,,,,,,,,,,,,,,,,,,,,,,,,,,,,,,,,,,,813.9739662000211,814.9887659000233,814.9553777999827,815.5380992999999,815.5380992999999,None,817.4510483000195,None,left,0.6618133999872953,817.4510483000195,None,818.1417647000053,None,left,0.37917540001217276,818.1417647000053,None,,,,,,,,,,,,,,,,,,,,,,,PPT32,001,2022-07-05_14h28.29.768,ABstudy,2022.1.4,59.93971262457014,
AB,Lag1_T1A_T2P,1,A,P,8,9,7,4,13,nose,Did you see the nose?,0.12,0.016,JPG\,pizza,strawberry,potato02b,speaker04,battery02b,iron01b,dice05a,cellphone,stapler06,banana01,medal02b,baseball01a,toaster01,blankImage,blankImage,blankImage,blankImage,cow,,,,,,,,,,,,0,137,137,231,,,,,,,,,,,,,,,,,,,,,,,,,,,,,,,,,,,818.5445159000228,819.5599453999894,819.526591300033,820.1200998999993,820.1200998999993,None,821.7118903999799,None,right,0.8811276000342332,821.7118903999799,None,822.6132470000302,None,left,0.4127880000160076,822.6132470000302,None,,,,,,,,,,,,,,,,,,,,,,,PPT32,001,2022-07-05_14h28.29.768,ABstudy,2022.1.4,59.93971262457014,
