TrialType,CondType,Lag,T1_PA,T2_PA,T1Loc,T2Loc,PreDistractor,PostDistractor,TotalImg,cueWord,T1cue,StimLength,isi,PicFolder,Img1,Img2,Img3,Img4,Img5,Img6,Img7,Img8,Img9,Img10,Img11,Img12,Img13,Img14,Img15,Img16,Img17,T1_Identity,ImageType,T1PA,T2PA,Picture,Image,FullPathName,FilePath,Practice_Trials.thisRepN,Practice_Trials.thisTrialN,Practice_Trials.thisN,Practice_Trials.thisIndex,trials.thisRepN,trials.thisTrialN,trials.thisN,trials.thisIndex,trials_2.thisRepN,trials_2.thisTrialN,trials_2.thisN,trials_2.thisIndex,Practice_Ins.started,Practice_Ins.stopped,End_Prac_Ins.keys,End_Prac_Ins.rt,End_Prac_Ins.started,End_Prac_Ins.stopped,text_2.started,text_2.stopped,Fixation_Cross_2.started,Fixation_Cross_2.stopped,Rapid_Image_Present_2.started,Rapid_Image_Present_2.stopped,key_resp.keys,key_resp.rt,key_resp.started,key_resp.stopped,T1Response_2.started,T1Response_2.stopped,T2Response_2.started,T2Response_2.stopped,key_resp_4.keys,key_resp_4.rt,key_resp_4.started,key_resp_4.stopped,text.started,text.stopped,End_Instructions.keys,End_Instructions.rt,End_Instructions.started,End_Instructions.stopped,text_5.started,text_5.stopped,FC.started,FC.stopped,Rapid_Image_Present.started,Rapid_Image_Present.stopped,T1Response.started,T1Response.stopped,key_resp_2.keys,key_resp_2.rt,key_resp_2.started,key_resp_2.stopped,T2Response.started,T2Response.stopped,key_resp_3.keys,key_resp_3.rt,key_resp_3.started,key_resp_3.stopped,text_6.started,text_6.stopped,Fin_ins.keys,Fin_ins.rt,Fin_ins.started,Fin_ins.stopped,MemTest.started,MemTest.stopped,MemResponse.keys,MemResponse.rt,MemResponse.started,MemResponse.stopped,Display.started,Display.stopped,text_7.started,text_7.stopped,endOfExperiment.started,endOfExperiment.stopped,key_resp_5.keys,key_resp_5.rt,key_resp_5.started,key_resp_5.stopped,participant,session,date,expName,psychopyVersion,frameRate,
,,,,,,,,,,,,,,,,,,,,,,,,,,,,,,,,,,,,,,,,,,,,,,,,,,,,15.560028300038539,None,space,41.08241989999078,15.560028300038539,None,,,,,,,,,,,,,,,,,,,,,,,,,,,,,,,,,,,,,,,,,,,,,,,,,,,,,,,,,,,,,,,,,PPT39,001,2022-07-07_10h53.25.000,ABstudy,2022.1.4,59.93080389716869,
AB_Prac,Lag5_T1A_T2P,5,A,P,6,11,5,3,14,dog,Did you see the dog?,0.5,0.016,JPG\,bucket01a,doorlock,cookiecutter,fireextinguisher01,gluestick,highlighter02b,sportbag,spraybottle01,suitcase,thread02,stapler05,walnut01c,icecubetray01a,vikingmask01b,blankImage,blankImage,blankImage,None,,,,,,,,0,0,0,9,,,,,,,,,,,,,,,56.739551100065,57.74175699998159,57.725294600008056,58.35463359998539,58.35463359998539,None,right,2.7526813000440598,65.4093397000106,None,65.4093397000106,None,68.18546950002201,None,left,1.5356198999797925,68.18546950002201,None,,,,,,,,,,,,,,,,,,,,,,,,,,,,,,,,,,,,,,,,,,,,,,,PPT39,001,2022-07-07_10h53.25.000,ABstudy,2022.1.4,59.93080389716869,
AB_Prac,Lag5_T1P_T2P,5,P,P,7,12,6,3,15,vacuum,Did you see the vacuum?,0.5,0.016,JPG\,fork07b,lightbulb01,manshoe,saw02b,shoelace,soap03a,vacuumcleaner01,floortile01,necklace,doll,cabbage,stapler03a,hanger02a,laptop01a,nailpolish03b,blankImage,blankImage,vacuumcleaner01,,,,,,,,0,1,1,2,,,,,,,,,,,,,,,69.76629980001599,70.77150520007126,70.75479540007655,71.32716109999456,71.32716109999456,None,left,1.289303799974732,78.84846650005784,None,78.84846650005784,None,80.16547730006278,None,left,1.0850980000104755,80.16547730006278,None,,,,,,,,,,,,,,,,,,,,,,,,,,,,,,,,,,,,,,,,,,,,,,,PPT39,001,2022-07-07_10h53.25.000,ABstudy,2022.1.4,59.93080389716869,
AB_Prac,Lag1_T1P_T2A,1,P,A,8,9,7,5,14,flower,Did you see the flower?,0.5,0.016,JPG\,razor01,axe01,binder03b,bowl01,kettle01,lettuce,lime,plasticflower01b,mitten04,pencilcase01,plunger02,strawbasket01,toothpick02,wallet02a,blankImage,blankImage,blankImage,plasticflower01b,,,,,,,,0,2,2,5,,,,,,,,,,,,,,,81.29658040008508,82.29997080005705,82.28341390006244,82.87689820001833,82.87689820001833,None,left,1.7759423999814317,89.92157220002264,None,89.92157220002264,None,91.72556140006054,None,right,0.9242607000051066,91.72556140006054,None,,,,,,,,,,,,,,,,,,,,,,,,,,,,,,,,,,,,,,,,,,,,,,,PPT39,001,2022-07-07_10h53.25.000,ABstudy,2022.1.4,59.93080389716869,
AB_Prac,Lag5_T1P_T2P,5,P,P,5,10,4,5,15,Vulture,Did you see the Vulture?,0.5,0.016,JPG\,shorts01,toast,ramekin01,bib,vulture,cracker02,date,glasses01a,hat03b,stapler01,measuringtape01,nail,pill,drum01,starfish01,blankImage,blankImage,vulture,,,,,,,,0,3,3,3,,,,,,,,,,,,,,,92.68497240007855,93.69420060003176,93.67754150007386,94.2971159000881,94.2971159000881,None,left,1.2344603000674397,101.81531610002276,None,101.81531610002276,None,103.07147630001418,None,left,0.8578181999037042,103.07147630001418,None,,,,,,,,,,,,,,,,,,,,,,,,,,,,,,,,,,,,,,,,,,,,,,,PPT39,001,2022-07-07_10h53.25.000,ABstudy,2022.1.4,59.93080389716869,
AB_Prac,Lag1_T1P_T2P,1,P,P,8,9,7,5,14,Tennis racket,Did you see the Tennis racket?,0.5,0.016,JPG\,coconut,computermouse06,croissant01,deodorant02a,pillow01a,peanut01,boot02b,tennisracket,stapler03b,crayon,eggplant,marker01a,plant01,radish01,blankImage,blankImage,blankImage,tennisracket,,,,,,,,0,4,4,0,,,,,,,,,,,,,,,103.96140160004143,104.97210670006461,104.95525400002953,105.5389650000725,105.5389650000725,None,left,1.0590469000162557,112.59809710003901,None,112.59809710003901,None,113.68071390001569,None,left,0.8727290000533685,113.68071390001569,None,,,,,,,,,,,,,,,,,,,,,,,,,,,,,,,,,,,,,,,,,,,,,,,PPT39,001,2022-07-07_10h53.25.000,ABstudy,2022.1.4,59.93080389716869,
AB_Prac,Lag5_T1A_T2A,5,A,A,6,11,5,5,16,castle,Did you see the castle?,0.5,0.016,JPG\,tape02a,englishmuffin,flask,ladle02a,monitor,peach01,keychain,squeegee01b,telephone01b,whisk,walkman,syringe02,baguette01,coaster,box01a,coffeepot03a,blankImage,None,,,,,,,,0,5,5,11,,,,,,,,,,,,,,,114.58606410003267,115.59921010001563,115.58216440002434,116.20121920004021,116.20121920004021,None,right,0.8585747999604791,124.17502820002846,None,124.17502820002846,None,125.05883600004017,None,right,0.8301176999229938,125.05883600004017,None,,,,,,,,,,,,,,,,,,,,,,,,,,,,,,,,,,,,,,,,,,,,,,,PPT39,001,2022-07-07_10h53.25.000,ABstudy,2022.1.4,59.93080389716869,
AB_Prac,Lag1_T1P_T2P,1,P,P,6,7,5,5,12,triangle,Did you see the triangle?,0.5,0.016,JPG\,ginger,mousetrap,plum01,slipper01b,dropper01,triangle,stapler04b,pants,raspberry01,rope03,scale01a,vase01,blankImage,blankImage,blankImage,blankImage,blankImage,triangle,,,,,,,,0,6,6,1,,,,,,,,,,,,,,,125.91460330004338,126.92739379999693,126.91071369999554,127.51498460001312,127.51498460001312,None,left,1.029611200094223,133.6200150999939,None,133.6200150999939,None,134.66808370000217,None,right,0.51735659991391,134.66808370000217,None,,,,,,,,,,,,,,,,,,,,,,,,,,,,,,,,,,,,,,,,,,,,,,,PPT39,001,2022-07-07_10h53.25.000,ABstudy,2022.1.4,59.93080389716869,
AB_Prac,Lag5_T1P_T2A,5,P,A,6,11,5,5,16,bread,Did you see the bread?,0.5,0.016,JPG\,cleaver01,clipboard,dustpan,hikingshoe01,notebook03a,baguette01,playingcard,pliers02b,styrofoamcup,rollingpin01a,swimgoggles,wineglass01,fryingpan02a,safetypin,syringe01,thimble,blankImage,baguette01,,,,,,,,0,7,7,8,,,,,,,,,,,,,,,135.20580840006005,136.2196074000094,136.20293000002857,136.77820810000412,136.77820810000412,None,left,1.0943858999526128,144.794755000039,None,144.794755000039,None,145.91281190002337,None,right,0.44852069998160005,145.91281190002337,None,,,,,,,,,,,,,,,,,,,,,,,,,,,,,,,,,,,,,,,,,,,,,,,PPT39,001,2022-07-07_10h53.25.000,ABstudy,2022.1.4,59.93080389716869,
AB_Prac,Lag1_T1A_T2A,1,A,A,8,9,7,3,12,Moose,Did you see the Moose?,0.5,0.016,JPG\,clothespin03b,corkscrew03a,drillbit03a,fusilli03a,needlenosepliers01,perfume01a,pistachio,scrubbingbrush05b,spatula03,toothpastetube,hinge,toydinosaur,blankImage,blankImage,blankImage,blankImage,blankImage,None,,,,,,,,0,8,8,10,,,,,,,,,,,,,,,146.3835274000885,147.39774170005694,147.3809291999787,147.95758580008987,147.95758580008987,None,right,0.9867193000391126,153.99832430004608,None,153.99832430004608,None,155.0065921000205,None,right,0.6119119999930263,155.0065921000205,None,,,,,,,,,,,,,,,,,,,,,,,,,,,,,,,,,,,,,,,,,,,,,,,PPT39,001,2022-07-07_10h53.25.000,ABstudy,2022.1.4,59.93080389716869,
AB_Prac,Lag1_T1P_T2A,1,P,A,5,6,4,5,11,Webcam,Did you see the Webcam?,0.5,0.016,JPG\,pictureframe04,binder03b,straw,adjustablewrench01b,webcam,cane,hairdryer02a,icepack,kitchenscale01a,lifejacket,piggybank,blankImage,blankImage,blankImage,blankImage,blankImage,blankImage,webcam,,,,,,,,0,9,9,6,,,,,,,,,,,,,,,155.6549911000766,156.65669289999641,156.64022030006163,157.22931339999195,157.22931339999195,None,left,1.1051885000197217,162.74438030004967,None,162.74438030004967,None,163.8806379000889,None,right,0.512954100035131,163.8806379000889,None,,,,,,,,,,,,,,,,,,,,,,,,,,,,,,,,,,,,,,,,,,,,,,,PPT39,001,2022-07-07_10h53.25.000,ABstudy,2022.1.4,59.93080389716869,
AB_Prac,Lag5_T1P_T2A,5,P,A,6,11,5,5,16,Wheat,Did you see the Wheat?,0.5,0.016,JPG\,bottleopener01,dentalfloss03b,cooler01,icecreamcone01a,paperclip01b,wheat,pencilsharpener02a,plasticbasket01a,toycar04,apricot,hairclip02,rock01a,honeydewmelon,antenna,blackberry,cardboardbox,blankImage,wheat,,,,,,,,0,10,10,7,,,,,,,,,,,,,,,164.42202669999097,165.43215050001163,165.41537910001352,165.99669860000722,165.99669860000722,None,left,0.9912872000131756,174.01032610004768,None,174.01032610004768,None,175.02513480000198,None,right,0.4956033000489697,175.02513480000198,None,,,,,,,,,,,,,,,,,,,,,,,,,,,,,,,,,,,,,,,,,,,,,,,PPT39,001,2022-07-07_10h53.25.000,ABstudy,2022.1.4,59.93080389716869,
AB_Prac,Lag5_T1P_T2P,5,P,P,5,10,4,5,15,washing machine,Did you see the washing machine?,0.5,0.016,JPG\,waterbottle03,wheel01,flashlight02b,zucchini01,washingmachine,headphones02b,nutcracker01,paintroller01,paperclip03,stapler06,ribbon04,electricrazor,bottleofredwine01,pitabread,pot02a,blankImage,blankImage,washingmachine,,,,,,,,0,11,11,4,,,,,,,,,,,,,,,175.5482803999912,176.55992510006763,176.5433553000912,177.12282030005008,177.12282030005008,None,left,0.6231567000504583,184.63432650000323,None,184.63432650000323,None,185.28513460000977,None,left,0.9563600000692531,185.28513460000977,None,,,,,,,,,,,,,,,,,,,,,,,,,,,,,,,,,,,,,,,,,,,,,,,PPT39,001,2022-07-07_10h53.25.000,ABstudy,2022.1.4,59.93080389716869,
,,,,,,,,,,,,,,,,,,,,,,,,,,,,,,,,,,,,,,,,,,,,,,,,,,,,,,,,,,,,,,,,,,,,,,,,,,,,186.26951670006383,None,space,15.25172980001662,186.26951670006383,None,,,,,,,,,,,,,,,,,,,,,,,,,,,,,,,,,,,,,,,,,PPT39,001,2022-07-07_10h53.25.000,ABstudy,2022.1.4,59.93080389716869,
AB,Lag5_T1P_T2A,5,P,A,5,10,4,5,15,Shield,Did you see the Shield?,0.12,0.016,JPG\,cigarette,fork03c,greenolive,broccoli01a,shield02,tennisball01b,balloon01b,leaf02a,pig,fan,clock01a,strawberry,envelope03a,birthdaycandle,teabag,blankImage,blankImage,shield02,,,,,,,,,,,,0,0,0,223,,,,,,,,,,,,,,,,,,,,,,,,,,,,,,,,,,,202.27076260000467,203.26989700004924,203.25317290006205,203.86682310001925,203.86682310001925,None,205.6782097000396,None,right,1.3068987999577075,205.6782097000396,None,207.00773920002393,None,right,0.5697268999647349,207.00773920002393,None,,,,,,,,,,,,,,,,,,,,,,,PPT39,001,2022-07-07_10h53.25.000,ABstudy,2022.1.4,59.93080389716869,
AB,Lag1_T1P_T2P,1,P,P,7,8,6,3,11,compass,Did you see the compass?,0.12,0.016,JPG\,brick,plate01b,pen04b,toaster01,screwdriver04b,candle01,magneticcompass,stapler03a,pig,ring01,orange,blankImage,blankImage,blankImage,blankImage,blankImage,blankImage,magneticcompass,,,,,,,,,,,,0,1,1,66,,,,,,,,,,,,,,,,,,,,,,,,,,,,,,,,,,,207.65027390001342,208.6586585000623,208.6252321000211,209.21898090001196,209.21898090001196,None,210.51404640008695,None,left,1.0946547999046743,210.51404640008695,None,211.62825160007924,None,right,0.5164234000258148,211.62825160007924,None,,,,,,,,,,,,,,,,,,,,,,,PPT39,001,2022-07-07_10h53.25.000,ABstudy,2022.1.4,59.93080389716869,
AB,Lag1_T1P_T2P,1,P,P,5,6,4,5,11,owl,Did you see the owl?,0.12,0.016,JPG\,cellphone,tomato01,comb02a,candy,barnowl,stapler03a,toaster01,fan,feather03a,pen04b,lemon02,blankImage,blankImage,blankImage,blankImage,blankImage,blankImage,barnowl,,,,,,,,,,,,0,2,2,33,,,,,,,,,,,,,,,,,,,,,,,,,,,,,,,,,,,212.16569960000925,213.17976189998444,213.14638100005686,213.75307510001585,213.75307510001585,None,215.12394820002373,None,left,2.269807600066997,215.12394820002373,None,217.41728659998626,None,right,0.4004661999642849,217.41728659998626,None,,,,,,,,,,,,,,,,,,,,,,,PPT39,001,2022-07-07_10h53.25.000,ABstudy,2022.1.4,59.93080389716869,
AB,Lag1_T1A_T2P,1,A,P,8,9,7,4,13,Rabbit,Did you see the Rabbit?,0.12,0.016,JPG\,lamp04a,broccoli01a,alligator,garlic01a,dandelion,brownsugar,avocado01,ring01,stapler06,cellphone,medal02b,cd,calculator01,blankImage,blankImage,blankImage,blankImage,escalator,,,,,,,,,,,,0,3,3,254,,,,,,,,,,,,,,,,,,,,,,,,,,,,,,,,,,,217.89965450007003,218.90255120000802,218.8858227999881,219.46270660008304,219.46270660008304,None,220.9653832000913,None,right,1.4197994000278413,220.9653832000913,None,222.405258600018,None,left,0.5400932000484318,222.405258600018,None,,,,,,,,,,,,,,,,,,,,,,,PPT39,001,2022-07-07_10h53.25.000,ABstudy,2022.1.4,59.93080389716869,
AB,Lag1_T1A_T2P,1,A,P,5,6,4,3,9,barrel,Did you see the barrel?,0.12,0.016,JPG\,clock01a,cellphone,toaster01,toothbrush03b,cauliflower01,stapler01,comb02a,paintbrush01,scarf,blankImage,blankImage,blankImage,blankImage,blankImage,blankImage,blankImage,blankImage,sheep,,,,,,,,,,,,0,4,4,243,,,,,,,,,,,,,,,,,,,,,,,,,,,,,,,,,,,222.97343380004168,223.97384870005772,223.9571720000822,224.53424070007168,224.53424070007168,None,225.70728079997934,None,right,1.7255968000972643,225.70728079997934,None,227.46065020002425,None,right,2.94050160003826,227.46065020002425,None,,,,,,,,,,,,,,,,,,,,,,,PPT39,001,2022-07-07_10h53.25.000,ABstudy,2022.1.4,59.93080389716869,
AB,Lag1_T1A_T2P,1,A,P,5,6,4,3,9,Spider,Did you see the Spider?,0.12,0.016,JPG\,pen04b,speaker04,lighter01,cherry01,8ball,stapler04b,sock01a,toothbrush03b,broom01,blankImage,blankImage,blankImage,blankImage,blankImage,blankImage,blankImage,blankImage,bridge,,,,,,,,,,,,0,5,5,250,,,,,,,,,,,,,,,,,,,,,,,,,,,,,,,,,,,230.43102760007605,231.43125420005526,231.4146972000599,231.99610450002365,231.99610450002365,None,233.08444330003113,None,right,1.0775427999906242,233.08444330003113,None,234.18407850002404,None,left,0.5774637999711558,234.18407850002404,None,,,,,,,,,,,,,,,,,,,,,,,PPT39,001,2022-07-07_10h53.25.000,ABstudy,2022.1.4,59.93080389716869,
AB,Lag1_T1P_T2P,1,P,P,8,9,7,5,14,giraffe,Did you see the giraffe?,0.12,0.016,JPG\,pencil01,foosballtable,banana01,lipstick02a,toaster01,grape01,key01,giraffe,stapler03b,pineapple01a,strawberry,teabag,dandelion,paintbrush01,blankImage,blankImage,blankImage,giraffe,,,,,,,,,,,,0,6,6,0,,,,,,,,,,,,,,,,,,,,,,,,,,,,,,,,,,,234.78854760003742,235.80231410008855,235.7856781000737,236.3655896000564,236.3655896000564,None,238.0850537000224,None,left,1.1645418000407517,238.0850537000224,None,239.27241490001325,None,left,0.5611476000631228,239.27241490001325,None,,,,,,,,,,,,,,,,,,,,,,,PPT39,001,2022-07-07_10h53.25.000,ABstudy,2022.1.4,59.93080389716869,
AB,Lag1_T1P_T2P,1,P,P,6,7,5,3,10,Pool table,Did you see the Pool table?,0.12,0.016,JPG\,tomato01,pen04b,shirt02,carrot01,lamp04a,pooltable,stapler06,avocado01,sewingmachine01a,apple07,blankImage,blankImage,blankImage,blankImage,blankImage,blankImage,blankImage,pooltable,,,,,,,,,,,,0,7,7,29,,,,,,,,,,,,,,,,,,,,,,,,,,,,,,,,,,,239.8660394999897,240.87404520006385,240.85735419997945,241.44686790008564,241.44686790008564,None,242.64942830009386,None,left,1.1594446999952197,242.64942830009386,None,243.8282409000676,None,left,0.42063200008124113,243.8282409000676,None,,,,,,,,,,,,,,,,,,,,,,,PPT39,001,2022-07-07_10h53.25.000,ABstudy,2022.1.4,59.93080389716869,
AB,Lag1_T1P_T2P,1,P,P,5,6,4,5,11,Basketball,Did you see the Basketball?,0.12,0.016,JPG\,pencil01,microscope,banana01,computerkeyboard02,basketball01,stapler04b,scissors01,sock01a,book01b,onion,dice05a,blankImage,blankImage,blankImage,blankImage,blankImage,blankImage,basketball01,,,,,,,,,,,,0,8,8,34,,,,,,,,,,,,,,,,,,,,,,,,,,,,,,,,,,,244.2874993000878,245.29491250007413,245.2782185000833,245.86860849999357,245.86860849999357,None,247.1997383000562,None,right,0.9367031999863684,247.1997383000562,None,248.1646122999955,None,left,0.37195500009693205,248.1646122999955,None,,,,,,,,,,,,,,,,,,,,,,,PPT39,001,2022-07-07_10h53.25.000,ABstudy,2022.1.4,59.93080389716869,
AB,Lag1_T1P_T2P,1,P,P,5,6,4,3,9,mail box,Did you see the mail box?,0.12,0.016,JPG\,watermelon01,banana01,ring01,pencil01,mailbox02,stapler04b,cucumber,thermometer02b,key01,blankImage,blankImage,blankImage,blankImage,blankImage,blankImage,blankImage,blankImage,mailbox02,,,,,,,,,,,,0,9,9,21,,,,,,,,,,,,,,,,,,,,,,,,,,,,,,,,,,,248.57142070005648,249.5826610000804,249.5659796000691,250.15705859998707,250.15705859998707,None,251.21894060005434,None,left,2.47000480000861,251.21894060005434,None,253.71992320008576,None,left,0.4649355000583455,253.71992320008576,None,,,,,,,,,,,,,,,,,,,,,,,PPT39,001,2022-07-07_10h53.25.000,ABstudy,2022.1.4,59.93080389716869,
AB,Lag1_T1P_T2P,1,P,P,8,9,7,3,12,bridge,Did you see the bridge?,0.12,0.016,JPG\,speaker04,sewingmachine01a,eraser,violin,globe,belt02a,sunglasses04,bridge,stapler01,greenolive,alligator,pear01,blankImage,blankImage,blankImage,blankImage,blankImage,bridge,,,,,,,,,,,,0,10,10,78,,,,,,,,,,,,,,,,,,,,,,,,,,,,,,,,,,,254.20824090007227,255.2219631000189,255.20531650003977,255.79727049998473,255.79727049998473,None,257.2757981000468,None,left,1.437072500004433,257.2757981000468,None,258.74179700005334,None,left,0.4271142999641597,258.74179700005334,None,,,,,,,,,,,,,,,,,,,,,,,PPT39,001,2022-07-07_10h53.25.000,ABstudy,2022.1.4,59.93080389716869,
AB,Lag1_T1P_T2P,1,P,P,5,6,4,5,11,football,Did you see the football?,0.12,0.016,JPG\,globe,belt02a,sponge01,violin,soccerball,stapler01,clock01a,microscope,balloon01b,scarf,teabag,blankImage,blankImage,blankImage,blankImage,blankImage,blankImage,soccerball,,,,,,,,,,,,0,11,11,26,,,,,,,,,,,,,,,,,,,,,,,,,,,,,,,,,,,259.1962672000518,260.20997700002044,260.19322860008106,260.7946861999808,260.7946861999808,None,262.0968654000899,None,left,1.4558285999810323,262.0968654000899,None,263.5800053999992,None,left,0.30955540004651994,263.5800053999992,None,,,,,,,,,,,,,,,,,,,,,,,PPT39,001,2022-07-07_10h53.25.000,ABstudy,2022.1.4,59.93080389716869,
AB,Lag1_T1P_T2P,1,P,P,7,8,6,3,11,tree,Did you see the tree?,0.12,0.016,JPG\,pear01,clock01a,cymbal,match,ashtray01,globe,tree,stapler03b,lemon02,pen04b,dice05a,blankImage,blankImage,blankImage,blankImage,blankImage,blankImage,tree,,,,,,,,,,,,0,12,12,51,,,,,,,,,,,,,,,,,,,,,,,,,,,,,,,,,,,263.9183570999885,264.9313573000254,264.9147103000432,265.4813295000931,265.4813295000931,None,266.8558880999917,None,left,0.937284899991937,266.8558880999917,None,267.8175214000512,None,right,0.35111699998378754,267.8175214000512,None,,,,,,,,,,,,,,,,,,,,,,,PPT39,001,2022-07-07_10h53.25.000,ABstudy,2022.1.4,59.93080389716869,
AB,Lag5_T1P_T2P,5,P,P,5,10,4,3,13,bathtub,Did you see the bathtub?,0.12,0.016,JPG\,belt02a,sunglasses04,computerkeyboard02,cherry01,bathtub,eraser,watch02a,dice05a,blueberry01,stapler04b,match,leaf02a,iron01b,blankImage,blankImage,blankImage,blankImage,bathtub,,,,,,,,,,,,0,13,13,103,,,,,,,,,,,,,,,,,,,,,,,,,,,,,,,,,,,268.2048914000625,269.2189515000209,269.20224810007494,269.78648180002347,269.78648180002347,None,271.3763982000528,None,right,1.1919680000282824,271.3763982000528,None,272.5887416000478,None,left,0.37245859997347,272.5887416000478,None,,,,,,,,,,,,,,,,,,,,,,,PPT39,001,2022-07-07_10h53.25.000,ABstudy,2022.1.4,59.93080389716869,
AB,Lag1_T1P_T2A,1,P,A,5,6,4,4,10,flower,Did you see the flower?,0.12,0.016,JPG\,broom01,globe,cellphone,tableknife02,daffodil,scissors01,ring01,alligator,rice,toaster01,blankImage,blankImage,blankImage,blankImage,blankImage,blankImage,blankImage,daffodil,,,,,,,,,,,,0,14,14,184,,,,,,,,,,,,,,,,,,,,,,,,,,,,,,,,,,,273.00412860000506,274.0068144000834,273.9734591000015,274.5420722999843,274.5420722999843,None,275.8541966000339,None,right,1.026604300015606,275.8541966000339,None,276.9101707000518,None,right,0.40275779995135963,276.9101707000518,None,,,,,,,,,,,,,,,,,,,,,,,PPT39,001,2022-07-07_10h53.25.000,ABstudy,2022.1.4,59.93080389716869,
AB,Lag5_T1P_T2A,5,P,A,6,11,5,3,14,toy truck,Did you see the toy truck?,0.12,0.016,JPG\,globe,belt02a,sponge01,violin,fork03c,bluecheese,clock01a,microscope,balloon01b,scarf,teabag,pen04b,brick,brownsugar,blankImage,blankImage,blankImage,bluecheese,,,,,,,,,,,,0,15,15,204,,,,,,,,,,,,,,,,,,,,,,,,,,,,,,,,,,,277.3471257000929,278.3613080000505,278.34469729999546,278.9592162000481,278.9592162000481,None,280.53692840004805,None,right,1.361142799956724,280.53692840004805,None,281.9149172999896,None,right,0.7499161000596359,281.9149172999896,None,,,,,,,,,,,,,,,,,,,,,,,PPT39,001,2022-07-07_10h53.25.000,ABstudy,2022.1.4,59.93080389716869,
AB,Lag5_T1P_T2A,5,P,A,8,13,7,3,16,leaf blower,Did you see the leaf blower?,0.12,0.016,JPG\,printer02,leaf02a,cauliflower01,sock01a,brownsugar,paintbrush01,pig,leafblower01,belt02a,shirt02,key01,match,cigarette,scissors01,envelope03a,blueberry01,blankImage,leafblower01,,,,,,,,,,,,0,16,16,216,,,,,,,,,,,,,,,,,,,,,,,,,,,,,,,,,,,282.6873730000807,283.70006000006106,283.6833966000704,284.26593980006874,284.26593980006874,None,286.169290299993,None,left,0.6243337000487372,286.169290299993,None,286.81929120002314,None,left,0.29379669995978475,286.81929120002314,None,,,,,,,,,,,,,,,,,,,,,,,PPT39,001,2022-07-07_10h53.25.000,ABstudy,2022.1.4,59.93080389716869,
AB,Lag5_T1A_T2A,5,A,A,5,10,4,5,15,truck,Did you see the truck?,0.12,0.016,JPG\,pizza,printer02,medal02b,spoon01,grape01,lighter01,belt02a,watermelon01,celery,battery02b,screw02,comb02a,cauliflower01,lipstick02a,potato02b,blankImage,blankImage,postalmailbox01,,,,,,,,,,,,0,17,17,297,,,,,,,,,,,,,,,,,,,,,,,,,,,,,,,,,,,287.1388571000425,288.13783710007556,288.121196800028,288.74094140005764,288.74094140005764,None,290.5841104000574,None,right,0.7767816999694332,290.5841104000574,None,291.3910181000829,None,right,0.33086119999643415,291.3910181000829,None,,,,,,,,,,,,,,,,,,,,,,,PPT39,001,2022-07-07_10h53.25.000,ABstudy,2022.1.4,59.93080389716869,
AB,Lag1_T1P_T2P,1,P,P,7,8,6,5,13,school bus,Did you see the school bus?,0.12,0.016,JPG\,aceofdiamond,banana01,scissors01,pig,shirt02,leaf02a,schoolbus,stapler05,fork03c,tableknife02,balloon01b,match,toothbrush03b,blankImage,blankImage,blankImage,blankImage,schoolbus,,,,,,,,,,,,0,18,18,24,,,,,,,,,,,,,,,,,,,,,,,,,,,,,,,,,,,291.7464972999878,292.75899580004625,292.74227430007886,293.3441598000936,293.3441598000936,None,294.8769711999921,None,left,0.8914767999667674,294.8769711999921,None,295.79534449998755,None,right,0.44542259990703315,295.79534449998755,None,,,,,,,,,,,,,,,,,,,,,,,PPT39,001,2022-07-07_10h53.25.000,ABstudy,2022.1.4,59.93080389716869,
AB,Lag1_T1P_T2P,1,P,P,6,7,5,5,12,Snowboard,Did you see the Snowboard?,0.12,0.016,JPG\,belt02a,measuringcup01,spoon01,chain01,greenolive,snowboard,stapler01,onion,fan,strawberry,candle01,broom01,blankImage,blankImage,blankImage,blankImage,blankImage,snowboard,,,,,,,,,,,,0,19,19,49,,,,,,,,,,,,,,,,,,,,,,,,,,,,,,,,,,,296.26820960000623,297.2802270000102,297.263542800094,297.8412606000202,297.8412606000202,None,299.32993550004903,None,left,2.8236146999988705,299.32993550004903,None,302.1852266000351,None,left,0.5994984999997541,302.1852266000351,None,,,,,,,,,,,,,,,,,,,,,,,PPT39,001,2022-07-07_10h53.25.000,ABstudy,2022.1.4,59.93080389716869,
AB,Lag5_T1P_T2P,5,P,P,8,13,7,3,16,parachute,Did you see the parachute?,0.12,0.016,JPG\,brick,plate01b,pen04b,toaster01,screwdriver04b,candle01,envelope03a,parachute,pig,ring01,orange,clock01a,stapler03b,calculator01,mushroom01,chain01,blankImage,parachute,,,,,,,,,,,,0,20,20,114,,,,,,,,,,,,,,,,,,,,,,,,,,,,,,,,,,,302.84957930003293,303.8528963000281,303.8361803999869,304.4229892999865,304.4229892999865,None,306.3392751000356,None,right,0.6853960000444204,306.3392751000356,None,307.05655039998237,None,right,0.40024210000410676,307.05655039998237,None,,,,,,,,,,,,,,,,,,,,,,,PPT39,001,2022-07-07_10h53.25.000,ABstudy,2022.1.4,59.93080389716869,
AB,Lag5_T1P_T2P,5,P,P,5,10,4,5,15,scorpion,Did you see the scorpion?,0.12,0.016,JPG\,fan,tomato01,candy,screwdriver04b,scorpion,cd,thermometer02b,apple07,button01,stapler01,brownsugar,lighter01,clock01a,envelope03a,clock04,blankImage,blankImage,scorpion,,,,,,,,,,,,0,21,21,97,,,,,,,,,,,,,,,,,,,,,,,,,,,,,,,,,,,307.4797197000589,308.4913205000339,308.4746707000304,309.0843019000022,309.0843019000022,None,310.9083816000493,None,left,0.7640210000099614,310.9083816000493,None,311.69434160005767,None,right,0.3138520000502467,311.69434160005767,None,,,,,,,,,,,,,,,,,,,,,,,PPT39,001,2022-07-07_10h53.25.000,ABstudy,2022.1.4,59.93080389716869,
AB,Lag5_T1A_T2A,5,A,A,7,12,6,3,15,Christmas lights,Did you see the Christmas lights?,0.12,0.016,JPG\,toiletpaper01a,mushroom01,medal02b,sandal,rice,cd,feather03a,pizza,candle08b,garlic01a,toaster01,belt02a,cigarette,violin,lemon02,blankImage,blankImage,rockbass,,,,,,,,,,,,0,22,22,299,,,,,,,,,,,,,,,,,,,,,,,,,,,,,,,,,,,312.03550910006743,313.04572150006425,313.02898840000853,313.6169943000423,313.6169943000423,None,315.4300164000597,None,right,1.1627801000140607,315.4300164000597,None,316.6161202000221,None,right,0.6009756999555975,316.6161202000221,None,,,,,,,,,,,,,,,,,,,,,,,PPT39,001,2022-07-07_10h53.25.000,ABstudy,2022.1.4,59.93080389716869,
AB,Lag1_T1P_T2A,1,P,A,8,9,7,5,14,Fridge,Did you see the Fridge?,0.12,0.016,JPG\,cherry01,cymbal,envelope03a,foosballtable,shirt02,cellphone,sewingmachine01a,fridge,battery02b,apple07,pencil01,screwdriver04b,strawberry,sunglasses04,blankImage,blankImage,blankImage,fridge,,,,,,,,,,,,0,23,23,173,,,,,,,,,,,,,,,,,,,,,,,,,,,,,,,,,,,317.2405581000494,318.25104750005994,318.2341902999906,318.829950000043,318.829950000043,None,320.5474787000567,None,right,2.2700199999380857,320.5474787000567,None,322.83906360005494,None,left,1.0581855999771506,322.83906360005494,None,,,,,,,,,,,,,,,,,,,,,,,PPT39,001,2022-07-07_10h53.25.000,ABstudy,2022.1.4,59.93080389716869,
AB,Lag5_T1P_T2A,5,P,A,5,10,4,3,13,pin,Did you see the pin?,0.12,0.016,JPG\,candle01,fork03c,plate01b,violin,pin,candy,calculator01,paintbrush01,cherry01,sock01a,teabag,banana01,cd,blankImage,blankImage,blankImage,blankImage,pin,,,,,,,,,,,,0,24,24,215,,,,,,,,,,,,,,,,,,,,,,,,,,,,,,,,,,,323.9248274000129,324.9244106999831,324.90813860006165,325.4728084000526,325.4728084000526,None,327.1221623000456,None,right,1.214525599963963,327.1221623000456,None,328.36111920000985,None,right,0.9920145000796765,328.36111920000985,None,,,,,,,,,,,,,,,,,,,,,,,PPT39,001,2022-07-07_10h53.25.000,ABstudy,2022.1.4,59.93080389716869,
AB,Lag1_T1P_T2P,1,P,P,8,9,7,5,14,Waterfall,Did you see the Waterfall?,0.12,0.016,JPG\,pizza,watch02a,greenolive,cucumber,match,violin,scissors01,waterfall,stapler03a,cherry01,ring01,cigarette,microscope,cellphone,blankImage,blankImage,blankImage,waterfall,,,,,,,,,,,,0,25,25,52,,,,,,,,,,,,,,,,,,,,,,,,,,,,,,,,,,,329.4431434000144,330.4465260000434,330.4297954000067,331.02210420009214,331.02210420009214,None,332.6517295000376,None,left,0.9178995999973267,332.6517295000376,None,333.5997150000185,None,right,0.6732304999604821,333.5997150000185,None,,,,,,,,,,,,,,,,,,,,,,,PPT39,001,2022-07-07_10h53.25.000,ABstudy,2022.1.4,59.93080389716869,
AB,Lag5_T1A_T2P,5,A,P,7,12,6,4,16,flower,Did you see the flower?,0.12,0.016,JPG\,printer02,envelope03a,potato02b,calculator01,tableknife02,cigarette,ashtray01,pig,broom01,greenolive,candle08b,stapler03a,strawberry,candle01,foosballtable,tennisball01b,blankImage,calendar,,,,,,,,,,,,0,26,26,282,,,,,,,,,,,,,,,,,,,,,,,,,,,,,,,,,,,334.30416320008226,335.31809100008104,335.3014363000402,335.88727459998336,335.88727459998336,None,337.934316100087,None,right,1.2423664999660105,337.934316100087,None,339.205499600037,None,left,0.46821099997032434,339.205499600037,None,,,,,,,,,,,,,,,,,,,,,,,PPT39,001,2022-07-07_10h53.25.000,ABstudy,2022.1.4,59.93080389716869,
AB,Lag5_T1P_T2P,5,P,P,5,10,4,5,15,ear,Did you see the ear?,0.12,0.016,JPG\,fork03c,plate01b,toiletpaper01a,greenolive,ear,blueberry01,onion,calculator01,envelope03a,stapler06,book01b,pencil01,sewingmachine01a,brick,watermelon01,blankImage,blankImage,ear,,,,,,,,,,,,0,27,27,107,,,,,,,,,,,,,,,,,,,,,,,,,,,,,,,,,,,339.7082850000588,340.7233924000757,340.6900296000531,341.2672653000336,341.2672653000336,None,343.09320480003953,None,left,0.6590942000038922,343.09320480003953,None,343.7770763000008,None,left,0.7920571999857202,343.7770763000008,None,,,,,,,,,,,,,,,,,,,,,,,PPT39,001,2022-07-07_10h53.25.000,ABstudy,2022.1.4,59.93080389716869,
AB,Lag1_T1P_T2P,1,P,P,6,7,5,3,10,fortune cookie,Did you see the fortune cookie?,0.12,0.016,JPG\,scissors01,grape01,mushroom01,toiletpaper01a,greenolive,fortunecookie,stapler03b,ashtray01,carrot01,pineapple01a,blankImage,blankImage,blankImage,blankImage,blankImage,blankImage,blankImage,fortunecookie,,,,,,,,,,,,0,28,28,42,,,,,,,,,,,,,,,,,,,,,,,,,,,,,,,,,,,344.5962551999837,345.61149590008426,345.57811840006616,346.14606460009236,346.14606460009236,None,347.4848190000048,None,left,0.9312357000308111,347.4848190000048,None,348.44780130009167,None,right,0.36192029993981123,348.44780130009167,None,,,,,,,,,,,,,,,,,,,,,,,PPT39,001,2022-07-07_10h53.25.000,ABstudy,2022.1.4,59.93080389716869,
AB,Lag1_T1A_T2P,1,A,P,8,9,7,3,12,porcupine,Did you see the porcupine?,0.12,0.016,JPG\,celery,orange,scissors01,balloon01b,avocado01,printer02,mushroom01,sewingmachine01a,stapler01,dice05a,ashtray01,fan,blankImage,blankImage,blankImage,blankImage,blankImage,drumstick,,,,,,,,,,,,0,29,29,233,,,,,,,,,,,,,,,,,,,,,,,,,,,,,,,,,,,348.83789080008864,349.8491569000762,349.8324623000808,350.4201248000609,350.4201248000609,None,351.92020789999515,None,right,0.959918100037612,351.92020789999515,None,352.9022422999842,None,right,0.6339225999545306,352.9022422999842,None,,,,,,,,,,,,,,,,,,,,,,,PPT39,001,2022-07-07_10h53.25.000,ABstudy,2022.1.4,59.93080389716869,
AB,Lag1_T1P_T2A,1,P,A,5,6,4,5,11,Moon,Did you see the Moon?,0.12,0.016,JPG\,lamp04a,broccoli01a,alligator,garlic01a,moon,brownsugar,avocado01,ring01,leaf02a,cellphone,medal02b,blankImage,blankImage,blankImage,blankImage,blankImage,blankImage,moon,,,,,,,,,,,,0,30,30,190,,,,,,,,,,,,,,,,,,,,,,,,,,,,,,,,,,,353.5578843000112,354.57054290000815,354.5538608999923,355.1350448000012,355.1350448000012,None,356.5095768000465,None,right,1.7871919999597594,356.5095768000465,None,358.3252652999945,None,right,0.6912140999920666,358.3252652999945,None,,,,,,,,,,,,,,,,,,,,,,,PPT39,001,2022-07-07_10h53.25.000,ABstudy,2022.1.4,59.93080389716869,
AB,Lag5_T1P_T2P,5,P,P,5,10,4,5,15,hockey puck,Did you see the hockey puck?,0.12,0.016,JPG\,chain01,pen04b,birthdaycandle,watermelon01,hockeypuck,scissors01,measuringcup01,candle01,hammer01,stapler06,ashtray01,feather03a,sewingmachine01a,thermometer02b,alligator,blankImage,blankImage,hockeypuck,,,,,,,,,,,,0,31,31,110,,,,,,,,,,,,,,,,,,,,,,,,,,,,,,,,,,,359.0457196000498,360.05937939998694,360.04265269997995,360.6051725000143,360.6051725000143,None,362.36164890008513,None,left,0.6790143999969587,362.36164890008513,None,363.06234579999,None,right,0.45064920000731945,363.06234579999,None,,,,,,,,,,,,,,,,,,,,,,,PPT39,001,2022-07-07_10h53.25.000,ABstudy,2022.1.4,59.93080389716869,
AB,Lag1_T1P_T2A,1,P,A,7,8,6,3,11,walkie talkie,Did you see the walkie talkie?,0.12,0.016,JPG\,teabag,envelope03a,cellphone,apple07,cauliflower01,orange,walkietalkie,book01b,hammer01,feather03a,toaster01,blankImage,blankImage,blankImage,blankImage,blankImage,blankImage,walkietalkie,,,,,,,,,,,,0,32,32,197,,,,,,,,,,,,,,,,,,,,,,,,,,,,,,,,,,,363.58581650000997,364.59734279999975,364.58054660004564,365.1628902000375,365.1628902000375,None,366.4824156999821,None,right,0.8377850000979379,366.4824156999821,None,367.3499004000332,None,right,0.6186629999428988,367.3499004000332,None,,,,,,,,,,,,,,,,,,,,,,,PPT39,001,2022-07-07_10h53.25.000,ABstudy,2022.1.4,59.93080389716869,
AB,Lag1_T1P_T2P,1,P,P,7,8,6,3,11,Moose,Did you see the Moose?,0.12,0.016,JPG\,sock01a,spoon01,alligator,comb02a,printer02,medal02b,moose,stapler03a,greenolive,computerkeyboard02,cauliflower01,blankImage,blankImage,blankImage,blankImage,blankImage,blankImage,moose,,,,,,,,,,,,0,33,33,67,,,,,,,,,,,,,,,,,,,,,,,,,,,,,,,,,,,368.00539559999015,369.01823600009084,369.0015236000763,369.5764158000238,369.5764158000238,None,370.9239128000336,None,left,2.2200641999952495,370.9239128000336,None,373.17242830002215,None,left,0.39573869993910193,373.17242830002215,None,,,,,,,,,,,,,,,,,,,,,,,PPT39,001,2022-07-07_10h53.25.000,ABstudy,2022.1.4,59.93080389716869,
AB,Lag5_T1P_T2P,5,P,P,5,10,4,3,13,Rabbit,Did you see the Rabbit?,0.12,0.016,JPG\,celery,tennisball01b,calculator01,pear01,jackrabbit,orange,button01,cellphone,onion,stapler06,iron01b,brownsugar,banana01,blankImage,blankImage,blankImage,blankImage,jackrabbit,,,,,,,,,,,,0,34,34,90,,,,,,,,,,,,,,,,,,,,,,,,,,,,,,,,,,,373.633904300048,374.64052530005574,374.62385059997905,375.2042616000399,375.2042616000399,None,376.7681352000218,None,left,0.8886284000473097,376.7681352000218,None,377.6768967000535,None,right,0.5790971999522299,377.6768967000535,None,,,,,,,,,,,,,,,,,,,,,,,PPT39,001,2022-07-07_10h53.25.000,ABstudy,2022.1.4,59.93080389716869,
AB,Lag1_T1A_T2P,1,A,P,8,9,7,5,14,clock,Did you see the clock?,0.12,0.016,JPG\,speaker04,sewingmachine01a,eraser,violin,globe,belt02a,sunglasses04,cymbal,stapler01,greenolive,alligator,pear01,watch02a,screwdriver04b,blankImage,blankImage,blankImage,peacock,,,,,,,,,,,,0,35,35,240,,,,,,,,,,,,,,,,,,,,,,,,,,,,,,,,,,,378.28133240004536,379.295146199991,379.27846960001625,379.94085010001436,379.8587730000727,None,381.61229770001955,None,right,1.3882789000635967,381.61229770001955,None,383.03205320006236,None,left,0.5286346999928355,383.03205320006236,None,,,,,,,,,,,,,,,,,,,,,,,PPT39,001,2022-07-07_10h53.25.000,ABstudy,2022.1.4,59.93080389716869,
AB,Lag1_T1A_T2A,1,A,A,5,6,4,3,9,Pigeon,Did you see the Pigeon?,0.12,0.016,JPG\,candle01,paintbrush01,scissors01,fan,microscope,toothbrush03b,candle08b,watermelon01,teabag,blankImage,blankImage,blankImage,blankImage,blankImage,blankImage,blankImage,blankImage,floorlamp,,,,,,,,,,,,0,36,36,286,,,,,,,,,,,,,,,,,,,,,,,,,,,,,,,,,,,383.58483010006603,384.6002481000032,384.56682800001,385.14515230001416,385.14515230001416,None,386.25809210003354,None,right,1.9745236999588087,386.25809210003354,None,388.2541326000355,None,right,1.563361700042151,388.2541326000355,None,,,,,,,,,,,,,,,,,,,,,,,PPT39,001,2022-07-07_10h53.25.000,ABstudy,2022.1.4,59.93080389716869,
AB,Lag1_T1P_T2P,1,P,P,8,9,7,4,13,Bird House,Did you see the Bird House?,0.12,0.016,JPG\,toiletpaper01a,mushroom01,medal02b,sandal,rice,cd,feather03a,birdhouse,stapler01,garlic01a,toaster01,belt02a,cigarette,blankImage,blankImage,blankImage,blankImage,birdhouse,,,,,,,,,,,,0,37,37,77,,,,,,,,,,,,,,,,,,,,,,,,,,,,,,,,,,,389.8488406999968,390.85673690005206,390.840074500069,391.4265236000065,391.4265236000065,None,393.0557442000136,None,left,0.9609178999671713,393.0557442000136,None,394.043194900034,None,right,0.6209396000485867,394.043194900034,None,,,,,,,,,,,,,,,,,,,,,,,PPT39,001,2022-07-07_10h53.25.000,ABstudy,2022.1.4,59.93080389716869,
AB,Lag1_T1P_T2P,1,P,P,6,7,5,4,11,American football,Did you see the American football?,0.12,0.016,JPG\,toaster01,garlic01a,faucet,fan,comb02a,football,stapler06,watch02a,onion,blueberry01,toiletpaper01a,blankImage,blankImage,blankImage,blankImage,blankImage,blankImage,football,,,,,,,,,,,,0,38,38,12,,,,,,,,,,,,,,,,,,,,,,,,,,,,,,,,,,,394.70180720009375,395.7115315999836,395.69481120002456,396.2778009000467,396.2778009000467,None,397.60669320006855,None,left,1.242250100011006,397.60669320006855,None,398.8814286000561,None,right,0.3905859999358654,398.8814286000561,None,,,,,,,,,,,,,,,,,,,,,,,PPT39,001,2022-07-07_10h53.25.000,ABstudy,2022.1.4,59.93080389716869,
AB,Lag5_T1P_T2A,5,P,A,5,10,4,3,13,cork,Did you see the cork?,0.12,0.016,JPG\,clock01a,grape01,plate01b,key01,cork02,feather03a,pineapple01a,iron01b,toothbrush03b,comb02a,broom01,toaster01,pizza,blankImage,blankImage,blankImage,blankImage,cork02,,,,,,,,,,,,0,39,39,209,,,,,,,,,,,,,,,,,,,,,,,,,,,,,,,,,,,399.3030667999992,400.3161646000808,400.299524400034,400.8961519000586,400.8961519000586,None,402.46630410000216,None,left,0.8063333000754938,402.46630410000216,None,403.30234639998525,None,right,0.4984213000861928,403.30234639998525,None,,,,,,,,,,,,,,,,,,,,,,,PPT39,001,2022-07-07_10h53.25.000,ABstudy,2022.1.4,59.93080389716869,
AB,Lag1_T1A_T2P,1,A,P,8,9,7,5,14,calendar,Did you see the calendar?,0.12,0.016,JPG\,foosballtable,candy,envelope03a,microscope,pencil01,leaf02a,scissors01,watermelon01,stapler04b,dandelion,pineapple01a,hammer01,celery,thermometer02b,blankImage,blankImage,blankImage,trampoline,,,,,,,,,,,,0,40,40,245,,,,,,,,,,,,,,,,,,,,,,,,,,,,,,,,,,,403.8240379000781,404.8373217000626,404.82055200007744,405.32136489998084,405.32136489998084,None,407.08259310002904,None,right,2.262216300005093,407.08259310002904,None,409.3751041000942,None,left,0.5450749999145046,409.3751041000942,None,,,,,,,,,,,,,,,,,,,,,,,PPT39,001,2022-07-07_10h53.25.000,ABstudy,2022.1.4,59.93080389716869,
AB,Lag5_T1P_T2P,5,P,P,7,12,6,5,17,elbow,Did you see the elbow?,0.12,0.016,JPG\,candle01,fork03c,plate01b,violin,computerkeyboard02,candy,elbow,paintbrush01,cherry01,sock01a,teabag,stapler01,cd,lighter01,book01b,tennisball01b,blankImage,elbow,,,,,,,,,,,,0,41,41,87,,,,,,,,,,,,,,,,,,,,,,,,,,,,,,,,,,,409.9464193000458,410.960013300064,410.9432947000023,411.5228693999816,411.5228693999816,None,413.47030950000044,None,right,2.490303000085987,413.47030950000044,None,415.98173480003607,None,right,1.1229837000137195,415.98173480003607,None,,,,,,,,,,,,,,,,,,,,,,,PPT39,001,2022-07-07_10h53.25.000,ABstudy,2022.1.4,59.93080389716869,
AB,Lag5_T1A_T2A,5,A,A,7,12,6,4,16,boxing glove,Did you see the boxing glove?,0.12,0.016,JPG\,cherry01,cymbal,envelope03a,foosballtable,shirt02,cellphone,sewingmachine01a,candle08b,battery02b,apple07,pencil01,screwdriver04b,strawberry,sunglasses04,feather03a,rice,blankImage,lollipop04,,,,,,,,,,,,0,42,42,296,,,,,,,,,,,,,,,,,,,,,,,,,,,,,,,,,,,417.13276710000355,418.13382970006205,418.11715629999526,418.6796278000111,418.6796278000111,None,420.6942497000564,None,right,0.6664976999163628,420.6942497000564,None,421.3871169000631,None,right,0.4856732999905944,421.3871169000631,None,,,,,,,,,,,,,,,,,,,,,,,PPT39,001,2022-07-07_10h53.25.000,ABstudy,2022.1.4,59.93080389716869,
AB,Lag1_T1A_T2P,1,A,P,5,6,4,3,9,Stool,Did you see the Stool?,0.12,0.016,JPG\,cherry01,cymbal,envelope03a,foosballtable,shirt02,stapler01,sewingmachine01a,candle08b,battery02b,blankImage,blankImage,blankImage,blankImage,blankImage,blankImage,blankImage,blankImage,hulahoop,,,,,,,,,,,,0,43,43,236,,,,,,,,,,,,,,,,,,,,,,,,,,,,,,,,,,,421.9089260000037,422.92193310009316,422.9052972000791,423.48652570007835,423.48652570007835,None,424.57902710000053,None,right,0.8303013000404462,424.57902710000053,None,425.4415582000511,None,right,0.6785172000527382,425.4415582000511,None,,,,,,,,,,,,,,,,,,,,,,,PPT39,001,2022-07-07_10h53.25.000,ABstudy,2022.1.4,59.93080389716869,
AB,Lag5_T1P_T2P,5,P,P,6,11,5,4,15,shower,Did you see the shower?,0.12,0.016,JPG\,dice05a,watch02a,pig,lighter01,button01,shower,paintbrush01,microscope,plate01b,pen04b,stapler05,weight04a,carrot01,shirt02,globe,blankImage,blankImage,shower,,,,,,,,,,,,0,44,44,121,,,,,,,,,,,,,,,,,,,,,,,,,,,,,,,,,,,426.15668190002907,427.15924750000704,427.12581690005027,427.7197269999888,427.7197269999888,None,429.53543070005253,None,left,0.8011031999485567,429.53543070005253,None,430.3625129000284,None,right,0.46986890002153814,430.3625129000284,None,,,,,,,,,,,,,,,,,,,,,,,PPT39,001,2022-07-07_10h53.25.000,ABstudy,2022.1.4,59.93080389716869,
AB,Lag5_T1P_T2P,5,P,P,6,11,5,5,16,Car,Did you see the Car?,0.12,0.016,JPG\,leaf02a,apple07,cd,pineapple01a,envelope03a,car,pig,canoftennisballs,rice,feather03a,stapler03a,balloon01b,avocado01,calculator01,watermelon01,teabag,blankImage,car,,,,,,,,,,,,0,45,45,127,,,,,,,,,,,,,,,,,,,,,,,,,,,,,,,,,,,430.86528260004707,431.880684300093,431.8472504999954,432.42675580002833,432.42675580002833,None,434.4179882000899,None,right,0.9579359999625012,434.4179882000899,None,435.4010190999834,None,left,0.4228098999010399,435.4010190999834,None,,,,,,,,,,,,,,,,,,,,,,,PPT39,001,2022-07-07_10h53.25.000,ABstudy,2022.1.4,59.93080389716869,
AB,Lag5_T1P_T2A,5,P,A,5,10,4,3,13,Totem Pole,Did you see the Totem Pole?,0.12,0.016,JPG\,canoftennisballs,banana01,scissors01,pig,totempole,leaf02a,pear01,sponge01,fork03c,tableknife02,balloon01b,match,toothbrush03b,blankImage,blankImage,blankImage,blankImage,totempole,,,,,,,,,,,,0,46,46,202,,,,,,,,,,,,,,,,,,,,,,,,,,,,,,,,,,,435.8589312999975,436.8691456000088,436.8526315999916,437.4504623999819,437.4504623999819,None,439.0268121000845,None,left,0.8054701999062672,439.0268121000845,None,439.854986499995,None,right,0.6576675999676809,439.854986499995,None,,,,,,,,,,,,,,,,,,,,,,,PPT39,001,2022-07-07_10h53.25.000,ABstudy,2022.1.4,59.93080389716869,
AB,Lag5_T1A_T2P,5,A,P,7,12,6,3,15,hockey puck,Did you see the hockey puck?,0.12,0.016,JPG\,toiletpaper01a,lipstick02a,potato02b,speaker04,globe,strawberry,carrot01,plate01b,sock01a,candle08b,pen04b,stapler04b,foosballtable,brick,pear01,blankImage,blankImage,frisbee,,,,,,,,,,,,0,47,47,260,,,,,,,,,,,,,,,,,,,,,,,,,,,,,,,,,,,440.5539245000109,441.55679390009027,441.5233775000088,442.09941500006244,442.09941500006244,None,443.98311720008496,None,right,1.08128379995469,443.98311720008496,None,445.09406090003904,None,left,0.4344488999340683,445.09406090003904,None,,,,,,,,,,,,,,,,,,,,,,,PPT39,001,2022-07-07_10h53.25.000,ABstudy,2022.1.4,59.93080389716869,
AB,Lag1_T1P_T2P,1,P,P,8,9,7,4,13,bowling ball,Did you see the bowling ball?,0.12,0.016,JPG\,dandelion,pineapple01a,broom01,pen04b,sock01a,sandal,foosballtable,bowlingball,stapler01,toothbrush03b,celery,candle08b,tennisball01b,blankImage,blankImage,blankImage,blankImage,bowlingball,,,,,,,,,,,,0,48,48,7,,,,,,,,,,,,,,,,,,,,,,,,,,,,,,,,,,,445.5657186000608,446.57882450008765,446.56210330000613,447.06264810007997,447.06264810007997,None,448.70874130004086,None,left,1.2273611000273377,448.70874130004086,None,449.96554040000774,None,left,0.26644270005635917,449.96554040000774,None,,,,,,,,,,,,,,,,,,,,,,,PPT39,001,2022-07-07_10h53.25.000,ABstudy,2022.1.4,59.93080389716869,
AB,Lag1_T1P_T2P,1,P,P,6,7,5,3,10,elephant,Did you see the elephant?,0.12,0.016,JPG\,clock01a,grape01,plate01b,key01,screwdriver04b,africanelephant,stapler03b,iron01b,toothbrush03b,comb02a,blankImage,blankImage,blankImage,blankImage,blankImage,blankImage,blankImage,africanelephant,,,,,,,,,,,,0,49,49,31,,,,,,,,,,,,,,,,,,,,,,,,,,,,,,,,,,,450.25536850001663,451.2667184000602,451.25011160003487,451.8429227999877,451.8429227999877,None,453.06408949999604,None,left,1.0963653000071645,453.06408949999604,None,454.18641169997863,None,right,0.39785830001346767,454.18641169997863,None,,,,,,,,,,,,,,,,,,,,,,,PPT39,001,2022-07-07_10h53.25.000,ABstudy,2022.1.4,59.93080389716869,
AB,Lag5_T1A_T2P,5,A,P,5,10,4,4,14,duck,Did you see the duck?,0.12,0.016,JPG\,brick,eraser,cucumber,ashtray01,thermometer02b,binoculars01b,lipstick02a,screwdriver04b,grape01,stapler04b,battery02b,iron01b,dice05a,avocado01,blankImage,blankImage,blankImage,barrel01,,,,,,,,,,,,0,50,50,280,,,,,,,,,,,,,,,,,,,,,,,,,,,,,,,,,,,454.60735599999316,455.62121520005167,455.5877313000383,456.1600577000063,456.1600577000063,None,457.8926709999796,None,right,0.7082108000759035,457.8926709999796,None,458.6238961000927,None,right,0.3366960999555886,458.6238961000927,None,,,,,,,,,,,,,,,,,,,,,,,PPT39,001,2022-07-07_10h53.25.000,ABstudy,2022.1.4,59.93080389716869,
AB,Lag1_T1P_T2P,1,P,P,5,6,4,5,11,squirrel,Did you see the squirrel?,0.12,0.016,JPG\,pencil01,orange,clock01a,sponge01,squirrel,stapler05,lipstick02a,strawberry,book01b,mushroom01,envelope03a,blankImage,blankImage,blankImage,blankImage,blankImage,blankImage,squirrel,,,,,,,,,,,,0,51,51,5,,,,,,,,,,,,,,,,,,,,,,,,,,,,,,,,,,,458.9964889000403,460.00855929998215,459.99196130002383,460.5673806000268,460.5673806000268,None,461.96401960006915,None,left,0.6446764998836443,461.96401960006915,None,462.6290618000785,None,left,1.1629282999783754,462.6290618000785,None,,,,,,,,,,,,,,,,,,,,,,,PPT39,001,2022-07-07_10h53.25.000,ABstudy,2022.1.4,59.93080389716869,
AB,Lag1_T1P_T2A,1,P,A,7,8,6,4,12,bird,Did you see the bird?,0.12,0.016,JPG\,speaker04,sewingmachine01a,eraser,violin,globe,belt02a,tern,cymbal,cd,greenolive,alligator,pear01,blankImage,blankImage,blankImage,blankImage,blankImage,tern,,,,,,,,,,,,0,52,52,177,,,,,,,,,,,,,,,,,,,,,,,,,,,,,,,,,,,463.815293300082,464.83020269998815,464.7967791000847,465.378551300033,465.378551300033,None,466.8750125999795,None,right,0.9647848000749946,466.8750125999795,None,467.8677543000085,None,right,0.3091258999193087,467.8677543000085,None,,,,,,,,,,,,,,,,,,,,,,,PPT39,001,2022-07-07_10h53.25.000,ABstudy,2022.1.4,59.93080389716869,
AB,Lag1_T1P_T2A,1,P,A,6,7,5,5,12,foot,Did you see the foot?,0.12,0.016,JPG\,watermelon01,cigarette,weight04a,cymbal,cauliflower01,foot,cherry01,broom01,battery02b,key01,baseball01a,iron01b,blankImage,blankImage,blankImage,blankImage,blankImage,foot,,,,,,,,,,,,0,53,53,188,,,,,,,,,,,,,,,,,,,,,,,,,,,,,,,,,,,468.2023253000807,469.21798610000405,469.18441460002214,469.7697339000879,469.7697339000879,None,471.26216420007404,None,left,0.8660113000078127,471.26216420007404,None,472.15413690009154,None,right,0.2700679999543354,472.15413690009154,None,,,,,,,,,,,,,,,,,,,,,,,PPT39,001,2022-07-07_10h53.25.000,ABstudy,2022.1.4,59.93080389716869,
AB,Lag1_T1A_T2P,1,A,P,7,8,6,3,11,Fox,Did you see the Fox?,0.12,0.016,JPG\,toaster01,chain01,sponge01,baseball01a,carrot01,belt02a,book01b,stapler03b,grape01,brick,celery,blankImage,blankImage,blankImage,blankImage,blankImage,blankImage,fingerprint,,,,,,,,,,,,0,54,54,234,,,,,,,,,,,,,,,,,,,,,,,,,,,,,,,,,,,472.45719180000015,473.4722371000098,473.43901810003445,474.01578270003665,474.01578270003665,None,475.3474829000188,None,right,0.8927541000302881,475.3474829000188,None,476.2597055999795,None,left,0.5256127000320703,476.2597055999795,None,,,,,,,,,,,,,,,,,,,,,,,PPT39,001,2022-07-07_10h53.25.000,ABstudy,2022.1.4,59.93080389716869,
AB,Lag1_T1P_T2P,1,P,P,8,9,7,3,12,cactus,Did you see the cactus?,0.12,0.016,JPG\,tennisball01b,paintbrush01,medal02b,apple07,speaker04,iron01b,avocado01,cactus,stapler03b,toiletpaper01a,watermelon01,candle01,blankImage,blankImage,blankImage,blankImage,blankImage,cactus,,,,,,,,,,,,0,55,55,58,,,,,,,,,,,,,,,,,,,,,,,,,,,,,,,,,,,476.8181460000342,477.82645140006207,477.8097511000233,478.40806980000343,478.40806980000343,None,479.9358242000453,None,left,0.9127824000315741,479.9358242000453,None,480.8795057000825,None,right,0.4162186000030488,480.8795057000825,None,,,,,,,,,,,,,,,,,,,,,,,PPT39,001,2022-07-07_10h53.25.000,ABstudy,2022.1.4,59.93080389716869,
AB,Lag5_T1P_T2P,5,P,P,8,13,7,4,17,Accordion,Did you see the Accordion?,0.12,0.016,JPG\,toiletpaper01a,lipstick02a,potato02b,speaker04,globe,strawberry,carrot01,accordion01,sock01a,candle08b,pen04b,calculator01,stapler01,brick,pear01,fork03c,blankImage,accordion01,,,,,,,,,,,,0,56,56,162,,,,,,,,,,,,,,,,,,,,,,,,,,,,,,,,,,,481.3163799000904,482.33088030002546,482.29750950005837,482.8949813999934,482.8949813999934,None,484.8564931000583,None,left,0.7602567999856547,484.8564931000583,None,485.63438699999824,None,left,0.32622569997329265,485.63438699999824,None,,,,,,,,,,,,,,,,,,,,,,,PPT39,001,2022-07-07_10h53.25.000,ABstudy,2022.1.4,59.93080389716869,
AB,Lag1_T1P_T2P,1,P,P,7,8,6,4,12,Dog House,Did you see the Dog House?,0.12,0.016,JPG\,pineapple01a,leaf02a,grape01,toiletpaper01a,match,tennisball01b,doghouse,stapler03b,pig,measuringcup01,ring01,lemon02,blankImage,blankImage,blankImage,blankImage,blankImage,doghouse,,,,,,,,,,,,0,57,57,44,,,,,,,,,,,,,,,,,,,,,,,,,,,,,,,,,,,485.9904746999964,487.0023230999941,486.98579070006963,487.5658140000887,487.5658140000887,None,489.0601420000894,None,left,0.747661899891682,489.0601420000894,None,489.83869720005896,None,right,0.22614389995578676,489.83869720005896,None,,,,,,,,,,,,,,,,,,,,,,,PPT39,001,2022-07-07_10h53.25.000,ABstudy,2022.1.4,59.93080389716869,
AB,Lag1_T1A_T2P,1,A,P,6,7,5,5,12,Piano,Did you see the Piano?,0.12,0.016,JPG\,toiletpaper01a,mushroom01,medal02b,sandal,rice,cd,stapler01,pizza,candle08b,garlic01a,toaster01,belt02a,blankImage,blankImage,blankImage,blankImage,blankImage,moose,,,,,,,,,,,,0,58,58,239,,,,,,,,,,,,,,,,,,,,,,,,,,,,,,,,,,,490.09409300005063,491.1065226000501,491.0897250000853,491.6711265000049,491.6711265000049,None,493.1303083000239,None,right,1.2141979000298306,493.1303083000239,None,494.3764174000826,None,left,0.4637536999071017,494.3764174000826,None,,,,,,,,,,,,,,,,,,,,,,,PPT39,001,2022-07-07_10h53.25.000,ABstudy,2022.1.4,59.93080389716869,
AB,Lag5_T1P_T2A,5,P,A,7,12,6,5,17,flower,Did you see the flower?,0.12,0.016,JPG\,cellphone,tomato01,comb02a,candy,celery,cucumber,craneflower,fan,feather03a,pen04b,lemon02,blueberry01,plate01b,cherry01,baseball01a,candle08b,blankImage,craneflower,,,,,,,,,,,,0,59,59,211,,,,,,,,,,,,,,,,,,,,,,,,,,,,,,,,,,,494.8634016000433,495.8777855000226,495.8444678999949,496.4149838000303,496.4149838000303,None,498.4502232000232,None,right,0.8537364000221714,498.4502232000232,None,499.33136489999015,None,right,1.3645771000301465,499.33136489999015,None,,,,,,,,,,,,,,,,,,,,,,,PPT39,001,2022-07-07_10h53.25.000,ABstudy,2022.1.4,59.93080389716869,
AB,Lag5_T1P_T2P,5,P,P,5,10,4,5,15,Bee,Did you see the Bee?,0.12,0.016,JPG\,fork03c,dandelion,dice05a,belt02a,honeybee,watch02a,key01,globe,eraser,stapler03a,greenolive,shirt02,candle08b,cigarette,garlic01a,blankImage,blankImage,honeybee,,,,,,,,,,,,0,60,60,149,,,,,,,,,,,,,,,,,,,,,,,,,,,,,,,,,,,500.7181917000562,501.7337314999895,501.70037430000957,502.2639335000422,502.2639335000422,None,504.13292540004477,None,left,0.7634188999654725,504.13292540004477,None,504.9217923000688,None,left,0.29456389998085797,504.9217923000688,None,,,,,,,,,,,,,,,,,,,,,,,PPT39,001,2022-07-07_10h53.25.000,ABstudy,2022.1.4,59.93080389716869,
AB,Lag5_T1A_T2P,5,A,P,7,12,6,4,16,church,Did you see the church?,0.12,0.016,JPG\,printer02,leaf02a,cauliflower01,sock01a,brownsugar,paintbrush01,pig,orange,belt02a,shirt02,key01,stapler06,cigarette,scissors01,envelope03a,blueberry01,blankImage,ant,,,,,,,,,,,,0,61,61,279,,,,,,,,,,,,,,,,,,,,,,,,,,,,,,,,,,,505.2411549000535,506.25486340001225,506.2383452000795,506.83012230007444,506.83012230007444,None,508.7632582000224,None,right,1.6299760000547394,508.7632582000224,None,510.42534000007436,None,left,0.43903520004823804,510.42534000007436,None,,,,,,,,,,,,,,,,,,,,,,,PPT39,001,2022-07-07_10h53.25.000,ABstudy,2022.1.4,59.93080389716869,
AB,Lag5_T1P_T2A,5,P,A,6,11,5,5,16,World map,Did you see the World map?,0.12,0.016,JPG\,cigarette,pig,banana01,strawberry,clock01a,worldmap,spoon01,blueberry01,battery02b,pineapple01a,chain01,paintbrush01,candy,pen04b,teabag,birthdaycandle,blankImage,worldmap,,,,,,,,,,,,0,62,62,205,,,,,,,,,,,,,,,,,,,,,,,,,,,,,,,,,,,510.89475860004313,511.9101739000762,511.8769256999949,512.4600352999987,512.4600352999987,None,514.370851200074,None,left,0.7410763999214396,514.370851200074,None,515.1313429999864,None,right,0.5484691000310704,515.1313429999864,None,,,,,,,,,,,,,,,,,,,,,,,PPT39,001,2022-07-07_10h53.25.000,ABstudy,2022.1.4,59.93080389716869,
AB,Lag5_T1A_T2P,5,A,P,5,10,4,3,13,License Plate,Did you see the License Plate?,0.12,0.016,JPG\,tomato01,pen04b,shirt02,carrot01,lamp04a,key01,pizza,avocado01,sewingmachine01a,stapler06,iron01b,book01b,chain01,blankImage,blankImage,blankImage,blankImage,porcupine,,,,,,,,,,,,0,63,63,270,,,,,,,,,,,,,,,,,,,,,,,,,,,,,,,,,,,515.7043677000329,516.7152928999858,516.6986086000688,517.2922922000289,517.2922922000289,None,518.8722472999943,None,right,2.047614900046028,518.8722472999943,None,520.936156700016,None,left,0.39966420002747327,520.936156700016,None,,,,,,,,,,,,,,,,,,,,,,,PPT39,001,2022-07-07_10h53.25.000,ABstudy,2022.1.4,59.93080389716869,
AB,Lag1_T1A_T2A,1,A,A,6,7,5,5,12,Safe,Did you see the Safe?,0.12,0.016,JPG\,hammer01,sponge01,toaster01,cherry01,feather03a,mushroom01,measuringcup01,pencil01,tennisball01b,brick,clock04,medal02b,blankImage,blankImage,blankImage,blankImage,blankImage,downhillski,,,,,,,,,,,,0,64,64,294,,,,,,,,,,,,,,,,,,,,,,,,,,,,,,,,,,,521.3576282000868,522.3709321999922,522.3542776000686,522.9267035999801,522.9267035999801,None,524.4388887999812,None,right,1.3611976000247523,524.4388887999812,None,525.8244711000007,None,right,0.5514121999731287,525.8244711000007,None,,,,,,,,,,,,,,,,,,,,,,,PPT39,001,2022-07-07_10h53.25.000,ABstudy,2022.1.4,59.93080389716869,
AB,Lag1_T1P_T2P,1,P,P,8,9,7,5,14,finger print,Did you see the finger print?,0.12,0.016,JPG\,chain01,pen04b,birthdaycandle,watermelon01,broom01,scissors01,measuringcup01,fingerprint,stapler01,calculator01,ashtray01,feather03a,sewingmachine01a,thermometer02b,blankImage,blankImage,blankImage,fingerprint,,,,,,,,,,,,0,65,65,62,,,,,,,,,,,,,,,,,,,,,,,,,,,,,,,,,,,526.4151137000881,527.4260930999881,527.4093882000307,528.0122681000503,528.0122681000503,None,529.7195155000081,None,left,1.5771679000463337,529.7195155000081,None,531.3131517000729,None,left,0.29562350001651794,531.3131517000729,None,,,,,,,,,,,,,,,,,,,,,,,PPT39,001,2022-07-07_10h53.25.000,ABstudy,2022.1.4,59.93080389716869,
AB,Lag1_T1A_T2A,1,A,A,8,9,7,5,14,Ping pong Table,Did you see the Ping pong Table?,0.12,0.016,JPG\,pineapple01a,tennisball01b,computerkeyboard02,feather03a,belt02a,acorn,violin,blueberry01,medal02b,alligator,greenolive,screwdriver04b,potato02b,fork03c,blankImage,blankImage,blankImage,statue,,,,,,,,,,,,0,66,66,287,,,,,,,,,,,,,,,,,,,,,,,,,,,,,,,,,,,531.6377889000578,532.6478545999853,532.6312109000282,533.2013039999874,533.2013039999874,None,534.9399609999964,None,right,0.9729762000497431,534.9399609999964,None,535.9341772000771,None,right,0.4495920999906957,535.9341772000771,None,,,,,,,,,,,,,,,,,,,,,,,PPT39,001,2022-07-07_10h53.25.000,ABstudy,2022.1.4,59.93080389716869,
AB,Lag1_T1P_T2P,1,P,P,6,7,5,5,12,exit sign,Did you see the exit sign?,0.12,0.016,JPG\,printer02,envelope03a,potato02b,calculator01,tableknife02,exitsign,stapler01,pig,broom01,greenolive,candle08b,battery02b,blankImage,blankImage,blankImage,blankImage,blankImage,exitsign,,,,,,,,,,,,0,67,67,41,,,,,,,,,,,,,,,,,,,,,,,,,,,,,,,,,,,536.4045883000363,537.4189926000545,537.3856445000274,537.9718923000619,537.9718923000619,None,539.4935065000318,None,left,1.1069126999936998,539.4935065000318,None,540.6224711000687,None,right,0.3939613000256941,540.6224711000687,None,,,,,,,,,,,,,,,,,,,,,,,PPT39,001,2022-07-07_10h53.25.000,ABstudy,2022.1.4,59.93080389716869,
AB,Lag1_T1P_T2P,1,P,P,6,7,5,4,11,bowling pin,Did you see the bowling pin?,0.12,0.016,JPG\,strawberry,leaf02a,clock04,candle01,avocado01,bowlingpin,stapler03a,brownsugar,ring01,lemon02,fork03c,blankImage,blankImage,blankImage,blankImage,blankImage,blankImage,bowlingpin,,,,,,,,,,,,0,68,68,8,,,,,,,,,,,,,,,,,,,,,,,,,,,,,,,,,,,541.0912148000207,542.0904350000201,542.0904350000201,542.6769349999959,542.6769349999959,None,543.9496693999972,None,left,0.9066435000859201,543.9496693999972,None,544.8767101999838,None,right,0.6831057999515906,544.8767101999838,None,,,,,,,,,,,,,,,,,,,,,,,PPT39,001,2022-07-07_10h53.25.000,ABstudy,2022.1.4,59.93080389716869,
AB,Lag5_T1P_T2P,5,P,P,5,10,4,4,14,bell,Did you see the bell?,0.12,0.016,JPG\,teabag,envelope03a,cellphone,apple07,callbell,orange,brownsugar,book01b,hammer01,stapler03b,toaster01,calculator01,globe,battery02b,blankImage,blankImage,blankImage,callbell,,,,,,,,,,,,0,69,69,147,,,,,,,,,,,,,,,,,,,,,,,,,,,,,,,,,,,545.5802482999861,546.5950631999876,546.561698100064,547.1602756000357,547.1602756000357,None,548.93883930007,None,left,0.5893462999956682,548.93883930007,None,549.5479466000106,None,left,0.38027800002601,549.5479466000106,None,,,,,,,,,,,,,,,,,,,,,,,PPT39,001,2022-07-07_10h53.25.000,ABstudy,2022.1.4,59.93080389716869,
AB,Lag5_T1P_T2P,5,P,P,7,12,6,5,17,Badminton Racket,Did you see the Badminton Racket?,0.12,0.016,JPG\,paintbrush01,dice05a,watermelon01,broccoli01a,hammer01,leaf02a,badmintonracket,tennisball01b,lemon02,fan,lipstick02a,stapler04b,envelope03a,sponge01,foosballtable,orange,blankImage,badmintonracket,,,,,,,,,,,,0,70,70,163,,,,,,,,,,,,,,,,,,,,,,,,,,,,,,,,,,,549.955560100032,550.9661124000559,550.9493024999974,551.5210094000213,551.5210094000213,None,553.4988212999888,None,left,0.8848753999918699,553.4988212999888,None,554.402792399982,None,left,0.4293888999382034,554.402792399982,None,,,,,,,,,,,,,,,,,,,,,,,PPT39,001,2022-07-07_10h53.25.000,ABstudy,2022.1.4,59.93080389716869,
AB,Lag5_T1P_T2P,5,P,P,5,10,4,4,14,Christmas lights,Did you see the Christmas lights?,0.12,0.016,JPG\,binoculars01b,cymbal,pizza,candy,christmaslights,sponge01,grape01,thermometer02b,speaker04,stapler03a,lipstick02a,strawberry,candle01,tambourine02,blankImage,blankImage,blankImage,christmaslights,,,,,,,,,,,,0,71,71,168,,,,,,,,,,,,,,,,,,,,,,,,,,,,,,,,,,,554.8602936000098,555.8709648000076,555.8543653000379,556.4424731000327,556.4424731000327,None,558.1281986000249,None,left,0.8645551999798045,558.1281986000249,None,559.0241905000294,None,right,0.4080001999391243,559.0241905000294,None,,,,,,,,,,,,,,,,,,,,,,,PPT39,001,2022-07-07_10h53.25.000,ABstudy,2022.1.4,59.93080389716869,
AB,Lag1_T1P_T2P,1,P,P,8,9,7,5,14,helicopter,Did you see the helicopter?,0.12,0.016,JPG\,broom01,globe,cellphone,tableknife02,cauliflower01,scissors01,ring01,helicopter,stapler01,toaster01,cigarette,grape01,microscope,cucumber,blankImage,blankImage,blankImage,helicopter,,,,,,,,,,,,0,72,72,85,,,,,,,,,,,,,,,,,,,,,,,,,,,,,,,,,,,559.4630600999808,560.4754802000243,560.4588890000014,561.0347376000136,561.0347376000136,None,562.774548000074,None,right,0.9933682999107987,562.774548000074,None,563.795546600013,None,left,0.33315329998731613,563.795546600013,None,,,,,,,,,,,,,,,,,,,,,,,PPT39,001,2022-07-07_10h53.25.000,ABstudy,2022.1.4,59.93080389716869,
AB,Lag5_T1P_T2P,5,P,P,6,11,5,4,15,Witch hat,Did you see the Witch hat?,0.12,0.016,JPG\,pizza,watch02a,greenolive,cucumber,match,witchhat,scissors01,broom01,globe,cherry01,stapler03a,cigarette,microscope,cellphone,speaker04,blankImage,blankImage,witchhat,,,,,,,,,,,,0,73,73,101,,,,,,,,,,,,,,,,,,,,,,,,,,,,,,,,,,,564.2137350999983,565.2140183000593,565.1972519999836,565.7905903999927,565.7905903999927,None,567.5217914000386,None,left,2.39782529999502,567.5217914000386,None,569.9514746000059,None,right,2.7604409999912605,569.9514746000059,None,,,,,,,,,,,,,,,,,,,,,,,PPT39,001,2022-07-07_10h53.25.000,ABstudy,2022.1.4,59.93080389716869,
AB,Lag1_T1P_T2A,1,P,A,8,9,7,5,14,Ceiling fan,Did you see the Ceiling fan?,0.12,0.016,JPG\,cucumber,sponge01,alligator,pear01,ashtray01,hammer01,clock04,ceilingfan01,fork03c,binoculars01b,mushroom01,broccoli01a,leaf02a,acorn,blankImage,blankImage,blankImage,ceilingfan01,,,,,,,,,,,,0,74,74,183,,,,,,,,,,,,,,,,,,,,,,,,,,,,,,,,,,,572.738360300078,573.7383222000208,573.7220925000729,574.308915700065,574.308915700065,None,575.996626600041,None,right,1.6915379000129178,575.996626600041,None,577.7094490000745,None,right,0.6821020999923348,577.7094490000745,None,,,,,,,,,,,,,,,,,,,,,,,PPT39,001,2022-07-07_10h53.25.000,ABstudy,2022.1.4,59.93080389716869,
AB,Lag1_T1P_T2P,1,P,P,5,6,4,5,11,Guitar case,Did you see the Guitar case?,0.12,0.016,JPG\,broccoli01a,scissors01,toothbrush03b,foosballtable,guitarcase,stapler05,hammer01,toiletpaper01a,cd,garlic01a,carrot01,blankImage,blankImage,blankImage,blankImage,blankImage,blankImage,guitarcase,,,,,,,,,,,,0,75,75,14,,,,,,,,,,,,,,,,,,,,,,,,,,,,,,,,,,,578.4208419000497,579.4277870000806,579.3944130000891,579.9853674999904,579.9853674999904,None,581.299830700038,None,left,1.068061999976635,581.299830700038,None,582.3971959000919,None,right,0.4836661999579519,582.3971959000919,None,,,,,,,,,,,,,,,,,,,,,,,PPT39,001,2022-07-07_10h53.25.000,ABstudy,2022.1.4,59.93080389716869,
AB,Lag1_T1P_T2P,1,P,P,7,8,6,3,11,swing,Did you see the swing?,0.12,0.016,JPG\,sewingmachine01a,thermometer02b,sponge01,eraser,broccoli01a,fork03c,swing,stapler03b,belt02a,medal02b,pineapple01a,blankImage,blankImage,blankImage,blankImage,blankImage,blankImage,swing,,,,,,,,,,,,0,76,76,30,,,,,,,,,,,,,,,,,,,,,,,,,,,,,,,,,,,582.8999912000727,583.9153212000383,583.882006800035,584.4754321000073,584.4754321000073,None,585.8580657000421,None,left,0.7493330000434071,585.8580657000421,None,586.6351587000536,None,left,0.3320954000810161,586.6351587000536,None,,,,,,,,,,,,,,,,,,,,,,,PPT39,001,2022-07-07_10h53.25.000,ABstudy,2022.1.4,59.93080389716869,
AB,Lag5_T1P_T2P,5,P,P,7,12,6,4,16,flower,Did you see the flower?,0.12,0.016,JPG\,cucumber,sponge01,alligator,pear01,ashtray01,hammer01,hibiscusflower02,battery02b,fork03c,binoculars01b,mushroom01,stapler01,leaf02a,acorn,comb02a,screwdriver04b,blankImage,hibiscusflower02,,,,,,,,,,,,0,77,77,132,,,,,,,,,,,,,,,,,,,,,,,,,,,,,,,,,,,586.9855281000491,587.9862564000068,587.9695851000724,588.5419812999899,588.5419812999899,None,590.518555500079,None,right,1.1771889999508858,590.518555500079,None,591.7232972000493,None,right,0.37253319995943457,591.7232972000493,None,,,,,,,,,,,,,,,,,,,,,,,PPT39,001,2022-07-07_10h53.25.000,ABstudy,2022.1.4,59.93080389716869,
AB,Lag5_T1A_T2P,5,A,P,7,12,6,5,17,Rollerblade,Did you see the Rollerblade?,0.12,0.016,JPG\,binoculars01b,cymbal,pizza,candy,paintbrush01,sponge01,grape01,thermometer02b,speaker04,lemon02,lipstick02a,stapler03b,candle01,8ball,plate01b,pen04b,blankImage,lion,,,,,,,,,,,,0,78,78,266,,,,,,,,,,,,,,,,,,,,,,,,,,,,,,,,,,,592.1289447000017,593.1414111000486,593.1246276000747,593.7413624000037,593.7413624000037,None,595.6555694000563,None,right,1.375956799951382,595.6555694000563,None,597.0619883000618,None,left,0.4257113999919966,597.0619883000618,None,,,,,,,,,,,,,,,,,,,,,,,PPT39,001,2022-07-07_10h53.25.000,ABstudy,2022.1.4,59.93080389716869,
AB,Lag1_T1P_T2P,1,P,P,5,6,4,5,11,candy cane,Did you see the candy cane?,0.12,0.016,JPG\,shirt02,match,screw02,foosballtable,candycane01a,stapler04b,sewingmachine01a,watch02a,button01,comb02a,dice05a,blankImage,blankImage,blankImage,blankImage,blankImage,blankImage,candycane01a,,,,,,,,,,,,0,79,79,9,,,,,,,,,,,,,,,,,,,,,,,,,,,,,,,,,,,597.5175677000079,598.5298900000053,598.513492600061,599.102898000041,599.102898000041,None,600.4261720000068,None,left,0.7343711999710649,600.4261720000068,None,601.1824878000189,None,left,0.577773500001058,601.1824878000189,None,,,,,,,,,,,,,,,,,,,,,,,PPT39,001,2022-07-07_10h53.25.000,ABstudy,2022.1.4,59.93080389716869,
AB,Lag1_T1A_T2A,1,A,A,8,9,7,4,13,Recycling bin,Did you see the Recycling bin?,0.12,0.016,JPG\,brick,plate01b,pen04b,toaster01,screwdriver04b,candle01,envelope03a,feather03a,pig,ring01,orange,clock01a,lighter01,blankImage,blankImage,blankImage,blankImage,bumpercar,,,,,,,,,,,,0,80,80,292,,,,,,,,,,,,,,,,,,,,,,,,,,,,,,,,,,,601.8410049000522,602.8510298000183,602.8343724000733,603.448599299998,603.448599299998,None,604.931885200087,None,right,0.7802723000058904,604.931885200087,None,605.7372478999896,None,right,0.3826916000107303,605.7372478999896,None,,,,,,,,,,,,,,,,,,,,,,,PPT39,001,2022-07-07_10h53.25.000,ABstudy,2022.1.4,59.93080389716869,
AB,Lag1_T1P_T2P,1,P,P,8,9,7,4,13,dart board,Did you see the dart board?,0.12,0.016,JPG\,rice,watermelon01,tableknife02,scarf,computerkeyboard02,cauliflower01,battery02b,dartboard,stapler01,sandal,sponge01,microscope,tomato01,blankImage,blankImage,blankImage,blankImage,dartboard,,,,,,,,,,,,0,81,81,80,,,,,,,,,,,,,,,,,,,,,,,,,,,,,,,,,,,606.1429406000534,607.1553325999994,607.1386780000757,607.7251001000404,607.7251001000404,None,609.388727499987,None,left,0.6749653000151739,609.388727499987,None,610.0931668999838,None,left,0.16240410006139427,610.0931668999838,None,,,,,,,,,,,,,,,,,,,,,,,PPT39,001,2022-07-07_10h53.25.000,ABstudy,2022.1.4,59.93080389716869,
AB,Lag1_T1P_T2A,1,P,A,7,8,6,3,11,Seagull,Did you see the Seagull?,0.12,0.016,JPG\,toiletpaper01a,mushroom01,medal02b,sandal,rice,cd,seagull,pizza,candle08b,garlic01a,toaster01,blankImage,blankImage,blankImage,blankImage,blankImage,blankImage,seagull,,,,,,,,,,,,0,82,82,176,,,,,,,,,,,,,,,,,,,,,,,,,,,,,,,,,,,610.2814236000413,611.2927967000287,611.2761299000122,611.8728913000086,611.8728913000086,None,613.2142888000235,None,left,1.058066300000064,613.2142888000235,None,614.2957884999923,None,right,0.3758607000345364,614.2957884999923,None,,,,,,,,,,,,,,,,,,,,,,,PPT39,001,2022-07-07_10h53.25.000,ABstudy,2022.1.4,59.93080389716869,
AB,Lag1_T1A_T2P,1,A,P,5,6,4,3,9,chimney,Did you see the chimney?,0.12,0.016,JPG\,cucumber,sponge01,alligator,pear01,ashtray01,stapler06,clock04,battery02b,fork03c,blankImage,blankImage,blankImage,blankImage,blankImage,blankImage,blankImage,blankImage,trophy01,,,,,,,,,,,,0,83,83,246,,,,,,,,,,,,,,,,,,,,,,,,,,,,,,,,,,,614.7007292000344,615.7134761000052,615.6967855000403,616.2777320999885,616.2777320999885,None,617.4417086000321,None,right,1.0553618000121787,617.4417086000321,None,618.5167071000906,None,right,0.5313148000277579,618.5167071000906,None,,,,,,,,,,,,,,,,,,,,,,,PPT39,001,2022-07-07_10h53.25.000,ABstudy,2022.1.4,59.93080389716869,
AB,Lag5_T1P_T2P,5,P,P,8,13,7,5,18,skis,Did you see the skis?,0.12,0.016,JPG\,tennisball01b,paintbrush01,medal02b,apple07,speaker04,iron01b,avocado01,downhillski,belt02a,toiletpaper01a,watermelon01,candle01,stapler01,cymbal,ashtray01,screwdriver04b,blankImage,downhillski,,,,,,,,,,,,0,84,84,106,,,,,,,,,,,,,,,,,,,,,,,,,,,,,,,,,,,619.0678553000325,620.0681953000603,620.0514328000136,620.6280474000378,620.6280474000378,None,622.5556014000904,None,left,0.9884100999915972,622.5556014000904,None,623.5714943000348,None,right,0.3325407999800518,623.5714943000348,None,,,,,,,,,,,,,,,,,,,,,,,PPT39,001,2022-07-07_10h53.25.000,ABstudy,2022.1.4,59.93080389716869,
AB,Lag5_T1P_T2P,5,P,P,8,13,7,4,17,trumpet,Did you see the trumpet?,0.12,0.016,JPG\,toaster01,scarf,toiletpaper01a,calculator01,violin,sewingmachine01a,fan,trumpet,strawberry,balloon01b,brownsugar,eraser,stapler01,rice,ring01,shirt02,blankImage,trumpet,,,,,,,,,,,,0,85,85,145,,,,,,,,,,,,,,,,,,,,,,,,,,,,,,,,,,,623.9253022000194,624.9396365000866,624.9061131000053,625.4892902000574,625.4892902000574,None,627.4804428000934,None,left,0.5349647999973968,627.4804428000934,None,628.042230800027,None,left,2.092945000040345,628.042230800027,None,,,,,,,,,,,,,,,,,,,,,,,PPT39,001,2022-07-07_10h53.25.000,ABstudy,2022.1.4,59.93080389716869,
AB,Lag5_T1P_T2P,5,P,P,5,10,4,5,15,Ipad,Did you see the Ipad?,0.12,0.016,JPG\,fork03c,toothbrush03b,cellphone,fan,ipad02,clock01a,ring01,eraser,sunglasses04,stapler06,violin,brownsugar,blueberry01,pear01,pencil01,blankImage,blankImage,ipad02,,,,,,,,,,,,0,86,86,150,,,,,,,,,,,,,,,,,,,,,,,,,,,,,,,,,,,630.1658408000367,631.1790400000755,631.1623423000565,631.7283409000374,631.7283409000374,None,633.5780129000777,None,left,0.5735607999376953,633.5780129000777,None,634.1820844000904,None,left,0.28134300000965595,634.1820844000904,None,,,,,,,,,,,,,,,,,,,,,,,PPT39,001,2022-07-07_10h53.25.000,ABstudy,2022.1.4,59.93080389716869,
AB,Lag5_T1A_T2P,5,A,P,6,11,5,4,15,butterfly,Did you see the butterfly?,0.12,0.016,JPG\,comb02a,key01,medal02b,battery02b,lighter01,microscope,watermelon01,sandal,pig,cellphone,stapler06,calculator01,cymbal,clock04,cucumber,blankImage,blankImage,uprightpiano01,,,,,,,,,,,,0,87,87,276,,,,,,,,,,,,,,,,,,,,,,,,,,,,,,,,,,,634.4848360000178,635.4999946000753,635.4666019000579,636.0490856000688,636.0490856000688,None,637.8628668000456,None,right,1.1287975999293849,637.8628668000456,None,639.0203337999992,None,left,0.37129170005209744,639.0203337999992,None,,,,,,,,,,,,,,,,,,,,,,,PPT39,001,2022-07-07_10h53.25.000,ABstudy,2022.1.4,59.93080389716869,
AB,Lag1_T1P_T2P,1,P,P,8,9,7,4,13,Hula hoop,Did you see the Hula hoop?,0.12,0.016,JPG\,brownsugar,candle01,match,printer02,broom01,balloon01b,belt02a,hulahoop,stapler04b,feather03a,rice,mushroom01,pencil01,blankImage,blankImage,blankImage,blankImage,hulahoop,,,,,,,,,,,,0,88,88,64,,,,,,,,,,,,,,,,,,,,,,,,,,,,,,,,,,,639.4272858999902,640.4384887000779,640.4217510999879,640.9238656000234,640.9238656000234,None,642.582216400071,None,left,1.1053806999698281,642.582216400071,None,643.7083693000022,None,left,0.3395198000362143,643.7083693000022,None,,,,,,,,,,,,,,,,,,,,,,,PPT39,001,2022-07-07_10h53.25.000,ABstudy,2022.1.4,59.93080389716869,
AB,Lag1_T1P_T2P,1,P,P,7,8,6,4,12,skunk,Did you see the skunk?,0.12,0.016,JPG\,fan,tomato01,candy,screwdriver04b,alligator,cd,skunk,stapler03b,button01,plate01b,brownsugar,lighter01,blankImage,blankImage,blankImage,blankImage,blankImage,skunk,,,,,,,,,,,,0,89,89,48,,,,,,,,,,,,,,,,,,,,,,,,,,,,,,,,,,,644.0793960000155,645.09318169998,645.076392200077,645.6480389999924,645.6480389999924,None,647.09426849999,None,left,0.6495386000024155,647.09426849999,None,647.7624070000602,None,left,0.42068109998945147,647.7624070000602,None,,,,,,,,,,,,,,,,,,,,,,,PPT39,001,2022-07-07_10h53.25.000,ABstudy,2022.1.4,59.93080389716869,
AB,Lag1_T1P_T2P,1,P,P,5,6,4,3,9,dolphin,Did you see the dolphin?,0.12,0.016,JPG\,pig,belt02a,rice,screwdriver04b,dolphin01,stapler05,candle08b,pear01,feather03a,blankImage,blankImage,blankImage,blankImage,blankImage,blankImage,blankImage,blankImage,dolphin01,,,,,,,,,,,,0,90,90,10,,,,,,,,,,,,,,,,,,,,,,,,,,,,,,,,,,,648.214701400022,649.2138441000134,649.1972852000035,649.6977937000338,649.6977937000338,None,650.9074611000251,None,left,0.7078203000128269,650.9074611000251,None,651.6326964000473,None,left,0.3835189000237733,651.6326964000473,None,,,,,,,,,,,,,,,,,,,,,,,PPT39,001,2022-07-07_10h53.25.000,ABstudy,2022.1.4,59.93080389716869,
AB,Lag5_T1P_T2P,5,P,P,5,10,4,3,13,lollipop,Did you see the lollipop?,0.12,0.016,JPG\,brownsugar,candle01,match,printer02,lollipop04,balloon01b,belt02a,potato02b,computerkeyboard02,stapler03a,rice,mushroom01,pencil01,blankImage,blankImage,blankImage,blankImage,lollipop04,,,,,,,,,,,,0,91,91,112,,,,,,,,,,,,,,,,,,,,,,,,,,,,,,,,,,,652.0358861000277,653.0508859000402,653.0174488000339,653.5179315999849,653.5179315999849,None,655.2233685000101,None,left,0.6318762000882998,655.2233685000101,None,655.88770140009,None,left,0.39133590005803853,655.88770140009,None,,,,,,,,,,,,,,,,,,,,,,,PPT39,001,2022-07-07_10h53.25.000,ABstudy,2022.1.4,59.93080389716869,
AB,Lag1_T1P_T2P,1,P,P,5,6,4,5,11,Light switch,Did you see the Light switch?,0.12,0.016,JPG\,iron01b,orange,birthdaycandle,potato02b,lightswitch01,stapler03b,key01,candle08b,celery,tableknife02,pen04b,blankImage,blankImage,blankImage,blankImage,blankImage,blankImage,lightswitch01,,,,,,,,,,,,0,92,92,18,,,,,,,,,,,,,,,,,,,,,,,,,,,,,,,,,,,656.3180349000031,657.3222962000873,657.3056983000133,657.9050929000368,657.9050929000368,None,659.2340219999896,None,left,0.6213477000128478,659.2340219999896,None,659.875595999998,None,left,0.30813150003086776,659.875595999998,None,,,,,,,,,,,,,,,,,,,,,,,PPT39,001,2022-07-07_10h53.25.000,ABstudy,2022.1.4,59.93080389716869,
AB,Lag5_T1P_T2P,5,P,P,5,10,4,5,15,funnel,Did you see the funnel?,0.12,0.016,JPG\,pineapple01a,tennisball01b,computerkeyboard02,feather03a,funnel,acorn,violin,blueberry01,medal02b,stapler01,greenolive,screwdriver04b,potato02b,fork03c,cymbal,blankImage,blankImage,funnel,,,,,,,,,,,,0,93,93,109,,,,,,,,,,,,,,,,,,,,,,,,,,,,,,,,,,,660.2112278999994,661.2258943000343,661.2090370000806,661.8445889999857,661.7683573000832,None,663.5312024999876,None,left,1.5563256000168622,663.5312024999876,None,665.1130721999798,None,left,0.3262235999573022,665.1130721999798,None,,,,,,,,,,,,,,,,,,,,,,,PPT39,001,2022-07-07_10h53.25.000,ABstudy,2022.1.4,59.93080389716869,
AB,Lag5_T1P_T2P,5,P,P,7,12,6,5,17,flamingo,Did you see the flamingo?,0.12,0.016,JPG\,pig,belt02a,rice,screwdriver04b,candle01,apple07,flamingo,pear01,feather03a,match,thermometer02b,stapler06,lemon02,violin,medal02b,pineapple01a,blankImage,flamingo,,,,,,,,,,,,0,94,94,153,,,,,,,,,,,,,,,,,,,,,,,,,,,,,,,,,,,665.4671709000831,666.481068400084,666.4643834000453,666.9648919000756,666.9648919000756,None,669.0093124000123,None,left,0.5745986000401899,669.0093124000123,None,669.6006565000862,None,left,0.502965799998492,669.6006565000862,None,,,,,,,,,,,,,,,,,,,,,,,PPT39,001,2022-07-07_10h53.25.000,ABstudy,2022.1.4,59.93080389716869,
AB,Lag1_T1P_T2P,1,P,P,7,8,6,3,11,trampoline,Did you see the trampoline?,0.12,0.016,JPG\,dice05a,watch02a,pig,lighter01,button01,strawberry,trampoline,stapler03a,plate01b,pen04b,feather03a,blankImage,blankImage,blankImage,blankImage,blankImage,blankImage,trampoline,,,,,,,,,,,,0,95,95,73,,,,,,,,,,,,,,,,,,,,,,,,,,,,,,,,,,,670.1814745999873,671.1857047000667,671.168956700014,671.7539346000412,671.7539346000412,None,673.091411100002,None,left,0.5800405000336468,673.091411100002,None,673.6882676000241,None,left,0.35220880003180355,673.6882676000241,None,,,,,,,,,,,,,,,,,,,,,,,PPT39,001,2022-07-07_10h53.25.000,ABstudy,2022.1.4,59.93080389716869,
AB,Lag1_T1P_T2A,1,P,A,5,6,4,5,11,Electric toothbrush,Did you see the Electric toothbrush?,0.12,0.016,JPG\,carrot01,greenolive,fork03c,chain01,electrictoothbrush01c,watermelon01,tableknife02,printer02,comb02a,toaster01,orange,blankImage,blankImage,blankImage,blankImage,blankImage,blankImage,electrictoothbrush01c,,,,,,,,,,,,0,96,96,186,,,,,,,,,,,,,,,,,,,,,,,,,,,,,,,,,,,674.0827008000342,675.0896504999837,675.0729946000502,675.6371218999848,675.6371218999848,None,677.0542198000476,None,left,1.9771989999571815,677.0542198000476,None,679.0602408000268,None,right,0.2992532999487594,679.0602408000268,None,,,,,,,,,,,,,,,,,,,,,,,PPT39,001,2022-07-07_10h53.25.000,ABstudy,2022.1.4,59.93080389716869,
AB,Lag1_T1P_T2P,1,P,P,7,8,6,3,11,Daddy Long Legs,Did you see the Daddy Long Legs?,0.12,0.016,JPG\,lighter01,hammer01,spoon01,chain01,cymbal,sponge01,daddylonglegs,stapler03b,pig,watermelon01,cauliflower01,blankImage,blankImage,blankImage,blankImage,blankImage,blankImage,daddylonglegs,,,,,,,,,,,,0,97,97,86,,,,,,,,,,,,,,,,,,,,,,,,,,,,,,,,,,,679.3841607000213,680.3950611000182,680.3782923000399,680.9762056000764,680.9762056000764,None,682.2853614999913,None,left,0.7221088000806049,682.2853614999913,None,683.0314090000466,None,left,0.3436904000118375,683.0314090000466,None,,,,,,,,,,,,,,,,,,,,,,,PPT39,001,2022-07-07_10h53.25.000,ABstudy,2022.1.4,59.93080389716869,
AB,Lag1_T1P_T2P,1,P,P,8,9,7,3,12,zebra,Did you see the zebra?,0.12,0.016,JPG\,apple07,toiletpaper01a,pizza,dandelion,greenolive,eraser,microscope,zebra,stapler03b,lipstick02a,balloon01b,sandal,blankImage,blankImage,blankImage,blankImage,blankImage,zebra,,,,,,,,,,,,0,98,98,28,,,,,,,,,,,,,,,,,,,,,,,,,,,,,,,,,,,683.414279700024,684.4154289000435,684.3987386000808,685.0367515999824,685.0367515999824,None,686.4271729000611,None,left,0.715885299956426,686.4271729000611,None,687.1683634000365,None,left,0.6954001999692991,687.1683634000365,None,,,,,,,,,,,,,,,,,,,,,,,PPT39,001,2022-07-07_10h53.25.000,ABstudy,2022.1.4,59.93080389716869,
AB,Lag1_T1A_T2P,1,A,P,8,9,7,4,13,Christmas tree,Did you see the Christmas tree?,0.12,0.016,JPG\,broom01,globe,cellphone,tableknife02,cauliflower01,scissors01,ring01,alligator,stapler03a,toaster01,cigarette,grape01,microscope,blankImage,blankImage,blankImage,blankImage,windmill,,,,,,,,,,,,0,99,99,247,,,,,,,,,,,,,,,,,,,,,,,,,,,,,,,,,,,687.8922490000259,688.9034783000825,688.8867298000259,689.4576171999797,689.4576171999797,None,691.0544044000562,None,right,1.5861379000125453,691.0544044000562,None,692.6572620000225,None,left,0.3421029000310227,692.6572620000225,None,,,,,,,,,,,,,,,,,,,,,,,PPT39,001,2022-07-07_10h53.25.000,ABstudy,2022.1.4,59.93080389716869,
AB,Lag1_T1P_T2P,1,P,P,8,9,7,4,13,Doughnut,Did you see the Doughnut?,0.12,0.016,JPG\,brick,eraser,cucumber,ashtray01,thermometer02b,binoculars01b,lipstick02a,donut,stapler01,brownsugar,battery02b,iron01b,dice05a,blankImage,blankImage,blankImage,blankImage,donut,,,,,,,,,,,,0,100,100,39,,,,,,,,,,,,,,,,,,,,,,,,,,,,,,,,,,,693.0294643000234,694.041957700043,694.0251857000403,694.6216858000262,694.6216858000262,None,696.15281530004,None,left,2.1192811999935657,696.15281530004,None,698.296052700025,None,left,1.367351199965924,698.296052700025,None,,,,,,,,,,,,,,,,,,,,,,,PPT39,001,2022-07-07_10h53.25.000,ABstudy,2022.1.4,59.93080389716869,
AB,Lag5_T1P_T2P,5,P,P,6,11,5,3,14,ladder,Did you see the ladder?,0.12,0.016,JPG\,celery,orange,scissors01,balloon01b,avocado01,stepladder,mushroom01,sewingmachine01a,lighter01,dice05a,stapler01,fan,cd,sock01a,blankImage,blankImage,blankImage,stepladder,,,,,,,,,,,,0,101,101,119,,,,,,,,,,,,,,,,,,,,,,,,,,,,,,,,,,,699.6822642000625,700.6817843000172,700.6650786000537,701.2753662000177,701.2753662000177,None,702.9601992000826,None,left,0.6310468999436125,702.9601992000826,None,703.61801440001,None,left,0.34132220002356917,703.61801440001,None,,,,,,,,,,,,,,,,,,,,,,,PPT39,001,2022-07-07_10h53.25.000,ABstudy,2022.1.4,59.93080389716869,
AB,Lag5_T1A_T2A,5,A,A,7,12,6,4,16,Eye,Did you see the Eye?,0.12,0.016,JPG\,rice,watermelon01,tableknife02,scarf,computerkeyboard02,cauliflower01,battery02b,binoculars01b,book01b,sandal,sponge01,microscope,tomato01,fork03c,thermometer02b,apple07,blankImage,scooter,,,,,,,,,,,,0,102,102,302,,,,,,,,,,,,,,,,,,,,,,,,,,,,,,,,,,,703.9893936000299,705.0027117000427,704.9860569000011,705.6179235000163,705.545326200081,None,707.5364606000949,None,right,1.1267668000655249,707.5364606000949,None,708.6898031000746,None,left,1.0703507999423891,708.6898031000746,None,,,,,,,,,,,,,,,,,,,,,,,PPT39,001,2022-07-07_10h53.25.000,ABstudy,2022.1.4,59.93080389716869,
AB,Lag5_T1P_T2P,5,P,P,5,10,4,5,15,rake,Did you see the rake?,0.12,0.016,JPG\,scissors01,grape01,mushroom01,toiletpaper01a,leafrake,pizza,cigarette,ashtray01,carrot01,stapler03b,foosballtable,lipstick02a,teabag,acorn,potato02b,blankImage,blankImage,leafrake,,,,,,,,,,,,0,103,103,92,,,,,,,,,,,,,,,,,,,,,,,,,,,,,,,,,,,709.7943169000791,710.8086626000004,710.7918616000097,711.3799727000296,711.3799727000296,None,713.2265290000942,None,left,0.7570556999417022,713.2265290000942,None,714.0138461000752,None,left,0.36950779997278005,714.0138461000752,None,,,,,,,,,,,,,,,,,,,,,,,PPT39,001,2022-07-07_10h53.25.000,ABstudy,2022.1.4,59.93080389716869,
AB,Lag5_T1A_T2P,5,A,P,5,10,4,3,13,flower,Did you see the flower?,0.12,0.016,JPG\,cucumber,ring01,lipstick02a,microscope,violin,garlic01a,celery,lighter01,cherry01,stapler03a,belt02a,key01,binoculars01b,blankImage,blankImage,blankImage,blankImage,christmastree,,,,,,,,,,,,0,104,104,284,,,,,,,,,,,,,,,,,,,,,,,,,,,,,,,,,,,714.4142728000879,715.429647800047,715.3962223000126,715.9904817000497,715.9904817000497,None,717.5903546999907,None,right,0.625408900086768,717.5903546999907,None,718.2325648000697,None,right,0.4222769000334665,718.2325648000697,None,,,,,,,,,,,,,,,,,,,,,,,PPT39,001,2022-07-07_10h53.25.000,ABstudy,2022.1.4,59.93080389716869,
AB,Lag1_T1P_T2P,1,P,P,5,6,4,4,10,skateboard,Did you see the skateboard?,0.12,0.016,JPG\,binoculars01b,cymbal,pizza,candy,skateboard,stapler05,grape01,thermometer02b,speaker04,lemon02,blankImage,blankImage,blankImage,blankImage,blankImage,blankImage,blankImage,skateboard,,,,,,,,,,,,0,105,105,25,,,,,,,,,,,,,,,,,,,,,,,,,,,,,,,,,,,718.6865598000586,719.7000673000002,719.6835643000668,720.3479440000374,720.269304000074,None,721.4526530000148,None,left,1.0188753000693396,721.4526530000148,None,722.5035627000034,None,right,0.40778240002691746,722.5035627000034,None,,,,,,,,,,,,,,,,,,,,,,,PPT39,001,2022-07-07_10h53.25.000,ABstudy,2022.1.4,59.93080389716869,
AB,Lag5_T1P_T2A,5,P,A,6,11,5,3,14,Balcony,Did you see the Balcony?,0.12,0.016,JPG\,tomato01,pen04b,shirt02,carrot01,lamp04a,balcony02,pizza,avocado01,sewingmachine01a,apple07,iron01b,book01b,chain01,sock01a,blankImage,blankImage,blankImage,balcony02,,,,,,,,,,,,0,106,106,207,,,,,,,,,,,,,,,,,,,,,,,,,,,,,,,,,,,722.9428031999851,723.9549863000866,723.9381492000539,724.536134700058,724.536134700058,None,726.2239789000014,None,left,1.2067932999925688,726.2239789000014,None,727.4584004000062,None,right,0.3334791000233963,727.4584004000062,None,,,,,,,,,,,,,,,,,,,,,,,PPT39,001,2022-07-07_10h53.25.000,ABstudy,2022.1.4,59.93080389716869,
AB,Lag1_T1P_T2P,1,P,P,8,9,7,4,13,ladder,Did you see the ladder?,0.12,0.016,JPG\,cigarette,fork03c,greenolive,broccoli01a,avocado01,tennisball01b,balloon01b,ladder,stapler03b,fan,clock01a,strawberry,envelope03a,blankImage,blankImage,blankImage,blankImage,ladder,,,,,,,,,,,,0,107,107,45,,,,,,,,,,,,,,,,,,,,,,,,,,,,,,,,,,,727.8123822000343,728.8264722999884,728.8097687000409,729.4493217000272,729.3762044000905,None,731.0068264000583,None,left,1.2962092999368906,731.0068264000583,None,732.3311230000108,None,left,0.3012824999168515,732.3311230000108,None,,,,,,,,,,,,,,,,,,,,,,,PPT39,001,2022-07-07_10h53.25.000,ABstudy,2022.1.4,59.93080389716869,
AB,Lag1_T1P_T2P,1,P,P,7,8,6,4,12,trophy,Did you see the trophy?,0.12,0.016,JPG\,cherry01,cymbal,envelope03a,foosballtable,shirt02,cellphone,trophy01,stapler04b,battery02b,apple07,pencil01,screwdriver04b,blankImage,blankImage,blankImage,blankImage,blankImage,trophy01,,,,,,,,,,,,0,108,108,74,,,,,,,,,,,,,,,,,,,,,,,,,,,,,,,,,,,732.6747978000203,733.6809406999964,733.6642168000108,734.2314200000837,734.2314200000837,None,735.6941015000921,None,left,0.7371927999192849,735.6941015000921,None,736.4505057000788,None,left,0.25305349996779114,736.4505057000788,None,,,,,,,,,,,,,,,,,,,,,,,PPT39,001,2022-07-07_10h53.25.000,ABstudy,2022.1.4,59.93080389716869,
AB,Lag5_T1P_T2A,5,P,A,5,10,4,3,13,fan,Did you see the fan?,0.12,0.016,JPG\,scissors01,grape01,mushroom01,toiletpaper01a,fanheater,pizza,cigarette,ashtray01,carrot01,pineapple01a,foosballtable,lipstick02a,teabag,blankImage,blankImage,blankImage,blankImage,fanheater,,,,,,,,,,,,0,109,109,220,,,,,,,,,,,,,,,,,,,,,,,,,,,,,,,,,,,736.7361661000177,737.7351110000163,737.7184618000174,738.3317293000873,738.3317293000873,None,739.8843147000298,None,left,1.204217000049539,739.8843147000298,None,741.1053606000496,None,right,0.36647599993739277,741.1053606000496,None,,,,,,,,,,,,,,,,,,,,,,,PPT39,001,2022-07-07_10h53.25.000,ABstudy,2022.1.4,59.93080389716869,
AB,Lag5_T1A_T2A,5,A,A,6,11,5,3,14,mirror,Did you see the mirror?,0.12,0.016,JPG\,foosballtable,candy,envelope03a,microscope,pencil01,leaf02a,scissors01,watermelon01,grape01,dandelion,pineapple01a,hammer01,celery,thermometer02b,blankImage,blankImage,blankImage,shower,,,,,,,,,,,,0,110,110,305,,,,,,,,,,,,,,,,,,,,,,,,,,,,,,,,,,,741.4933247000445,742.5067814000649,742.4900493000168,742.9905785000883,742.9905785000883,None,744.7788835000247,None,right,0.7803391000488773,744.7788835000247,None,745.5765084000304,None,right,0.2946360999485478,745.5765084000304,None,,,,,,,,,,,,,,,,,,,,,,,PPT39,001,2022-07-07_10h53.25.000,ABstudy,2022.1.4,59.93080389716869,
AB,Lag1_T1P_T2P,1,P,P,7,8,6,3,11,harmonica,Did you see the harmonica?,0.12,0.016,JPG\,cucumber,ring01,lipstick02a,microscope,violin,garlic01a,harmonica,stapler03b,cherry01,sewingmachine01a,belt02a,blankImage,blankImage,blankImage,blankImage,blankImage,blankImage,harmonica,,,,,,,,,,,,0,111,111,43,,,,,,,,,,,,,,,,,,,,,,,,,,,,,,,,,,,745.8990862000501,746.911148800049,746.894451500033,747.4616532000946,747.4616532000946,None,748.8493166000117,None,left,0.7578367000678554,748.8493166000117,None,749.6305514000123,None,left,0.22466690000146627,749.6305514000123,None,,,,,,,,,,,,,,,,,,,,,,,PPT39,001,2022-07-07_10h53.25.000,ABstudy,2022.1.4,59.93080389716869,
AB,Lag1_T1P_T2P,1,P,P,6,7,5,4,11,no parking sign,Did you see the no parking sign?,0.12,0.016,JPG\,fork03c,belt02a,grape01,computerkeyboard02,lemon02,parkingsign,stapler05,toiletpaper01a,toaster01,lipstick02a,book01b,blankImage,blankImage,blankImage,blankImage,blankImage,blankImage,parkingsign,,,,,,,,,,,,0,112,112,47,,,,,,,,,,,,,,,,,,,,,,,,,,,,,,,,,,,749.9466817000648,750.9486087000696,750.9317559000337,751.5136778000742,751.5136778000742,None,752.7948841000907,None,left,0.5487685000989586,752.7948841000907,None,753.3688235000009,None,left,0.29385689995251596,753.3688235000009,None,,,,,,,,,,,,,,,,,,,,,,,PPT39,001,2022-07-07_10h53.25.000,ABstudy,2022.1.4,59.93080389716869,
AB,Lag1_T1P_T2P,1,P,P,7,8,6,5,13,horse,Did you see the horse?,0.12,0.016,JPG\,watermelon01,pencil01,microscope,blueberry01,computerkeyboard02,lamp04a,horse,stapler03b,sock01a,key01,binoculars01b,cauliflower01,ashtray01,blankImage,blankImage,blankImage,blankImage,horse,,,,,,,,,,,,0,113,113,3,,,,,,,,,,,,,,,,,,,,,,,,,,,,,,,,,,,753.6941635999829,754.7018186000641,754.6851787000196,755.2778622000478,755.2778622000478,None,756.8226527000079,None,left,0.5292535000480711,756.8226527000079,None,757.3713564000791,None,left,0.25139420002233237,757.3713564000791,None,,,,,,,,,,,,,,,,,,,,,,,PPT39,001,2022-07-07_10h53.25.000,ABstudy,2022.1.4,59.93080389716869,
AB,Lag5_T1P_T2P,5,P,P,6,11,5,4,15,saxophone,Did you see the saxophone?,0.12,0.016,JPG\,pizza,strawberry,potato02b,speaker04,battery02b,saxophone,dice05a,cellphone,globe,banana01,stapler03b,baseball01a,toaster01,broom01,ring01,blankImage,blankImage,saxophone,,,,,,,,,,,,0,114,114,117,,,,,,,,,,,,,,,,,,,,,,,,,,,,,,,,,,,757.7102161000948,758.7229847999988,758.7062773000216,759.3197664000327,759.3197664000327,None,761.0677233000752,None,left,0.6590331000043079,761.0677233000752,None,761.7593016000465,None,left,0.2798981999512762,761.7593016000465,None,,,,,,,,,,,,,,,,,,,,,,,PPT39,001,2022-07-07_10h53.25.000,ABstudy,2022.1.4,59.93080389716869,
AB,Lag5_T1P_T2P,5,P,P,7,12,6,3,15,Eye patch,Did you see the Eye patch?,0.12,0.016,JPG\,candle01,paintbrush01,scissors01,fan,microscope,toothbrush03b,eyepatch,watermelon01,teabag,pencil01,lemon02,stapler05,shirt02,cauliflower01,cd,blankImage,blankImage,eyepatch,,,,,,,,,,,,0,115,115,108,,,,,,,,,,,,,,,,,,,,,,,,,,,,,,,,,,,762.0661960000871,763.0772065999918,763.06054830004,763.6883223000914,763.6883223000914,None,765.514594700071,None,left,0.764734199969098,765.514594700071,None,766.2971134000691,None,left,0.838152899988927,766.2971134000691,None,,,,,,,,,,,,,,,,,,,,,,,PPT39,001,2022-07-07_10h53.25.000,ABstudy,2022.1.4,59.93080389716869,
AB,Lag5_T1P_T2A,5,P,A,8,13,7,5,18,Nunchuks,Did you see the Nunchuks?,0.12,0.016,JPG\,celery,tennisball01b,calculator01,pear01,screw02,orange,button01,nunchuk,onion,apple07,iron01b,brownsugar,banana01,paintbrush01,dandelion,toothbrush03b,blankImage,nunchuk,,,,,,,,,,,,0,116,116,218,,,,,,,,,,,,,,,,,,,,,,,,,,,,,,,,,,,767.1728048999794,768.1821740000742,768.1654949000804,768.7808638000861,768.7808638000861,None,770.7077882000012,None,left,0.6273007000563666,770.7077882000012,None,771.3521428999957,None,right,0.2628565999912098,771.3521428999957,None,,,,,,,,,,,,,,,,,,,,,,,PPT39,001,2022-07-07_10h53.25.000,ABstudy,2022.1.4,59.93080389716869,
AB,Lag5_T1P_T2P,5,P,P,7,12,6,5,17,statue,Did you see the statue?,0.12,0.016,JPG\,pear01,clock01a,cymbal,match,ashtray01,globe,statue,button01,lemon02,pen04b,dice05a,stapler06,toothbrush03b,screwdriver04b,feather03a,key01,blankImage,statue,,,,,,,,,,,,0,117,117,100,,,,,,,,,,,,,,,,,,,,,,,,,,,,,,,,,,,771.6395324000623,772.653449100093,772.6367227000883,773.3310159000102,773.2354992000619,None,775.1858018999919,None,left,7.56481300003361,775.1858018999919,None,782.7802927000448,None,left,1.4200085999909788,782.7802927000448,None,,,,,,,,,,,,,,,,,,,,,,,PPT39,001,2022-07-07_10h53.25.000,ABstudy,2022.1.4,59.93080389716869,
AB,Lag5_T1P_T2P,5,P,P,6,11,5,4,15,Bumper car,Did you see the Bumper car?,0.12,0.016,JPG\,eraser,measuringcup01,chain01,birthdaycandle,ring01,bumpercar,weight04a,pig,cauliflower01,celery,stapler01,sunglasses04,greenolive,candy,strawberry,blankImage,blankImage,bumpercar,,,,,,,,,,,,0,118,118,104,,,,,,,,,,,,,,,,,,,,,,,,,,,,,,,,,,,784.2338446000358,785.2489224000601,785.2155746000353,785.8217491999967,785.8217491999967,None,787.6892385000829,None,left,0.5745666999137029,787.6892385000829,None,788.2860125000589,None,left,0.17785849992651492,788.2860125000589,None,,,,,,,,,,,,,,,,,,,,,,,PPT39,001,2022-07-07_10h53.25.000,ABstudy,2022.1.4,59.93080389716869,
AB,Lag5_T1P_T2A,5,P,A,8,13,7,4,17,Drum set,Did you see the Drum set?,0.12,0.016,JPG\,pencil01,microscope,banana01,computerkeyboard02,celery,cellphone,scissors01,drumset,book01b,onion,dice05a,binoculars01b,baseball01a,iron01b,screw02,fork03c,blankImage,drumset,,,,,,,,,,,,0,119,119,212,,,,,,,,,,,,,,,,,,,,,,,,,,,,,,,,,,,788.4906172000337,789.5036824999843,789.486822100007,790.0744146000361,790.0744146000361,None,791.969606300001,None,left,0.893951200065203,791.969606300001,None,792.8901513000019,None,right,0.25348549999762326,792.8901513000019,None,,,,,,,,,,,,,,,,,,,,,,,PPT39,001,2022-07-07_10h53.25.000,ABstudy,2022.1.4,59.93080389716869,
AB,Lag5_T1P_T2P,5,P,P,7,12,6,5,17,tie,Did you see the tie?,0.12,0.016,JPG\,iron01b,orange,birthdaycandle,potato02b,cauliflower01,pencil01,tie02,candle08b,celery,tableknife02,pen04b,stapler06,ring01,rice,lemon02,tomato01,blankImage,tie02,,,,,,,,,,,,0,120,120,161,,,,,,,,,,,,,,,,,,,,,,,,,,,,,,,,,,,793.1762861000607,794.1914463000139,794.1581268000882,794.7346716000466,794.7346716000466,None,796.7602007000241,None,left,0.9827154000522569,796.7602007000241,None,797.7617582000094,None,left,0.36532900005113333,797.7617582000094,None,,,,,,,,,,,,,,,,,,,,,,,PPT39,001,2022-07-07_10h53.25.000,ABstudy,2022.1.4,59.93080389716869,
AB,Lag5_T1A_T2P,5,A,P,6,11,5,3,14,Kiwi,Did you see the Kiwi?,0.12,0.016,JPG\,paintbrush01,dice05a,watermelon01,broccoli01a,hammer01,leaf02a,match,tennisball01b,lemon02,fan,stapler06,grape01,envelope03a,sponge01,blankImage,blankImage,blankImage,granolabar01,,,,,,,,,,,,0,121,121,261,,,,,,,,,,,,,,,,,,,,,,,,,,,,,,,,,,,798.1546955000376,799.1634985000128,799.1469269000227,799.7158103000838,799.7158103000838,None,801.4476384000154,None,right,1.0390252000652254,801.4476384000154,None,802.5171295000473,None,left,0.40192219999153167,802.5171295000473,None,,,,,,,,,,,,,,,,,,,,,,,PPT39,001,2022-07-07_10h53.25.000,ABstudy,2022.1.4,59.93080389716869,
AB,Lag5_T1A_T2P,5,A,P,8,13,7,5,18,lollipop,Did you see the lollipop?,0.12,0.016,JPG\,watermelon01,banana01,ring01,pencil01,tomato01,speaker04,cucumber,thermometer02b,key01,foosballtable,violin,spoon01,stapler04b,dice05a,pen04b,mushroom01,blankImage,jeans01,,,,,,,,,,,,0,122,122,262,,,,,,,,,,,,,,,,,,,,,,,,,,,,,,,,,,,802.9616227999795,803.9682973000454,803.9515951999929,804.5505911000073,804.5505911000073,None,806.4950999000575,None,right,0.967485300032422,806.4950999000575,None,807.4881299000699,None,right,0.343255199957639,807.4881299000699,None,,,,,,,,,,,,,,,,,,,,,,,PPT39,001,2022-07-07_10h53.25.000,ABstudy,2022.1.4,59.93080389716869,
AB,Lag1_T1A_T2A,1,A,A,7,8,6,5,13,Poker chips,Did you see the Poker chips?,0.12,0.016,JPG\,violin,pizza,toothbrush03b,pineapple01a,banana01,ashtray01,candy,dandelion,clock04,sock01a,microscope,speaker04,calculator01,blankImage,blankImage,blankImage,blankImage,cigar,,,,,,,,,,,,0,123,123,289,,,,,,,,,,,,,,,,,,,,,,,,,,,,,,,,,,,807.8591872000834,808.8727914000629,808.8561223000288,809.4346027000574,809.4346027000574,None,811.0333753000014,None,right,0.7413526000455022,811.0333753000014,None,811.7921511000022,None,right,0.3755081999115646,811.7921511000022,None,,,,,,,,,,,,,,,,,,,,,,,PPT39,001,2022-07-07_10h53.25.000,ABstudy,2022.1.4,59.93080389716869,
AB,Lag5_T1A_T2P,5,A,P,5,10,4,5,15,shower,Did you see the shower?,0.12,0.016,JPG\,sewingmachine01a,thermometer02b,sponge01,eraser,broccoli01a,fork03c,pizza,violin,belt02a,stapler04b,pineapple01a,tennisball01b,dandelion,cauliflower01,lemon02,blankImage,blankImage,redfox,,,,,,,,,,,,0,124,124,271,,,,,,,,,,,,,,,,,,,,,,,,,,,,,,,,,,,812.1951871000929,813.2104728000704,813.1771103000501,813.777076600003,813.777076600003,None,815.5612415000796,None,right,2.541497299913317,815.5612415000796,None,818.1320608999813,None,left,0.4185168999247253,818.1320608999813,None,,,,,,,,,,,,,,,,,,,,,,,PPT39,001,2022-07-07_10h53.25.000,ABstudy,2022.1.4,59.93080389716869,
AB,Lag5_T1P_T2P,5,P,P,8,13,7,5,18,popcorn,Did you see the popcorn?,0.12,0.016,JPG\,toaster01,garlic01a,hairclip03,fan,comb02a,apple07,orange,popcorn,onion,blueberry01,toiletpaper01a,fork03c,stapler06,pineapple01a,scarf,eraser,blankImage,popcorn,,,,,,,,,,,,0,125,125,155,,,,,,,,,,,,,,,,,,,,,,,,,,,,,,,,,,,818.5880343000172,819.6000269000651,819.5836065000622,820.1711844999809,820.1711844999809,None,822.0967072000494,None,right,1.5825400999747217,822.0967072000494,None,823.7040564999916,None,left,0.3183366999728605,823.7040564999916,None,,,,,,,,,,,,,,,,,,,,,,,PPT39,001,2022-07-07_10h53.25.000,ABstudy,2022.1.4,59.93080389716869,
AB,Lag5_T1A_T2P,5,A,P,8,13,7,3,16,ladder,Did you see the ladder?,0.12,0.016,JPG\,apple07,toiletpaper01a,pizza,dandelion,greenolive,eraser,microscope,violin,orange,lipstick02a,balloon01b,sandal,stapler01,fan,book01b,sewingmachine01a,blankImage,ostrich,,,,,,,,,,,,0,126,126,269,,,,,,,,,,,,,,,,,,,,,,,,,,,,,,,,,,,824.0567405000329,825.0721066000406,825.0387106999988,825.6193967000581,825.6193967000581,None,827.5783221999882,None,right,0.988477100036107,827.5783221999882,None,828.5924229000229,None,left,0.2623437000438571,828.5924229000229,None,,,,,,,,,,,,,,,,,,,,,,,PPT39,001,2022-07-07_10h53.25.000,ABstudy,2022.1.4,59.93080389716869,
AB,Lag5_T1P_T2P,5,P,P,8,13,7,4,17,butterfly,Did you see the butterfly?,0.12,0.016,JPG\,speaker04,sewingmachine01a,eraser,violin,globe,belt02a,sunglasses04,butterfly,cd,greenolive,alligator,pear01,stapler01,screwdriver04b,banana01,cigarette,blankImage,butterfly,,,,,,,,,,,,0,127,127,126,,,,,,,,,,,,,,,,,,,,,,,,,,,,,,,,,,,828.8803729000501,829.8938205000013,829.877162000048,830.4534625000088,830.4534625000088,None,832.4111069000792,None,right,2.2913647999521345,832.4111069000792,None,834.7318264000351,None,left,0.2516320999711752,834.7318264000351,None,,,,,,,,,,,,,,,,,,,,,,,PPT39,001,2022-07-07_10h53.25.000,ABstudy,2022.1.4,59.93080389716869,
AB,Lag1_T1P_T2P,1,P,P,6,7,5,3,10,windmill,Did you see the windmill?,0.12,0.016,JPG\,pizza,printer02,medal02b,spoon01,grape01,windmill,stapler04b,watermelon01,celery,battery02b,blankImage,blankImage,blankImage,blankImage,blankImage,blankImage,blankImage,windmill,,,,,,,,,,,,0,128,128,75,,,,,,,,,,,,,,,,,,,,,,,,,,,,,,,,,,,835.0842888000188,836.09995110007,836.0833048000932,836.6761417000089,836.6761417000089,None,837.8560108999955,None,left,0.7426464000018314,837.8560108999955,None,838.6190773000708,None,left,0.45981369994115084,838.6190773000708,None,,,,,,,,,,,,,,,,,,,,,,,PPT39,001,2022-07-07_10h53.25.000,ABstudy,2022.1.4,59.93080389716869,
AB,Lag5_T1P_T2P,5,P,P,6,11,5,3,14,shower head,Did you see the shower head?,0.12,0.016,JPG\,belt02a,measuringcup01,spoon01,chain01,greenolive,showerhead01,computerkeyboard02,onion,fan,strawberry,stapler01,broom01,binoculars01b,ashtray01,blankImage,blankImage,blankImage,showerhead01,,,,,,,,,,,,0,129,129,98,,,,,,,,,,,,,,,,,,,,,,,,,,,,,,,,,,,839.1077647000784,840.1207083000336,840.103883300093,840.6682775000809,840.6682775000809,None,842.4134017000906,None,left,1.049284200067632,842.4134017000906,None,843.4906310000224,None,left,0.30773310002405196,843.4906310000224,None,,,,,,,,,,,,,,,,,,,,,,,PPT39,001,2022-07-07_10h53.25.000,ABstudy,2022.1.4,59.93080389716869,
AB,Lag1_T1P_T2P,1,P,P,7,8,6,5,13,arrow,Did you see the arrow?,0.12,0.016,JPG\,pencil01,broccoli01a,button01,sponge01,watermelon01,lipstick02a,arrow02,stapler04b,lighter01,sock01a,spoon01,blueberry01,belt02a,blankImage,blankImage,blankImage,blankImage,arrow02,,,,,,,,,,,,0,130,130,76,,,,,,,,,,,,,,,,,,,,,,,,,,,,,,,,,,,843.8839175000321,844.8921420000261,844.875329200062,845.5197445000522,845.4433523000916,None,846.9937367000384,None,left,0.8692620999645442,846.9937367000384,None,847.8949497999856,None,right,0.35299769998528063,847.8949497999856,None,,,,,,,,,,,,,,,,,,,,,,,PPT39,001,2022-07-07_10h53.25.000,ABstudy,2022.1.4,59.93080389716869,
AB,Lag1_T1P_T2P,1,P,P,5,6,4,5,11,shark,Did you see the shark?,0.12,0.016,JPG\,cucumber,sponge01,alligator,pear01,greatwhiteshark,stapler06,clock04,battery02b,fork03c,binoculars01b,mushroom01,blankImage,blankImage,blankImage,blankImage,blankImage,blankImage,greatwhiteshark,,,,,,,,,,,,0,131,131,84,,,,,,,,,,,,,,,,,,,,,,,,,,,,,,,,,,,848.281637200038,849.2963976000901,849.2630019000499,849.8917975000804,849.8917975000804,None,851.269884300069,None,left,1.1526499999454245,851.269884300069,None,852.4507934000576,None,right,0.22874210006557405,852.4507934000576,None,,,,,,,,,,,,,,,,,,,,,,,PPT39,001,2022-07-07_10h53.25.000,ABstudy,2022.1.4,59.93080389716869,
AB,Lag5_T1P_T2P,5,P,P,8,13,7,4,17,cruise ship,Did you see the cruise ship?,0.12,0.016,JPG\,measuringcup01,dice05a,greenolive,lipstick02a,feather03a,balloon01b,lighter01,cruiseship,carrot01,plate01b,microscope,brick,stapler05,screw02,speaker04,spoon01,blankImage,cruiseship,,,,,,,,,,,,0,132,132,105,,,,,,,,,,,,,,,,,,,,,,,,,,,,,,,,,,,852.7113333999878,853.7170818999875,853.7003977000713,854.2780209000921,854.2780209000921,None,856.2311318999855,None,left,0.8475708999903873,856.2311318999855,None,857.1042281000409,None,left,0.5424058999633417,857.1042281000409,None,,,,,,,,,,,,,,,,,,,,,,,PPT39,001,2022-07-07_10h53.25.000,ABstudy,2022.1.4,59.93080389716869,
AB,Lag5_T1P_T2A,5,P,A,7,12,6,3,15,helmet,Did you see the helmet?,0.12,0.016,JPG\,fork03c,belt02a,grape01,computerkeyboard02,lemon02,printer02,skihelmet01,toiletpaper01a,toaster01,lipstick02a,book01b,blueberry01,spoon01,apple07,avocado01,blankImage,blankImage,skihelmet01,,,,,,,,,,,,0,133,133,225,,,,,,,,,,,,,,,,,,,,,,,,,,,,,,,,,,,857.6728896000423,858.6724626000505,858.655721200048,859.2265375000425,859.2265375000425,None,861.1547856000252,None,left,0.6998415000271052,861.1547856000252,None,861.8755825000117,None,right,0.2592059000162408,861.8755825000117,None,,,,,,,,,,,,,,,,,,,,,,,PPT39,001,2022-07-07_10h53.25.000,ABstudy,2022.1.4,59.93080389716869,
AB,Lag1_T1P_T2A,1,P,A,7,8,6,4,12,Steering wheel,Did you see the Steering wheel?,0.12,0.016,JPG\,alligator,banana01,apple07,tomato01,button01,spoon01,steeringwheel,fork03c,canoftennisballs,potato02b,grape01,leaf02a,blankImage,blankImage,blankImage,blankImage,blankImage,steeringwheel,,,,,,,,,,,,0,134,134,198,,,,,,,,,,,,,,,,,,,,,,,,,,,,,,,,,,,862.165255800006,863.1768812000519,863.1601607000921,863.6616111000767,863.6616111000767,None,865.1916058000643,None,left,1.223173899925314,865.1916058000643,None,866.4468344000634,None,right,2.4235129000153393,866.4468344000634,None,,,,,,,,,,,,,,,,,,,,,,,PPT39,001,2022-07-07_10h53.25.000,ABstudy,2022.1.4,59.93080389716869,
AB,Lag5_T1P_T2P,5,P,P,5,10,4,3,13,rose,Did you see the rose?,0.12,0.016,JPG\,lipstick02a,cucumber,candle08b,printer02,rose,violin,paintbrush01,lighter01,belt02a,stapler03b,thermometer02b,microscope,cigarette,blankImage,blankImage,blankImage,blankImage,rose,,,,,,,,,,,,0,135,135,158,,,,,,,,,,,,,,,,,,,,,,,,,,,,,,,,,,,868.9022370000603,869.916955600027,869.8835322000086,870.4620267000282,870.4620267000282,None,872.0675588999875,None,left,0.666827000095509,872.0675588999875,None,872.7528679000679,None,left,0.29504009999800473,872.7528679000679,None,,,,,,,,,,,,,,,,,,,,,,,PPT39,001,2022-07-07_10h53.25.000,ABstudy,2022.1.4,59.93080389716869,
AB,Lag5_T1P_T2A,5,P,A,7,12,6,3,15,Toy soldier,Did you see the Toy soldier?,0.12,0.016,JPG\,binoculars01b,cymbal,pizza,candy,paintbrush01,sponge01,toysoldier01b,thermometer02b,speaker04,lemon02,lipstick02a,strawberry,candle01,acorn,plate01b,blankImage,blankImage,toysoldier01b,,,,,,,,,,,,0,136,136,203,,,,,,,,,,,,,,,,,,,,,,,,,,,,,,,,,,,873.072544900002,874.0875705999788,874.0542071000673,874.6358798000729,874.6358798000729,None,876.4507793000666,None,left,0.5634865999454632,876.4507793000666,None,877.0404795000795,None,right,0.2537148999981582,877.0404795000795,None,,,,,,,,,,,,,,,,,,,,,,,PPT39,001,2022-07-07_10h53.25.000,ABstudy,2022.1.4,59.93080389716869,
AB,Lag5_T1P_T2P,5,P,P,7,12,6,5,17,truck,Did you see the truck?,0.12,0.016,JPG\,binoculars01b,speaker04,sandal,envelope03a,plate01b,comb02a,boxtruck,chain01,measuringcup01,key01,medal02b,stapler05,tennisball01b,pizza,cigarette,sunglasses04,blankImage,boxtruck,,,,,,,,,,,,0,137,137,166,,,,,,,,,,,,,,,,,,,,,,,,,,,,,,,,,,,877.3279955000617,878.3420098000206,878.3252841000212,878.8990283000749,878.8990283000749,None,880.8745556999929,None,left,1.1400471000233665,880.8745556999929,None,882.0458164000884,None,left,0.3852142998948693,882.0458164000884,None,,,,,,,,,,,,,,,,,,,,,,,PPT39,001,2022-07-07_10h53.25.000,ABstudy,2022.1.4,59.93080389716869,
