TrialType,CondType,Lag,T1_PA,T2_PA,T1Loc,T2Loc,PreDistractor,PostDistractor,TotalImg,cueWord,T1cue,StimLength,isi,PicFolder,Img1,Img2,Img3,Img4,Img5,Img6,Img7,Img8,Img9,Img10,Img11,Img12,Img13,Img14,Img15,Img16,Img17,T1_Identity,ImageType,T1PA,T2PA,Picture,Image,FullPathName,FilePath,Practice_Trials.thisRepN,Practice_Trials.thisTrialN,Practice_Trials.thisN,Practice_Trials.thisIndex,trials.thisRepN,trials.thisTrialN,trials.thisN,trials.thisIndex,trials_2.thisRepN,trials_2.thisTrialN,trials_2.thisN,trials_2.thisIndex,Practice_Ins.started,Practice_Ins.stopped,End_Prac_Ins.keys,End_Prac_Ins.rt,End_Prac_Ins.started,End_Prac_Ins.stopped,text_2.started,text_2.stopped,Fixation_Cross_2.started,Fixation_Cross_2.stopped,Rapid_Image_Present_2.started,Rapid_Image_Present_2.stopped,key_resp.keys,key_resp.rt,key_resp.started,key_resp.stopped,T1Response_2.started,T1Response_2.stopped,T2Response_2.started,T2Response_2.stopped,key_resp_4.keys,key_resp_4.rt,key_resp_4.started,key_resp_4.stopped,text.started,text.stopped,End_Instructions.keys,End_Instructions.rt,End_Instructions.started,End_Instructions.stopped,text_5.started,text_5.stopped,FC.started,FC.stopped,Rapid_Image_Present.started,Rapid_Image_Present.stopped,T1Response.started,T1Response.stopped,key_resp_2.keys,key_resp_2.rt,key_resp_2.started,key_resp_2.stopped,T2Response.started,T2Response.stopped,key_resp_3.keys,key_resp_3.rt,key_resp_3.started,key_resp_3.stopped,text_6.started,text_6.stopped,Fin_ins.keys,Fin_ins.rt,Fin_ins.started,Fin_ins.stopped,MemTest.started,MemTest.stopped,MemResponse.keys,MemResponse.rt,MemResponse.started,MemResponse.stopped,Display.started,Display.stopped,text_7.started,text_7.stopped,endOfExperiment.started,endOfExperiment.stopped,key_resp_5.keys,key_resp_5.rt,key_resp_5.started,key_resp_5.stopped,participant,session,date,expName,psychopyVersion,frameRate,
,,,,,,,,,,,,,,,,,,,,,,,,,,,,,,,,,,,,,,,,,,,,,,,,,,,,20.627827299991623,None,space,94.52230970002711,20.627827299991623,None,,,,,,,,,,,,,,,,,,,,,,,,,,,,,,,,,,,,,,,,,,,,,,,,,,,,,,,,,,,,,,,,,PPT37,001,2022-07-06_11h00.59.781,ABstudy,2022.1.4,59.985447531350815,
AB_Prac,Lag5_T1P_T2P,5,P,P,5,10,4,5,15,washing machine,Did you see the washing machine?,0.5,0.016,JPG\,waterbottle03,wheel01,flashlight02b,zucchini01,washingmachine,headphones02b,nutcracker01,paintroller01,paperclip03,stapler06,ribbon04,electricrazor,bottleofredwine01,pitabread,pot02a,blankImage,blankImage,washingmachine,,,,,,,,0,0,0,4,,,,,,,,,,,,,,,115.23899630003143,116.2479364000028,116.21495819999836,116.8203327000374,116.8203327000374,None,left,1.477811299962923,124.45624560001306,None,124.45624560001306,None,125.95870219997596,None,left,1.4165721000172198,125.95870219997596,None,,,,,,,,,,,,,,,,,,,,,,,,,,,,,,,,,,,,,,,,,,,,,,,PPT37,001,2022-07-06_11h00.59.781,ABstudy,2022.1.4,59.985447531350815,
AB_Prac,Lag5_T1A_T2P,5,A,P,6,11,5,3,14,dog,Did you see the dog?,0.5,0.016,JPG\,bucket01a,doorlock,cookiecutter,fireextinguisher01,gluestick,highlighter02b,sportbag,spraybottle01,suitcase,thread02,stapler05,walnut01c,icecubetray01a,vikingmask01b,blankImage,blankImage,blankImage,None,,,,,,,,0,1,1,9,,,,,,,,,,,,,,,127.39638669998385,128.40991449996363,128.39315610006452,128.98807249998208,128.98807249998208,None,right,3.792298699961975,136.03792739997152,None,136.03792739997152,None,139.85718679998536,None,left,0.7656218999763951,139.85718679998536,None,,,,,,,,,,,,,,,,,,,,,,,,,,,,,,,,,,,,,,,,,,,,,,,PPT37,001,2022-07-06_11h00.59.781,ABstudy,2022.1.4,59.985447531350815,
AB_Prac,Lag1_T1P_T2A,1,P,A,5,6,4,5,11,Webcam,Did you see the Webcam?,0.5,0.016,JPG\,pictureframe04,binder03b,straw,adjustablewrench01b,webcam,cane,hairdryer02a,icepack,kitchenscale01a,lifejacket,piggybank,blankImage,blankImage,blankImage,blankImage,blankImage,blankImage,webcam,,,,,,,,0,2,2,6,,,,,,,,,,,,,,,140.65303929999936,141.656247899984,141.6396112999646,142.2256447999971,142.2256447999971,None,left,3.3478947000112385,147.737786600017,None,147.737786600017,None,151.11564660002477,None,right,1.7627760000759736,151.11564660002477,None,,,,,,,,,,,,,,,,,,,,,,,,,,,,,,,,,,,,,,,,,,,,,,,PPT37,001,2022-07-06_11h00.59.781,ABstudy,2022.1.4,59.985447531350815,
AB_Prac,Lag5_T1A_T2A,5,A,A,6,11,5,5,16,castle,Did you see the castle?,0.5,0.016,JPG\,tape02a,englishmuffin,flask,ladle02a,monitor,peach01,keychain,squeegee01b,telephone01b,whisk,walkman,syringe02,baguette01,coaster,box01a,coffeepot03a,blankImage,None,,,,,,,,0,3,3,11,,,,,,,,,,,,,,,152.90638810000382,153.91906820004806,153.90321760007646,154.50224379997235,154.50224379997235,None,right,2.604619900113903,162.5133740999736,None,162.5133740999736,None,165.14667669998016,None,right,0.8354819000232965,165.14667669998016,None,,,,,,,,,,,,,,,,,,,,,,,,,,,,,,,,,,,,,,,,,,,,,,,PPT37,001,2022-07-06_11h00.59.781,ABstudy,2022.1.4,59.985447531350815,
AB_Prac,Lag5_T1P_T2P,5,P,P,7,12,6,3,15,vacuum,Did you see the vacuum?,0.5,0.016,JPG\,fork07b,lightbulb01,manshoe,saw02b,shoelace,soap03a,vacuumcleaner01,floortile01,necklace,doll,cabbage,stapler03a,hanger02a,laptop01a,nailpolish03b,blankImage,blankImage,vacuumcleaner01,,,,,,,,0,4,4,2,,,,,,,,,,,,,,,166.01988400006667,167.03164409997407,167.01492500002496,167.59595860005356,167.59595860005356,None,left,1.069167000008747,175.10462910006754,None,175.10462910006754,None,176.1909389999928,None,left,1.1585885001113638,176.1909389999928,None,,,,,,,,,,,,,,,,,,,,,,,,,,,,,,,,,,,,,,,,,,,,,,,PPT37,001,2022-07-06_11h00.59.781,ABstudy,2022.1.4,59.985447531350815,
AB_Prac,Lag1_T1P_T2P,1,P,P,8,9,7,5,14,Tennis racket,Did you see the Tennis racket?,0.5,0.016,JPG\,coconut,computermouse06,croissant01,deodorant02a,pillow01a,peanut01,boot02b,tennisracket,stapler03b,crayon,eggplant,marker01a,plant01,radish01,blankImage,blankImage,blankImage,tennisracket,,,,,,,,0,5,5,0,,,,,,,,,,,,,,,177.4700108000543,178.47643490007613,178.4608555000741,179.07389730005525,179.07389730005525,None,left,1.2747161999577656,186.00343320006505,None,186.00343320006505,None,187.30208260007203,None,left,0.5440349999116734,187.30208260007203,None,,,,,,,,,,,,,,,,,,,,,,,,,,,,,,,,,,,,,,,,,,,,,,,PPT37,001,2022-07-06_11h00.59.781,ABstudy,2022.1.4,59.985447531350815,
AB_Prac,Lag5_T1P_T2A,5,P,A,6,11,5,5,16,Wheat,Did you see the Wheat?,0.5,0.016,JPG\,bottleopener01,dentalfloss03b,cooler01,icecreamcone01a,paperclip01b,wheat,pencilsharpener02a,plasticbasket01a,toycar04,apricot,hairclip02,rock01a,honeydewmelon,antenna,blackberry,cardboardbox,blankImage,wheat,,,,,,,,0,6,6,7,,,,,,,,,,,,,,,187.87255860003643,188.88680370000657,188.8700061000418,189.50166449998505,189.43170199997257,None,left,8.009244000073522,197.46883939998224,None,197.46883939998224,None,205.50361040001735,None,right,1.2632504999637604,205.50361040001735,None,,,,,,,,,,,,,,,,,,,,,,,,,,,,,,,,,,,,,,,,,,,,,,,PPT37,001,2022-07-06_11h00.59.781,ABstudy,2022.1.4,59.985447531350815,
AB_Prac,Lag1_T1P_T2P,1,P,P,6,7,5,5,12,triangle,Did you see the triangle?,0.5,0.016,JPG\,ginger,mousetrap,plum01,slipper01b,dropper01,triangle,stapler04b,pants,raspberry01,rope03,scale01a,vase01,blankImage,blankImage,blankImage,blankImage,blankImage,triangle,,,,,,,,0,7,7,1,,,,,,,,,,,,,,,206.79228769999463,207.80558100005146,207.7888932999922,208.37440169998445,208.37440169998445,None,left,1.0448773000389338,214.3769878000021,None,214.3769878000021,None,215.44913710001856,None,right,0.7731663000304252,215.44913710001856,None,,,,,,,,,,,,,,,,,,,,,,,,,,,,,,,,,,,,,,,,,,,,,,,PPT37,001,2022-07-06_11h00.59.781,ABstudy,2022.1.4,59.985447531350815,
AB_Prac,Lag5_T1P_T2P,5,P,P,5,10,4,5,15,Vulture,Did you see the Vulture?,0.5,0.016,JPG\,shorts01,toast,ramekin01,bib,vulture,cracker02,date,glasses01a,hat03b,stapler01,measuringtape01,nail,pill,drum01,starfish01,blankImage,blankImage,vulture,,,,,,,,0,8,8,3,,,,,,,,,,,,,,,216.25165240000933,217.264889699989,217.24821410002187,217.84261659998447,217.84261659998447,None,right,19.74420800001826,225.3582282999996,None,225.3582282999996,None,245.12630460003857,None,left,0.9605029999511316,245.12630460003857,None,,,,,,,,,,,,,,,,,,,,,,,,,,,,,,,,,,,,,,,,,,,,,,,PPT37,001,2022-07-06_11h00.59.781,ABstudy,2022.1.4,59.985447531350815,
AB_Prac,Lag5_T1P_T2A,5,P,A,6,11,5,5,16,bread,Did you see the bread?,0.5,0.016,JPG\,cleaver01,clipboard,dustpan,hikingshoe01,notebook03a,baguette01,playingcard,pliers02b,styrofoamcup,rollingpin01a,swimgoggles,wineglass01,fryingpan02a,safetypin,syringe01,thimble,blankImage,baguette01,,,,,,,,0,9,9,8,,,,,,,,,,,,,,,246.1144635999808,247.12817270006053,247.1115545000648,247.69832209998276,247.69832209998276,None,left,1.7494165999814868,255.70465319999494,None,255.70465319999494,None,257.4721152000129,None,right,1.3110144999809563,257.4721152000129,None,,,,,,,,,,,,,,,,,,,,,,,,,,,,,,,,,,,,,,,,,,,,,,,PPT37,001,2022-07-06_11h00.59.781,ABstudy,2022.1.4,59.985447531350815,
AB_Prac,Lag1_T1A_T2A,1,A,A,8,9,7,3,12,Moose,Did you see the Moose?,0.5,0.016,JPG\,clothespin03b,corkscrew03a,drillbit03a,fusilli03a,needlenosepliers01,perfume01a,pistachio,scrubbingbrush05b,spatula03,toothpastetube,hinge,toydinosaur,blankImage,blankImage,blankImage,blankImage,blankImage,None,,,,,,,,0,10,10,10,,,,,,,,,,,,,,,258.81986220006365,259.82394699996803,259.80733570002485,260.39582089998294,260.39582089998294,None,right,14.417561599984765,266.4523101999657,None,266.4523101999657,None,280.8952101999894,None,right,1.3583828000118956,280.8952101999894,None,,,,,,,,,,,,,,,,,,,,,,,,,,,,,,,,,,,,,,,,,,,,,,,PPT37,001,2022-07-06_11h00.59.781,ABstudy,2022.1.4,59.985447531350815,
AB_Prac,Lag1_T1P_T2A,1,P,A,8,9,7,5,14,flower,Did you see the flower?,0.5,0.016,JPG\,razor01,axe01,binder03b,bowl01,kettle01,lettuce,lime,plasticflower01b,mitten04,pencilcase01,plunger02,strawbasket01,toothpick02,wallet02a,blankImage,blankImage,blankImage,plasticflower01b,,,,,,,,0,11,11,5,,,,,,,,,,,,,,,282.2841281000292,283.2971977000125,283.28058210003655,283.8630231000716,283.8630231000716,None,left,1.5844288999214768,290.8691365000559,None,290.8691365000559,None,292.4734180000378,None,right,0.6684377000201494,292.4734180000378,None,,,,,,,,,,,,,,,,,,,,,,,,,,,,,,,,,,,,,,,,,,,,,,,PPT37,001,2022-07-06_11h00.59.781,ABstudy,2022.1.4,59.985447531350815,
,,,,,,,,,,,,,,,,,,,,,,,,,,,,,,,,,,,,,,,,,,,,,,,,,,,,,,,,,,,,,,,,,,,,,,,,,,,,293.17461059999187,None,space,32.00747599999886,293.17461059999187,None,,,,,,,,,,,,,,,,,,,,,,,,,,,,,,,,,,,,,,,,,PPT37,001,2022-07-06_11h00.59.781,ABstudy,2022.1.4,59.985447531350815,
AB,Lag5_T1P_T2P,5,P,P,7,12,6,5,17,flower,Did you see the flower?,0.12,0.016,JPG\,leaf02a,pear01,measuringcup01,cigarette,fan,lemon02,lily,tableknife02,ring01,pencil01,cellphone,stapler01,carrot01,binoculars01b,sock01a,book01b,blankImage,lily,,,,,,,,,,,,0,0,0,134,,,,,,,,,,,,,,,,,,,,,,,,,,,,,,,,,,,325.96889839996584,326.97409230004996,326.95733960007783,327.56265930004884,327.56265930004884,None,329.48968160001095,None,left,1.2599430000409484,329.48968160001095,None,330.7807359000435,None,right,1.000622000079602,330.7807359000435,None,,,,,,,,,,,,,,,,,,,,,,,PPT37,001,2022-07-06_11h00.59.781,ABstudy,2022.1.4,59.985447531350815,
AB,Lag1_T1P_T2A,1,P,A,6,7,5,5,12,Barn,Did you see the Barn?,0.12,0.016,JPG\,celery,pencil01,fan,foosballtable,iron01b,barn,potato02b,fork03c,button01,pineapple01a,baseball01a,printer02,blankImage,blankImage,blankImage,blankImage,blankImage,barn,,,,,,,,,,,,0,1,1,181,,,,,,,,,,,,,,,,,,,,,,,,,,,,,,,,,,,331.8569432999939,332.86325389996637,332.8465667000273,333.4212159999879,333.4212159999879,None,334.86625339998864,None,left,11.346864200080745,334.86625339998864,None,346.2431978000095,None,right,0.8338265001075342,346.2431978000095,None,,,,,,,,,,,,,,,,,,,,,,,PPT37,001,2022-07-06_11h00.59.781,ABstudy,2022.1.4,59.985447531350815,
AB,Lag1_T1A_T2A,1,A,A,6,7,5,5,12,flamingo,Did you see the flamingo?,0.12,0.016,JPG\,chain01,pen04b,birthdaycandle,watermelon01,broom01,scissors01,measuringcup01,candle01,hammer01,calculator01,ashtray01,feather03a,blankImage,blankImage,blankImage,blankImage,blankImage,witchhat,,,,,,,,,,,,0,2,2,288,,,,,,,,,,,,,,,,,,,,,,,,,,,,,,,,,,,347.0995092999656,348.1119559999788,348.09538740001153,348.6711940000532,348.6711940000532,None,350.16786929999944,None,right,2.0301386000355706,350.16786929999944,None,352.21585759997834,None,right,1.2297419999958947,352.21585759997834,None,,,,,,,,,,,,,,,,,,,,,,,PPT37,001,2022-07-06_11h00.59.781,ABstudy,2022.1.4,59.985447531350815,
AB,Lag1_T1A_T2P,1,A,P,6,7,5,5,12,Treadmill,Did you see the Treadmill?,0.12,0.016,JPG\,pencil01,broccoli01a,button01,sponge01,watermelon01,lipstick02a,stapler04b,fan,lighter01,sock01a,spoon01,blueberry01,blankImage,blankImage,blankImage,blankImage,blankImage,magneticcompass,,,,,,,,,,,,0,3,3,238,,,,,,,,,,,,,,,,,,,,,,,,,,,,,,,,,,,353.4693515000399,354.4847479000455,354.45139140007086,355.0224871999817,355.0224871999817,None,356.54804170003626,None,right,12.720806499943137,356.54804170003626,None,369.29962750000414,None,right,0.46527630009222776,369.29962750000414,None,,,,,,,,,,,,,,,,,,,,,,,PPT37,001,2022-07-06_11h00.59.781,ABstudy,2022.1.4,59.985447531350815,
AB,Lag5_T1P_T2P,5,P,P,7,12,6,3,15,lips,Did you see the lips?,0.12,0.016,JPG\,cigarette,fork03c,greenolive,broccoli01a,avocado01,tennisball01b,lip,leaf02a,pig,fan,clock01a,stapler03a,envelope03a,birthdaycandle,teabag,blankImage,blankImage,lip,,,,,,,,,,,,0,4,4,95,,,,,,,,,,,,,,,,,,,,,,,,,,,,,,,,,,,369.78792300005443,370.80102999997325,370.78428290004376,371.36557400005404,371.36557400005404,None,373.21060210000724,None,left,1.5227407000493258,373.21060210000724,None,374.75533970003016,None,left,1.3463345000054687,374.75533970003016,None,,,,,,,,,,,,,,,,,,,,,,,PPT37,001,2022-07-06_11h00.59.781,ABstudy,2022.1.4,59.985447531350815,
AB,Lag1_T1A_T2P,1,A,P,5,6,4,3,9,Spider,Did you see the Spider?,0.12,0.016,JPG\,pen04b,speaker04,lighter01,cherry01,8ball,stapler04b,sock01a,toothbrush03b,broom01,blankImage,blankImage,blankImage,blankImage,blankImage,blankImage,blankImage,blankImage,bridge,,,,,,,,,,,,0,5,5,250,,,,,,,,,,,,,,,,,,,,,,,,,,,,,,,,,,,376.13217930006795,377.1413306000177,377.1258514999645,377.7118263000157,377.7118263000157,None,378.7844628000166,None,right,1.5165662999497727,378.7844628000166,None,380.3415323999943,None,right,1.1835053999675438,380.3415323999943,None,,,,,,,,,,,,,,,,,,,,,,,PPT37,001,2022-07-06_11h00.59.781,ABstudy,2022.1.4,59.985447531350815,
AB,Lag5_T1P_T2P,5,P,P,7,12,6,3,15,Eye patch,Did you see the Eye patch?,0.12,0.016,JPG\,candle01,paintbrush01,scissors01,fan,microscope,toothbrush03b,eyepatch,watermelon01,teabag,pencil01,lemon02,stapler05,shirt02,cauliflower01,cd,blankImage,blankImage,eyepatch,,,,,,,,,,,,0,6,6,108,,,,,,,,,,,,,,,,,,,,,,,,,,,,,,,,,,,381.5557033000514,382.56279820005875,382.54603710002266,383.1264701000182,383.1264701000182,None,384.98602319997735,None,left,1.0831651000771672,384.98602319997735,None,386.10008989996277,None,left,0.6489056000718847,386.10008989996277,None,,,,,,,,,,,,,,,,,,,,,,,PPT37,001,2022-07-06_11h00.59.781,ABstudy,2022.1.4,59.985447531350815,
AB,Lag5_T1A_T2A,5,A,A,6,11,5,3,14,mirror,Did you see the mirror?,0.12,0.016,JPG\,foosballtable,candy,envelope03a,microscope,pencil01,leaf02a,scissors01,watermelon01,grape01,dandelion,pineapple01a,hammer01,celery,thermometer02b,blankImage,blankImage,blankImage,shower,,,,,,,,,,,,0,7,7,305,,,,,,,,,,,,,,,,,,,,,,,,,,,,,,,,,,,386.7727852000389,387.7848715999862,387.768211800023,388.27046020003036,388.27046020003036,None,390.07464630005416,None,right,1.5464057999197394,390.07464630005416,None,391.6384153000545,None,right,0.9276602999307215,391.6384153000545,None,,,,,,,,,,,,,,,,,,,,,,,PPT37,001,2022-07-06_11h00.59.781,ABstudy,2022.1.4,59.985447531350815,
AB,Lag5_T1P_T2A,5,P,A,5,10,4,4,14,Ship in a bottle,Did you see the Ship in a bottle?,0.12,0.016,JPG\,sewingmachine01a,thermometer02b,sponge01,eraser,shipinabottle,fork03c,pizza,violin,belt02a,medal02b,pineapple01a,tennisball01b,dandelion,cauliflower01,blankImage,blankImage,blankImage,shipinabottle,,,,,,,,,,,,0,8,8,208,,,,,,,,,,,,,,,,,,,,,,,,,,,,,,,,,,,392.59408060007263,393.6070855000289,393.5904021000024,394.18529890000354,394.18529890000354,None,395.8777379000094,None,left,1.727403900003992,395.8777379000094,None,397.6277441000566,None,right,1.6409849000629038,397.6277441000566,None,,,,,,,,,,,,,,,,,,,,,,,PPT37,001,2022-07-06_11h00.59.781,ABstudy,2022.1.4,59.985447531350815,
AB,Lag1_T1P_T2P,1,P,P,8,9,7,5,14,giraffe,Did you see the giraffe?,0.12,0.016,JPG\,pencil01,foosballtable,banana01,lipstick02a,toaster01,grape01,key01,giraffe,stapler03b,pineapple01a,strawberry,teabag,dandelion,paintbrush01,blankImage,blankImage,blankImage,giraffe,,,,,,,,,,,,0,9,9,0,,,,,,,,,,,,,,,,,,,,,,,,,,,,,,,,,,,399.29917470004875,400.31376689998433,400.2803871000651,400.8528154999949,400.8528154999949,None,402.61808689997997,None,left,1.7234685000730678,402.61808689997997,None,404.3821554000024,None,right,0.8146796999499202,404.3821554000024,None,,,,,,,,,,,,,,,,,,,,,,,PPT37,001,2022-07-06_11h00.59.781,ABstudy,2022.1.4,59.985447531350815,
AB,Lag5_T1A_T2A,5,A,A,7,12,6,3,15,Christmas lights,Did you see the Christmas lights?,0.12,0.016,JPG\,toiletpaper01a,mushroom01,medal02b,sandal,rice,cd,feather03a,pizza,candle08b,garlic01a,toaster01,belt02a,cigarette,violin,lemon02,blankImage,blankImage,rockbass,,,,,,,,,,,,0,10,10,299,,,,,,,,,,,,,,,,,,,,,,,,,,,,,,,,,,,405.2298750000773,406.236928600003,406.22128689999226,406.82894869998563,406.82894869998563,None,408.66394910006784,None,right,1.6377099000383168,408.66394910006784,None,410.32409180002287,None,right,0.7766637000022456,410.32409180002287,None,,,,,,,,,,,,,,,,,,,,,,,PPT37,001,2022-07-06_11h00.59.781,ABstudy,2022.1.4,59.985447531350815,
AB,Lag5_T1P_T2P,5,P,P,7,12,6,3,15,Rollerblade,Did you see the Rollerblade?,0.12,0.016,JPG\,hammer01,sponge01,toaster01,cherry01,feather03a,mushroom01,rollerblade,pencil01,tennisball01b,brick,clock04,stapler06,teabag,garlic01a,envelope03a,blankImage,blankImage,rollerblade,,,,,,,,,,,,0,11,11,116,,,,,,,,,,,,,,,,,,,,,,,,,,,,,,,,,,,411.13797709997743,412.14209780003875,412.12545290007256,412.73698280006647,412.73698280006647,None,414.5775041000452,None,left,1.315989200025797,414.5775041000452,None,415.9131205000449,None,right,1.9010372000047937,415.9131205000449,None,,,,,,,,,,,,,,,,,,,,,,,PPT37,001,2022-07-06_11h00.59.781,ABstudy,2022.1.4,59.985447531350815,
AB,Lag1_T1P_T2P,1,P,P,5,6,4,4,10,Ladybug,Did you see the Ladybug?,0.12,0.016,JPG\,key01,apple07,ring01,leaf02a,ladybug03,stapler04b,violin,sponge01,baseball01a,thermometer02b,blankImage,blankImage,blankImage,blankImage,blankImage,blankImage,blankImage,ladybug03,,,,,,,,,,,,0,12,12,65,,,,,,,,,,,,,,,,,,,,,,,,,,,,,,,,,,,417.8399569999892,418.8490528999828,418.83228259999305,419.4138721000636,419.4138721000636,None,420.6253891000524,None,left,2.3879507000092417,420.6253891000524,None,423.03786030004267,None,right,0.8873202999820933,423.03786030004267,None,,,,,,,,,,,,,,,,,,,,,,,PPT37,001,2022-07-06_11h00.59.781,ABstudy,2022.1.4,59.985447531350815,
AB,Lag5_T1P_T2A,5,P,A,6,11,5,5,16,World map,Did you see the World map?,0.12,0.016,JPG\,cigarette,pig,banana01,strawberry,clock01a,worldmap,spoon01,blueberry01,battery02b,pineapple01a,chain01,paintbrush01,candy,pen04b,teabag,birthdaycandle,blankImage,worldmap,,,,,,,,,,,,0,13,13,205,,,,,,,,,,,,,,,,,,,,,,,,,,,,,,,,,,,423.96218000003137,424.97193040000275,424.9549852000782,425.51923930004705,425.51923930004705,None,427.3954596000258,None,left,1.3065143999410793,427.3954596000258,None,428.7253118000226,None,right,0.8398286000592634,428.7253118000226,None,,,,,,,,,,,,,,,,,,,,,,,PPT37,001,2022-07-06_11h00.59.781,ABstudy,2022.1.4,59.985447531350815,
AB,Lag5_T1P_T2P,5,P,P,5,10,4,5,15,ear,Did you see the ear?,0.12,0.016,JPG\,fork03c,plate01b,toiletpaper01a,greenolive,ear,blueberry01,onion,calculator01,envelope03a,stapler06,book01b,pencil01,sewingmachine01a,brick,watermelon01,blankImage,blankImage,ear,,,,,,,,,,,,0,14,14,107,,,,,,,,,,,,,,,,,,,,,,,,,,,,,,,,,,,429.5950982000213,430.6105514999945,430.57717980002053,431.1630571000278,431.1630571000278,None,433.05237849999685,None,left,1.072900600032881,433.05237849999685,None,434.14842620003037,None,left,0.5609985999763012,434.14842620003037,None,,,,,,,,,,,,,,,,,,,,,,,PPT37,001,2022-07-06_11h00.59.781,ABstudy,2022.1.4,59.985447531350815,
AB,Lag5_T1P_T2P,5,P,P,8,13,7,5,18,skis,Did you see the skis?,0.12,0.016,JPG\,tennisball01b,paintbrush01,medal02b,apple07,speaker04,iron01b,avocado01,downhillski,belt02a,toiletpaper01a,watermelon01,candle01,stapler01,cymbal,ashtray01,screwdriver04b,blankImage,downhillski,,,,,,,,,,,,0,15,15,106,,,,,,,,,,,,,,,,,,,,,,,,,,,,,,,,,,,434.7378587999847,435.7492740000598,435.73267200007103,436.362899400061,436.362899400061,None,438.2636610000627,None,left,1.5260641999775544,438.2636610000627,None,439.82001769996714,None,right,2.520871799904853,439.82001769996714,None,,,,,,,,,,,,,,,,,,,,,,,PPT37,001,2022-07-06_11h00.59.781,ABstudy,2022.1.4,59.985447531350815,
AB,Lag1_T1P_T2P,1,P,P,7,8,6,3,11,Daddy Long Legs,Did you see the Daddy Long Legs?,0.12,0.016,JPG\,lighter01,hammer01,spoon01,chain01,cymbal,sponge01,daddylonglegs,stapler03b,pig,watermelon01,cauliflower01,blankImage,blankImage,blankImage,blankImage,blankImage,blankImage,daddylonglegs,,,,,,,,,,,,0,16,16,86,,,,,,,,,,,,,,,,,,,,,,,,,,,,,,,,,,,442.3793981000781,443.3903723000549,443.37342419999186,443.9545145999873,443.9545145999873,None,445.2976908000419,None,right,19.64319859992247,445.2976908000419,None,464.96137330005877,None,right,0.8993140000384301,464.96137330005877,None,,,,,,,,,,,,,,,,,,,,,,,PPT37,001,2022-07-06_11h00.59.781,ABstudy,2022.1.4,59.985447531350815,
AB,Lag1_T1P_T2P,1,P,P,5,6,4,3,9,dolphin,Did you see the dolphin?,0.12,0.016,JPG\,pig,belt02a,rice,screwdriver04b,dolphin01,stapler05,candle08b,pear01,feather03a,blankImage,blankImage,blankImage,blankImage,blankImage,blankImage,blankImage,blankImage,dolphin01,,,,,,,,,,,,0,17,17,10,,,,,,,,,,,,,,,,,,,,,,,,,,,,,,,,,,,465.8817073999671,466.89670569996815,466.8632976000663,467.36560839996673,467.36560839996673,None,468.5287489000475,None,left,1.5241712999995798,468.5287489000475,None,470.08344249997754,None,left,0.6335858000675216,470.08344249997754,None,,,,,,,,,,,,,,,,,,,,,,,PPT37,001,2022-07-06_11h00.59.781,ABstudy,2022.1.4,59.985447531350815,
AB,Lag5_T1P_T2P,5,P,P,5,10,4,5,15,Safe,Did you see the Safe?,0.12,0.016,JPG\,candle01,shirt02,brick,orange,safe,toothbrush03b,pizza,thermometer02b,book01b,stapler01,sewingmachine01a,toaster01,candy,cymbal,potato02b,blankImage,blankImage,safe,,,,,,,,,,,,0,18,18,159,,,,,,,,,,,,,,,,,,,,,,,,,,,,,,,,,,,470.7725219000131,471.78512460005004,471.76831770001445,472.3597903000191,472.3597903000191,None,474.17892570002005,None,left,1.170683200005442,474.17892570002005,None,475.3721796000609,None,right,1.5050712999654934,475.3721796000609,None,,,,,,,,,,,,,,,,,,,,,,,PPT37,001,2022-07-06_11h00.59.781,ABstudy,2022.1.4,59.985447531350815,
AB,Lag5_T1P_T2A,5,P,A,8,13,7,5,18,telescope,Did you see the telescope?,0.12,0.016,JPG\,globe,broccoli01a,binoculars01b,iron01b,avocado01,dandelion,pineapple01a,handheldtelescope,fan,pizza,celery,blueberry01,sewingmachine01a,dice05a,watermelon01,candy,blankImage,handheldtelescope,,,,,,,,,,,,0,19,19,228,,,,,,,,,,,,,,,,,,,,,,,,,,,,,,,,,,,476.9123644999927,477.9247139999643,477.90799520001747,478.4846999000292,478.4846999000292,None,480.47533699998166,None,left,2.8251157000195235,480.47533699998166,None,483.33020560001023,None,right,0.7472379000391811,483.33020560001023,None,,,,,,,,,,,,,,,,,,,,,,,PPT37,001,2022-07-06_11h00.59.781,ABstudy,2022.1.4,59.985447531350815,
AB,Lag5_T1P_T2P,5,P,P,5,10,4,4,14,Salt shaker,Did you see the Salt shaker?,0.12,0.016,JPG\,fork03c,belt02a,grape01,computerkeyboard02,saltshaker03a,printer02,broom01,toiletpaper01a,toaster01,stapler01,book01b,blueberry01,spoon01,apple07,blankImage,blankImage,blankImage,saltshaker03a,,,,,,,,,,,,0,20,20,96,,,,,,,,,,,,,,,,,,,,,,,,,,,,,,,,,,,484.09978539997246,485.11515149998013,485.08172690006904,485.6803351000417,485.6803351000417,None,487.41745299997274,None,left,1.7232554000802338,487.41745299997274,None,489.1715133000398,None,right,0.8257251000031829,489.1715133000398,None,,,,,,,,,,,,,,,,,,,,,,,PPT37,001,2022-07-06_11h00.59.781,ABstudy,2022.1.4,59.985447531350815,
AB,Lag5_T1P_T2P,5,P,P,6,11,5,5,16,table,Did you see the table?,0.12,0.016,JPG\,birthdaycandle,mushroom01,strawberry,match,cherry01,table01,hammer01,thermometer02b,sock01a,ring01,stapler06,banana01,toiletpaper01a,key01,sponge01,teabag,blankImage,table01,,,,,,,,,,,,0,21,21,144,,,,,,,,,,,,,,,,,,,,,,,,,,,,,,,,,,,490.0282436000416,491.0373608999653,491.0206425000215,491.5213141000131,491.5213141000131,None,493.5148703000741,None,left,0.8900425001047552,493.5148703000741,None,494.42451879999135,None,left,0.6933736000210047,494.42451879999135,None,,,,,,,,,,,,,,,,,,,,,,,PPT37,001,2022-07-06_11h00.59.781,ABstudy,2022.1.4,59.985447531350815,
AB,Lag5_T1P_T2P,5,P,P,5,10,4,4,14,bell,Did you see the bell?,0.12,0.016,JPG\,teabag,envelope03a,cellphone,apple07,callbell,orange,brownsugar,book01b,hammer01,stapler03b,toaster01,calculator01,globe,battery02b,blankImage,blankImage,blankImage,callbell,,,,,,,,,,,,0,22,22,147,,,,,,,,,,,,,,,,,,,,,,,,,,,,,,,,,,,495.1444577999646,496.1592623000033,496.12594190007076,496.70325320004486,496.70325320004486,None,498.40396140003577,None,left,0.7531001000897959,498.40396140003577,None,499.17970550002065,None,left,0.7451368999900296,499.17970550002065,None,,,,,,,,,,,,,,,,,,,,,,,PPT37,001,2022-07-06_11h00.59.781,ABstudy,2022.1.4,59.985447531350815,
AB,Lag1_T1A_T2P,1,A,P,8,9,7,3,12,seal,Did you see the seal?,0.12,0.016,JPG\,dice05a,watch02a,pig,lighter01,button01,strawberry,paintbrush01,microscope,stapler03a,pen04b,feather03a,8ball,blankImage,blankImage,blankImage,blankImage,blankImage,hockeystick,,,,,,,,,,,,0,23,23,235,,,,,,,,,,,,,,,,,,,,,,,,,,,,,,,,,,,499.9511400000192,500.9642171000596,500.94754069997,501.5441406000173,501.5441406000173,None,503.0324382999679,None,right,2.6684019000967965,503.0324382999679,None,505.71867800003383,None,right,0.5422005000291392,505.71867800003383,None,,,,,,,,,,,,,,,,,,,,,,,PPT37,001,2022-07-06_11h00.59.781,ABstudy,2022.1.4,59.985447531350815,
AB,Lag5_T1P_T2P,5,P,P,8,13,7,5,18,bed,Did you see the bed?,0.12,0.016,JPG\,pencil01,broccoli01a,button01,sponge01,watermelon01,lipstick02a,comb02a,bed,lighter01,sock01a,spoon01,blueberry01,stapler04b,onion,grape01,avocado01,blankImage,bed,,,,,,,,,,,,0,24,24,124,,,,,,,,,,,,,,,,,,,,,,,,,,,,,,,,,,,506.2881239000708,507.2874697999796,507.2718300999841,507.90828580001835,507.90828580001835,None,509.7797169999685,None,left,1.5126677000662312,509.7797169999685,None,511.3244680999778,None,left,0.42414019990246743,511.3244680999778,None,,,,,,,,,,,,,,,,,,,,,,,PPT37,001,2022-07-06_11h00.59.781,ABstudy,2022.1.4,59.985447531350815,
AB,Lag5_T1A_T2P,5,A,P,7,12,6,3,15,Car,Did you see the Car?,0.12,0.016,JPG\,lighter01,hammer01,spoon01,chain01,cymbal,sponge01,lipstick02a,alligator,pig,watermelon01,cauliflower01,stapler03b,broccoli01a,tableknife02,tennisball01b,blankImage,blankImage,wallclock,,,,,,,,,,,,0,25,25,277,,,,,,,,,,,,,,,,,,,,,,,,,,,,,,,,,,,511.77952260000166,512.7925586000783,512.7758116000332,513.3706067000749,513.3706067000749,None,515.1761822999688,None,right,4.0932074000593275,515.1761822999688,None,519.2990839000558,None,left,1.4575749000068754,519.2990839000558,None,,,,,,,,,,,,,,,,,,,,,,,PPT37,001,2022-07-06_11h00.59.781,ABstudy,2022.1.4,59.985447531350815,
AB,Lag5_T1P_T2P,5,P,P,5,10,4,3,13,rose,Did you see the rose?,0.12,0.016,JPG\,lipstick02a,cucumber,candle08b,printer02,rose,violin,paintbrush01,lighter01,belt02a,stapler03b,thermometer02b,microscope,cigarette,blankImage,blankImage,blankImage,blankImage,rose,,,,,,,,,,,,0,26,26,158,,,,,,,,,,,,,,,,,,,,,,,,,,,,,,,,,,,520.7865873000119,521.8015517999884,521.7680882000132,522.3647232999792,522.3647232999792,None,523.9685104000382,None,left,1.5408395000267774,523.9685104000382,None,525.5409993999638,None,right,1.1116309999488294,525.5409993999638,None,,,,,,,,,,,,,,,,,,,,,,,PPT37,001,2022-07-06_11h00.59.781,ABstudy,2022.1.4,59.985447531350815,
AB,Lag1_T1A_T2P,1,A,P,5,6,4,4,10,Bull,Did you see the Bull?,0.12,0.016,JPG\,celery,pencil01,fan,foosballtable,iron01b,stapler01,potato02b,fork03c,button01,pineapple01a,blankImage,blankImage,blankImage,blankImage,blankImage,blankImage,blankImage,spiderweb,,,,,,,,,,,,0,27,27,244,,,,,,,,,,,,,,,,,,,,,,,,,,,,,,,,,,,526.6842673000647,527.6911210999824,527.6754927000729,528.2641998999752,528.2641998999752,None,529.5008664999623,None,right,2.952566200052388,529.5008664999623,None,532.4790566000156,None,right,1.8947511999867857,532.4790566000156,None,,,,,,,,,,,,,,,,,,,,,,,PPT37,001,2022-07-06_11h00.59.781,ABstudy,2022.1.4,59.985447531350815,
AB,Lag5_T1A_T2P,5,A,P,7,12,6,4,16,scooter,Did you see the scooter?,0.12,0.016,JPG\,cigarette,pig,banana01,strawberry,clock01a,plate01b,spoon01,blueberry01,battery02b,pineapple01a,chain01,stapler05,candy,pen04b,teabag,birthdaycandle,blankImage,1nose,,,,,,,,,,,,0,28,28,268,,,,,,,,,,,,,,,,,,,,,,,,,,,,,,,,,,,534.4000770000275,535.41511609999,535.3818884000648,535.9470838999841,535.9470838999841,None,537.8372607000638,None,right,2.401227599941194,537.8372607000638,None,540.2697171000764,None,left,1.487237500026822,540.2697171000764,None,,,,,,,,,,,,,,,,,,,,,,,PPT37,001,2022-07-06_11h00.59.781,ABstudy,2022.1.4,59.985447531350815,
AB,Lag1_T1P_T2A,1,P,A,8,9,7,5,14,Sausage,Did you see the Sausage?,0.12,0.016,JPG\,pencil01,broccoli01a,button01,sponge01,watermelon01,lipstick02a,comb02a,sausage,lighter01,sock01a,spoon01,blueberry01,belt02a,onion,blankImage,blankImage,blankImage,sausage,,,,,,,,,,,,0,29,29,175,,,,,,,,,,,,,,,,,,,,,,,,,,,,,,,,,,,541.8418921000557,542.8555968999863,542.838951200014,543.4384473999962,543.4384473999962,None,545.1054143999936,None,left,1.8993807000806555,545.1054143999936,None,547.0275227000238,None,right,0.6813488999614492,547.0275227000238,None,,,,,,,,,,,,,,,,,,,,,,,PPT37,001,2022-07-06_11h00.59.781,ABstudy,2022.1.4,59.985447531350815,
AB,Lag5_T1P_T2P,5,P,P,8,13,7,4,17,cruise ship,Did you see the cruise ship?,0.12,0.016,JPG\,measuringcup01,dice05a,greenolive,lipstick02a,feather03a,balloon01b,lighter01,cruiseship,carrot01,plate01b,microscope,brick,stapler05,screw02,speaker04,spoon01,blankImage,cruiseship,,,,,,,,,,,,0,30,30,105,,,,,,,,,,,,,,,,,,,,,,,,,,,,,,,,,,,547.7344147000695,548.745153099997,548.7285395000363,549.3218157000374,549.3218157000374,None,551.3331161000533,None,left,0.8083828999660909,551.3331161000533,None,552.164891500026,None,left,0.5844833999872208,552.164891500026,None,,,,,,,,,,,,,,,,,,,,,,,PPT37,001,2022-07-06_11h00.59.781,ABstudy,2022.1.4,59.985447531350815,
AB,Lag1_T1P_T2P,1,P,P,8,9,7,4,13,Bird House,Did you see the Bird House?,0.12,0.016,JPG\,toiletpaper01a,mushroom01,medal02b,sandal,rice,cd,feather03a,birdhouse,stapler01,garlic01a,toaster01,belt02a,cigarette,blankImage,blankImage,blankImage,blankImage,birdhouse,,,,,,,,,,,,0,31,31,77,,,,,,,,,,,,,,,,,,,,,,,,,,,,,,,,,,,552.7878764000488,553.8000586000271,553.7833081000717,554.3742306999629,554.3742306999629,None,555.9445035000099,None,left,1.148483099997975,555.9445035000099,None,557.1198498000158,None,right,0.6859434000216424,557.1198498000158,None,,,,,,,,,,,,,,,,,,,,,,,PPT37,001,2022-07-06_11h00.59.781,ABstudy,2022.1.4,59.985447531350815,
AB,Lag1_T1P_T2P,1,P,P,8,9,7,4,13,dart board,Did you see the dart board?,0.12,0.016,JPG\,rice,watermelon01,tableknife02,scarf,computerkeyboard02,cauliflower01,battery02b,dartboard,stapler01,sandal,sponge01,microscope,tomato01,blankImage,blankImage,blankImage,blankImage,dartboard,,,,,,,,,,,,0,32,32,80,,,,,,,,,,,,,,,,,,,,,,,,,,,,,,,,,,,557.8414326000493,558.8551662999671,558.821647600038,559.4025265000528,559.4025265000528,None,560.9924079000484,None,right,1.5159205999225378,560.9924079000484,None,562.5252089999849,None,left,0.775935799931176,562.5252089999849,None,,,,,,,,,,,,,,,,,,,,,,,PPT37,001,2022-07-06_11h00.59.781,ABstudy,2022.1.4,59.985447531350815,
AB,Lag5_T1P_T2P,5,P,P,7,12,6,5,17,Badminton Racket,Did you see the Badminton Racket?,0.12,0.016,JPG\,paintbrush01,dice05a,watermelon01,broccoli01a,hammer01,leaf02a,badmintonracket,tennisball01b,lemon02,fan,lipstick02a,stapler04b,envelope03a,sponge01,foosballtable,orange,blankImage,badmintonracket,,,,,,,,,,,,0,33,33,163,,,,,,,,,,,,,,,,,,,,,,,,,,,,,,,,,,,563.3297513000434,564.3443405000726,564.3290154000279,564.9640009000432,564.8928270000033,None,566.8783325999975,None,left,0.7826023000525311,566.8783325999975,None,567.6807175000431,None,left,0.5242497000144795,567.6807175000431,None,,,,,,,,,,,,,,,,,,,,,,,PPT37,001,2022-07-06_11h00.59.781,ABstudy,2022.1.4,59.985447531350815,
AB,Lag5_T1A_T2P,5,A,P,5,10,4,5,15,parachute,Did you see the parachute?,0.12,0.016,JPG\,binoculars01b,speaker04,sandal,envelope03a,plate01b,comb02a,battery02b,chain01,measuringcup01,stapler03b,medal02b,lamp04a,tennisball01b,pizza,cigarette,blankImage,blankImage,knee,,,,,,,,,,,,0,34,34,264,,,,,,,,,,,,,,,,,,,,,,,,,,,,,,,,,,,568.2367327000247,569.2487375000492,569.2321781000355,569.8168217999628,569.8168217999628,None,571.6661315000383,None,right,3.5628283999394625,571.6661315000383,None,575.2549139000475,None,left,0.6538272999459878,575.2549139000475,None,,,,,,,,,,,,,,,,,,,,,,,PPT37,001,2022-07-06_11h00.59.781,ABstudy,2022.1.4,59.985447531350815,
AB,Lag1_T1P_T2P,1,P,P,5,6,4,3,9,Pumpkin,Did you see the Pumpkin?,0.12,0.016,JPG\,binoculars01b,speaker04,sandal,envelope03a,pumpkin,stapler03b,battery02b,chain01,measuringcup01,blankImage,blankImage,blankImage,blankImage,blankImage,blankImage,blankImage,blankImage,pumpkin,,,,,,,,,,,,0,35,35,23,,,,,,,,,,,,,,,,,,,,,,,,,,,,,,,,,,,575.9470778000541,576.9564056000672,576.9396505000768,577.5282085000072,577.5282085000072,None,578.6383194000227,None,left,1.5583941999357194,578.6383194000227,None,580.2264587000245,None,right,0.8274989000055939,580.2264587000245,None,,,,,,,,,,,,,,,,,,,,,,,PPT37,001,2022-07-06_11h00.59.781,ABstudy,2022.1.4,59.985447531350815,
AB,Lag1_T1A_T2P,1,A,P,8,9,7,4,13,Toolbox,Did you see the Toolbox?,0.12,0.016,JPG\,pizza,printer02,medal02b,spoon01,grape01,lighter01,belt02a,watermelon01,stapler03b,battery02b,screw02,comb02a,cauliflower01,blankImage,blankImage,blankImage,blankImage,ladybug03,,,,,,,,,,,,0,36,36,237,,,,,,,,,,,,,,,,,,,,,,,,,,,,,,,,,,,581.0838067000732,582.0948741000611,582.0781702999957,582.6867624999722,582.6867624999722,None,584.2372269000625,None,right,2.3433096999069676,584.2372269000625,None,586.5991769999964,None,left,0.6051616000477225,586.5991769999964,None,,,,,,,,,,,,,,,,,,,,,,,PPT37,001,2022-07-06_11h00.59.781,ABstudy,2022.1.4,59.985447531350815,
AB,Lag1_T1A_T2P,1,A,P,8,9,7,5,14,clock,Did you see the clock?,0.12,0.016,JPG\,speaker04,sewingmachine01a,eraser,violin,globe,belt02a,sunglasses04,cymbal,stapler01,greenolive,alligator,pear01,watch02a,screwdriver04b,blankImage,blankImage,blankImage,peacock,,,,,,,,,,,,0,37,37,240,,,,,,,,,,,,,,,,,,,,,,,,,,,,,,,,,,,587.2354612000054,588.2508592000231,588.2175469000358,588.8014968000352,588.8014968000352,None,590.5214872000506,None,left,8.867319699958898,590.5214872000506,None,599.4117942000739,None,right,0.91277140006423,599.4117942000739,None,,,,,,,,,,,,,,,,,,,,,,,PPT37,001,2022-07-06_11h00.59.781,ABstudy,2022.1.4,59.985447531350815,
AB,Lag1_T1P_T2P,1,P,P,6,7,5,5,12,Snowboard,Did you see the Snowboard?,0.12,0.016,JPG\,belt02a,measuringcup01,spoon01,chain01,greenolive,snowboard,stapler01,onion,fan,strawberry,candle01,broom01,blankImage,blankImage,blankImage,blankImage,blankImage,snowboard,,,,,,,,,,,,0,38,38,49,,,,,,,,,,,,,,,,,,,,,,,,,,,,,,,,,,,600.3908958999673,601.3972571999766,601.3806025000522,601.957223800011,601.957223800011,None,603.3984542000107,None,left,1.1496184000279754,603.3984542000107,None,604.5670693999855,None,left,1.1100812999065965,604.5670693999855,None,,,,,,,,,,,,,,,,,,,,,,,PPT37,001,2022-07-06_11h00.59.781,ABstudy,2022.1.4,59.985447531350815,
AB,Lag1_T1P_T2P,1,P,P,5,6,4,3,9,elephant,Did you see the elephant?,0.12,0.016,JPG\,celery,brownsugar,key01,sunglasses04,arugula,stapler04b,dice05a,tennisball01b,scarf,blankImage,blankImage,blankImage,blankImage,blankImage,blankImage,blankImage,blankImage,arugula,,,,,,,,,,,,0,39,39,54,,,,,,,,,,,,,,,,,,,,,,,,,,,,,,,,,,,605.7041360000148,606.7031090999953,606.6875310000032,607.3133736000163,607.3133736000163,None,608.4660450000083,None,right,1.5462635000003502,608.4660450000083,None,610.039544200059,None,right,0.9169985000044107,610.039544200059,None,,,,,,,,,,,,,,,,,,,,,,,PPT37,001,2022-07-06_11h00.59.781,ABstudy,2022.1.4,59.985447531350815,
AB,Lag5_T1P_T2P,5,P,P,6,11,5,3,14,shower head,Did you see the shower head?,0.12,0.016,JPG\,belt02a,measuringcup01,spoon01,chain01,greenolive,showerhead01,computerkeyboard02,onion,fan,strawberry,stapler01,broom01,binoculars01b,ashtray01,blankImage,blankImage,blankImage,showerhead01,,,,,,,,,,,,0,40,40,98,,,,,,,,,,,,,,,,,,,,,,,,,,,,,,,,,,,610.9879082000116,611.991096300073,611.9578114000615,612.541078099981,612.541078099981,None,614.2723882000428,None,left,1.2044367999769747,614.2723882000428,None,615.5090344999917,None,right,0.9597383999498561,615.5090344999917,None,,,,,,,,,,,,,,,,,,,,,,,PPT37,001,2022-07-06_11h00.59.781,ABstudy,2022.1.4,59.985447531350815,
AB,Lag5_T1P_T2P,5,P,P,6,11,5,4,15,saxophone,Did you see the saxophone?,0.12,0.016,JPG\,pizza,strawberry,potato02b,speaker04,battery02b,saxophone,dice05a,cellphone,globe,banana01,stapler03b,baseball01a,toaster01,broom01,ring01,blankImage,blankImage,saxophone,,,,,,,,,,,,0,41,41,117,,,,,,,,,,,,,,,,,,,,,,,,,,,,,,,,,,,616.4984043000732,617.5132555000018,617.4799588000169,618.1074788999977,618.1074788999977,None,619.9090541000478,None,left,1.2635888999793679,619.9090541000478,None,621.2031319000525,None,left,0.8900738999946043,621.2031319000525,None,,,,,,,,,,,,,,,,,,,,,,,PPT37,001,2022-07-06_11h00.59.781,ABstudy,2022.1.4,59.985447531350815,
AB,Lag5_T1P_T2P,5,P,P,7,12,6,5,17,statue,Did you see the statue?,0.12,0.016,JPG\,pear01,clock01a,cymbal,match,ashtray01,globe,statue,button01,lemon02,pen04b,dice05a,stapler06,toothbrush03b,screwdriver04b,feather03a,key01,blankImage,statue,,,,,,,,,,,,0,42,42,100,,,,,,,,,,,,,,,,,,,,,,,,,,,,,,,,,,,622.1273113000207,623.1356153000379,623.1189288999885,623.7021129999775,623.7021129999775,None,625.6247163000517,None,left,1.2603606999618933,625.6247163000517,None,626.9063227999723,None,right,0.8818115000613034,626.9063227999723,None,,,,,,,,,,,,,,,,,,,,,,,PPT37,001,2022-07-06_11h00.59.781,ABstudy,2022.1.4,59.985447531350815,
AB,Lag1_T1A_T2P,1,A,P,5,6,4,3,9,barrel,Did you see the barrel?,0.12,0.016,JPG\,clock01a,cellphone,toaster01,toothbrush03b,cauliflower01,stapler01,comb02a,paintbrush01,scarf,blankImage,blankImage,blankImage,blankImage,blankImage,blankImage,blankImage,blankImage,sheep,,,,,,,,,,,,0,43,43,243,,,,,,,,,,,,,,,,,,,,,,,,,,,,,,,,,,,627.8111376999877,628.8247944000177,628.8080506999977,629.3981725000776,629.3981725000776,None,630.5890817000763,None,right,1.4874772999901325,630.5890817000763,None,632.0948251000373,None,right,1.1418828000314534,632.0948251000373,None,,,,,,,,,,,,,,,,,,,,,,,PPT37,001,2022-07-06_11h00.59.781,ABstudy,2022.1.4,59.985447531350815,
AB,Lag5_T1P_T2P,5,P,P,5,10,4,4,14,duck,Did you see the duck?,0.12,0.016,JPG\,celery,pencil01,fan,foosballtable,duck01,shirt02,potato02b,fork03c,button01,stapler03a,baseball01a,printer02,cauliflower01,dandelion,blankImage,blankImage,blankImage,duck01,,,,,,,,,,,,0,44,44,130,,,,,,,,,,,,,,,,,,,,,,,,,,,,,,,,,,,633.2671123000327,634.2801843000343,634.2633886999683,634.869961700053,634.869961700053,None,636.450081899995,None,left,1.3623939000535756,636.450081899995,None,637.8339264000533,None,left,0.4910373999737203,637.8339264000533,None,,,,,,,,,,,,,,,,,,,,,,,PPT37,001,2022-07-06_11h00.59.781,ABstudy,2022.1.4,59.985447531350815,
AB,Lag5_T1A_T2P,5,A,P,6,11,5,5,16,baseball bat,Did you see the baseball bat?,0.12,0.016,JPG\,avocado01,aceofdiamond,match,cauliflower01,paintbrush01,clock01a,pig,cd,balloon01b,cellphone,stapler01,pear01,toaster01,sponge01,orange,blueberry01,blankImage,stool01,,,,,,,,,,,,0,45,45,273,,,,,,,,,,,,,,,,,,,,,,,,,,,,,,,,,,,638.3567360000452,639.3684958000667,639.3523796000518,639.9498984999955,639.9498984999955,None,641.8479789000703,None,right,5.29227589990478,641.8479789000703,None,647.1594721999718,None,right,1.0604813999962062,647.1594721999718,None,,,,,,,,,,,,,,,,,,,,,,,PPT37,001,2022-07-06_11h00.59.781,ABstudy,2022.1.4,59.985447531350815,
AB,Lag1_T1A_T2P,1,A,P,8,9,7,3,12,porcupine,Did you see the porcupine?,0.12,0.016,JPG\,celery,orange,scissors01,balloon01b,avocado01,printer02,mushroom01,sewingmachine01a,stapler01,dice05a,ashtray01,fan,blankImage,blankImage,blankImage,blankImage,blankImage,drumstick,,,,,,,,,,,,0,46,46,233,,,,,,,,,,,,,,,,,,,,,,,,,,,,,,,,,,,648.2461288999766,649.2454800000414,649.22991860006,649.8385803999845,649.8385803999845,None,651.2786036999896,None,right,16.886865000007674,651.2786036999896,None,668.1973419999704,None,right,0.7602636999217793,668.1973419999704,None,,,,,,,,,,,,,,,,,,,,,,,PPT37,001,2022-07-06_11h00.59.781,ABstudy,2022.1.4,59.985447531350815,
AB,Lag5_T1P_T2P,5,P,P,6,11,5,3,14,Poker chips,Did you see the Poker chips?,0.12,0.016,JPG\,iron01b,brick,broccoli01a,balloon01b,tomato01,pokerchips,sandal,teabag,scissors01,pineapple01a,stapler04b,measuringcup01,sock01a,book01b,blankImage,blankImage,blankImage,pokerchips,,,,,,,,,,,,0,47,47,154,,,,,,,,,,,,,,,,,,,,,,,,,,,,,,,,,,,669.0423635999905,670.049124400015,670.0324375999626,670.648434999981,670.648434999981,None,672.3015354999807,None,left,0.5666965000564232,672.3015354999807,None,672.8856253999984,None,left,0.5187139000045136,672.8856253999984,None,,,,,,,,,,,,,,,,,,,,,,,PPT37,001,2022-07-06_11h00.59.781,ABstudy,2022.1.4,59.985447531350815,
AB,Lag5_T1P_T2A,5,P,A,7,12,6,5,17,flower,Did you see the flower?,0.12,0.016,JPG\,cellphone,tomato01,comb02a,candy,celery,cucumber,craneflower,fan,feather03a,pen04b,lemon02,blueberry01,plate01b,cherry01,baseball01a,candle08b,blankImage,craneflower,,,,,,,,,,,,0,48,48,211,,,,,,,,,,,,,,,,,,,,,,,,,,,,,,,,,,,673.4397497000173,674.453651900054,674.4369739000686,675.004388100002,675.004388100002,None,677.0371011999669,None,right,1.5835643000900745,677.0371011999669,None,678.6408119000262,None,right,2.6270675000268966,678.6408119000262,None,,,,,,,,,,,,,,,,,,,,,,,PPT37,001,2022-07-06_11h00.59.781,ABstudy,2022.1.4,59.985447531350815,
AB,Lag5_T1P_T2A,5,P,A,8,13,7,5,18,Nunchuks,Did you see the Nunchuks?,0.12,0.016,JPG\,celery,tennisball01b,calculator01,pear01,screw02,orange,button01,nunchuk,onion,apple07,iron01b,brownsugar,banana01,paintbrush01,dandelion,toothbrush03b,blankImage,nunchuk,,,,,,,,,,,,0,49,49,218,,,,,,,,,,,,,,,,,,,,,,,,,,,,,,,,,,,681.2989441000391,682.3114074000623,682.2948220999679,682.8782409999985,682.8782409999985,None,684.803348800051,None,left,1.1379591999575496,684.803348800051,None,685.965140699991,None,right,0.9911554000573233,685.965140699991,None,,,,,,,,,,,,,,,,,,,,,,,PPT37,001,2022-07-06_11h00.59.781,ABstudy,2022.1.4,59.985447531350815,
AB,Lag5_T1P_T2P,5,P,P,5,10,4,5,15,Bee,Did you see the Bee?,0.12,0.016,JPG\,fork03c,dandelion,dice05a,belt02a,honeybee,watch02a,key01,globe,eraser,stapler03a,greenolive,shirt02,candle08b,cigarette,garlic01a,blankImage,blankImage,honeybee,,,,,,,,,,,,0,50,50,149,,,,,,,,,,,,,,,,,,,,,,,,,,,,,,,,,,,686.9876579999691,688.0003178999759,687.9835906999651,688.56679479999,688.56679479999,None,690.3837693000678,None,left,0.7810189999872819,690.3837693000678,None,691.1894904000219,None,left,0.5350638000527397,691.1894904000219,None,,,,,,,,,,,,,,,,,,,,,,,PPT37,001,2022-07-06_11h00.59.781,ABstudy,2022.1.4,59.985447531350815,
AB,Lag1_T1P_T2P,1,P,P,5,6,4,5,11,beaver,Did you see the beaver?,0.12,0.016,JPG\,belt02a,sunglasses04,computerkeyboard02,cherry01,beaver,stapler03a,watch02a,dice05a,blueberry01,spoon01,match,blankImage,blankImage,blankImage,blankImage,blankImage,blankImage,beaver,,,,,,,,,,,,0,51,51,55,,,,,,,,,,,,,,,,,,,,,,,,,,,,,,,,,,,691.7561599999899,692.7715759000275,692.7382940000389,693.3244626000524,693.3244626000524,None,694.6381613999838,None,left,9.037811700021848,694.6381613999838,None,703.7001820000587,None,right,1.176679499913007,703.7001820000587,None,,,,,,,,,,,,,,,,,,,,,,,PPT37,001,2022-07-06_11h00.59.781,ABstudy,2022.1.4,59.985447531350815,
AB,Lag1_T1P_T2P,1,P,P,6,7,5,4,11,American football,Did you see the American football?,0.12,0.016,JPG\,toaster01,garlic01a,faucet,fan,comb02a,football,stapler06,watch02a,onion,blueberry01,toiletpaper01a,blankImage,blankImage,blankImage,blankImage,blankImage,blankImage,football,,,,,,,,,,,,0,52,52,12,,,,,,,,,,,,,,,,,,,,,,,,,,,,,,,,,,,704.9751114000101,705.9853721000254,705.9697990000714,706.593548099976,706.593548099976,None,707.868732700008,None,left,0.8636524999747053,707.868732700008,None,708.7544968000147,None,left,0.7460361999692395,708.7544968000147,None,,,,,,,,,,,,,,,,,,,,,,,PPT37,001,2022-07-06_11h00.59.781,ABstudy,2022.1.4,59.985447531350815,
AB,Lag1_T1P_T2P,1,P,P,8,9,7,4,13,Hula hoop,Did you see the Hula hoop?,0.12,0.016,JPG\,brownsugar,candle01,match,printer02,broom01,balloon01b,belt02a,hulahoop,stapler04b,feather03a,rice,mushroom01,pencil01,blankImage,blankImage,blankImage,blankImage,hulahoop,,,,,,,,,,,,0,53,53,64,,,,,,,,,,,,,,,,,,,,,,,,,,,,,,,,,,,709.5284601000603,710.5398679999635,710.5242565000663,711.0405891999835,711.0244345000247,None,712.713995099999,None,left,0.6821049000136554,712.713995099999,None,713.4254241000162,None,left,0.627565799979493,713.4254241000162,None,,,,,,,,,,,,,,,,,,,,,,,PPT37,001,2022-07-06_11h00.59.781,ABstudy,2022.1.4,59.985447531350815,
AB,Lag5_T1A_T2P,5,A,P,5,10,4,3,13,flower,Did you see the flower?,0.12,0.016,JPG\,cucumber,ring01,lipstick02a,microscope,violin,garlic01a,celery,lighter01,cherry01,stapler03a,belt02a,key01,binoculars01b,blankImage,blankImage,blankImage,blankImage,christmastree,,,,,,,,,,,,0,54,54,284,,,,,,,,,,,,,,,,,,,,,,,,,,,,,,,,,,,714.079795800033,715.0777074999642,715.0622471000534,715.6474123999942,715.6474123999942,None,717.2289466999937,None,right,0.9363056999864057,717.2289466999937,None,718.1971109000733,None,right,2.046690799994394,718.1971109000733,None,,,,,,,,,,,,,,,,,,,,,,,PPT37,001,2022-07-06_11h00.59.781,ABstudy,2022.1.4,59.985447531350815,
AB,Lag1_T1A_T2P,1,A,P,7,8,6,5,13,Horseshoe,Did you see the Horseshoe?,0.12,0.016,JPG\,leaf02a,apple07,cd,pineapple01a,envelope03a,paintbrush01,pig,stapler06,rice,feather03a,lemon02,balloon01b,avocado01,blankImage,blankImage,blankImage,blankImage,rooster,,,,,,,,,,,,0,55,55,241,,,,,,,,,,,,,,,,,,,,,,,,,,,,,,,,,,,720.2708510999801,721.2834684000118,721.2667459000368,721.8475285000168,721.8475285000168,None,723.457269800012,None,right,0.9949550000019372,723.457269800012,None,724.4696982000023,None,right,1.3823645000811666,724.4696982000023,None,,,,,,,,,,,,,,,,,,,,,,,PPT37,001,2022-07-06_11h00.59.781,ABstudy,2022.1.4,59.985447531350815,
AB,Lag5_T1P_T2A,5,P,A,7,12,6,5,17,shoulder,Did you see the shoulder?,0.12,0.016,JPG\,battery02b,sunglasses04,pear01,tennisball01b,clock01a,speaker04,shoulder,spoon01,alligator,pineapple01a,avocado01,grape01,blueberry01,violin,strawberry,sock01a,blankImage,shoulder,,,,,,,,,,,,0,56,56,224,,,,,,,,,,,,,,,,,,,,,,,,,,,,,,,,,,,725.8733823000221,726.8888499999885,726.8554796000244,727.4403880999889,727.4403880999889,None,729.398593800026,None,left,1.277097100042738,729.398593800026,None,730.6930063000182,None,right,0.7029846999794245,730.6930063000182,None,,,,,,,,,,,,,,,,,,,,,,,PPT37,001,2022-07-06_11h00.59.781,ABstudy,2022.1.4,59.985447531350815,
AB,Lag5_T1P_T2P,5,P,P,6,11,5,5,16,scooter,Did you see the scooter?,0.12,0.016,JPG\,thermometer02b,candle08b,comb02a,toothbrush03b,brick,scooter,key01,pineapple01a,candy,birthdaycandle,stapler04b,canoftennisballs,teabag,medal02b,balloon01b,banana01,blankImage,scooter,,,,,,,,,,,,0,57,57,118,,,,,,,,,,,,,,,,,,,,,,,,,,,,,,,,,,,731.4302655999782,732.4445537000429,732.4278186999727,733.0117906000232,733.0117906000232,None,734.9228171000723,None,left,0.6826859000138938,734.9228171000723,None,735.6312447000528,None,left,0.36438139993697405,735.6312447000528,None,,,,,,,,,,,,,,,,,,,,,,,PPT37,001,2022-07-06_11h00.59.781,ABstudy,2022.1.4,59.985447531350815,
AB,Lag5_T1P_T2A,5,P,A,8,13,7,4,17,knife,Did you see the knife?,0.12,0.016,JPG\,lighter01,hammer01,spoon01,chain01,cymbal,sponge01,lipstick02a,knife03,pig,watermelon01,cauliflower01,lemon02,broccoli01a,tableknife02,tennisball01b,toothbrush03b,blankImage,knife03,,,,,,,,,,,,0,58,58,214,,,,,,,,,,,,,,,,,,,,,,,,,,,,,,,,,,,736.0205744999694,737.0327161999885,737.0160174000775,737.5856341000181,737.5856341000181,None,739.5358317999635,None,left,1.627683800063096,739.5358317999635,None,741.1864080000669,None,right,1.4657583000371233,741.1864080000669,None,,,,,,,,,,,,,,,,,,,,,,,PPT37,001,2022-07-06_11h00.59.781,ABstudy,2022.1.4,59.985447531350815,
AB,Lag1_T1P_T2P,1,P,P,7,8,6,5,13,horse,Did you see the horse?,0.12,0.016,JPG\,watermelon01,pencil01,microscope,blueberry01,computerkeyboard02,lamp04a,horse,stapler03b,sock01a,key01,binoculars01b,cauliflower01,ashtray01,blankImage,blankImage,blankImage,blankImage,horse,,,,,,,,,,,,0,59,59,3,,,,,,,,,,,,,,,,,,,,,,,,,,,,,,,,,,,742.6735410999972,743.688937400002,743.6555373000447,744.2788064000197,744.2788064000197,None,745.8604423999786,None,left,1.487636600038968,745.8604423999786,None,747.3759268000722,None,left,0.7002237000269815,747.3759268000722,None,,,,,,,,,,,,,,,,,,,,,,,PPT37,001,2022-07-06_11h00.59.781,ABstudy,2022.1.4,59.985447531350815,
AB,Lag5_T1A_T2A,5,A,A,5,10,4,5,15,sword,Did you see the sword?,0.12,0.016,JPG\,pencil01,broccoli01a,button01,sponge01,watermelon01,lipstick02a,comb02a,fan,lighter01,sock01a,spoon01,blueberry01,belt02a,onion,grape01,blankImage,blankImage,parachute,,,,,,,,,,,,0,60,60,298,,,,,,,,,,,,,,,,,,,,,,,,,,,,,,,,,,,748.0955715000164,749.1110331000527,749.0777128000045,749.6494424999692,749.6494424999692,None,751.5061034000246,None,right,0.7791087999939919,751.5061034000246,None,752.3169796000002,None,right,0.8952188999392092,752.3169796000002,None,,,,,,,,,,,,,,,,,,,,,,,PPT37,001,2022-07-06_11h00.59.781,ABstudy,2022.1.4,59.985447531350815,
AB,Lag5_T1P_T2A,5,P,A,6,11,5,5,16,fish,Did you see the fish?,0.12,0.016,JPG\,cucumber,ring01,lipstick02a,microscope,violin,redlionfish,celery,lighter01,cherry01,sewingmachine01a,belt02a,key01,binoculars01b,medal02b,watermelon01,dice05a,blankImage,redlionfish,,,,,,,,,,,,0,61,61,221,,,,,,,,,,,,,,,,,,,,,,,,,,,,,,,,,,,753.2429767000722,754.2492804999929,754.2325861999998,754.8029760000063,754.8029760000063,None,756.7815790000604,None,right,1.7512097998987883,756.7815790000604,None,758.5540906999959,None,right,1.0018247000407428,758.5540906999959,None,,,,,,,,,,,,,,,,,,,,,,,PPT37,001,2022-07-06_11h00.59.781,ABstudy,2022.1.4,59.985447531350815,
AB,Lag5_T1P_T2A,5,P,A,5,10,4,3,13,fan,Did you see the fan?,0.12,0.016,JPG\,scissors01,grape01,mushroom01,toiletpaper01a,fanheater,pizza,cigarette,ashtray01,carrot01,pineapple01a,foosballtable,lipstick02a,teabag,blankImage,blankImage,blankImage,blankImage,fanheater,,,,,,,,,,,,0,62,62,220,,,,,,,,,,,,,,,,,,,,,,,,,,,,,,,,,,,759.5921183000319,760.6060428000055,760.589284799993,761.2383437000681,761.1674485000549,None,762.7148902000627,None,left,0.969511799979955,762.7148902000627,None,763.7116678999737,None,right,0.6204770000185817,763.7116678999737,None,,,,,,,,,,,,,,,,,,,,,,,PPT37,001,2022-07-06_11h00.59.781,ABstudy,2022.1.4,59.985447531350815,
AB,Lag5_T1A_T2A,5,A,A,7,12,6,4,16,Eye,Did you see the Eye?,0.12,0.016,JPG\,rice,watermelon01,tableknife02,scarf,computerkeyboard02,cauliflower01,battery02b,binoculars01b,book01b,sandal,sponge01,microscope,tomato01,fork03c,thermometer02b,apple07,blankImage,scooter,,,,,,,,,,,,0,63,63,302,,,,,,,,,,,,,,,,,,,,,,,,,,,,,,,,,,,764.3618383000139,765.3772530000424,765.3437827000162,765.9215559000149,765.9215559000149,None,767.8695888000075,None,right,1.518432499957271,767.8695888000075,None,769.4144805000396,None,right,1.9976527000544593,769.4144805000396,None,,,,,,,,,,,,,,,,,,,,,,,PPT37,001,2022-07-06_11h00.59.781,ABstudy,2022.1.4,59.985447531350815,
AB,Lag1_T1P_T2A,1,P,A,7,8,6,4,12,gorilla,Did you see the gorilla?,0.12,0.016,JPG\,scissors01,ashtray01,garlic01a,medal02b,cigarette,candle08b,gorilla,envelope03a,cucumber,rice,toiletpaper01a,greenolive,blankImage,blankImage,blankImage,blankImage,blankImage,gorilla,,,,,,,,,,,,0,64,64,189,,,,,,,,,,,,,,,,,,,,,,,,,,,,,,,,,,,771.4354013999691,772.4509009000612,772.4175691000419,772.9923987999791,772.9923987999791,None,774.4737330999924,None,left,1.7075300000142306,774.4737330999924,None,776.2050979000051,None,right,0.8002775000641122,776.2050979000051,None,,,,,,,,,,,,,,,,,,,,,,,PPT37,001,2022-07-06_11h00.59.781,ABstudy,2022.1.4,59.985447531350815,
AB,Lag5_T1P_T2P,5,P,P,6,11,5,5,16,keys,Did you see the keys?,0.12,0.016,JPG\,toiletpaper01a,mushroom01,medal02b,sandal,rice,foldingchair,feather03a,pizza,candle08b,garlic01a,stapler01,belt02a,cigarette,violin,lemon02,fork03c,blankImage,foldingchair,,,,,,,,,,,,0,65,65,125,,,,,,,,,,,,,,,,,,,,,,,,,,,,,,,,,,,777.026530400035,778.0399758999702,778.0232200999744,778.6569142000517,778.6569142000517,None,780.5170411000727,None,right,4.199118399992585,780.5170411000727,None,784.7467108999845,None,left,0.5702858000295237,784.7467108999845,None,,,,,,,,,,,,,,,,,,,,,,,PPT37,001,2022-07-06_11h00.59.781,ABstudy,2022.1.4,59.985447531350815,
AB,Lag1_T1P_T2P,1,P,P,7,8,6,5,13,disco ball,Did you see the disco ball?,0.12,0.016,JPG\,candle01,paintbrush01,scissors01,fan,microscope,toothbrush03b,discoball,stapler03b,teabag,pencil01,lemon02,ashtray01,shirt02,blankImage,blankImage,blankImage,blankImage,discoball,,,,,,,,,,,,0,66,66,60,,,,,,,,,,,,,,,,,,,,,,,,,,,,,,,,,,,785.3514584000222,786.3651857000077,786.3481889000395,786.9322811000748,786.9322811000748,None,788.5409555999795,None,left,0.7751008000923321,788.5409555999795,None,789.3342535999836,None,left,0.5331474000122398,789.3342535999836,None,,,,,,,,,,,,,,,,,,,,,,,PPT37,001,2022-07-06_11h00.59.781,ABstudy,2022.1.4,59.985447531350815,
AB,Lag1_T1P_T2A,1,P,A,5,6,4,5,11,Sailboat,Did you see the Sailboat?,0.12,0.016,JPG\,chain01,speaker04,avocado01,watermelon01,sailboat,comb02a,lamp04a,fork03c,toaster01,slipper03b,scissors01,blankImage,blankImage,blankImage,blankImage,blankImage,blankImage,sailboat,,,,,,,,,,,,0,67,67,193,,,,,,,,,,,,,,,,,,,,,,,,,,,,,,,,,,,789.88859029999,790.9025556000415,790.8858732000226,791.5164240000304,791.4451315000188,None,792.8094066000776,None,left,1.7160400000866503,792.8094066000776,None,794.5591917000711,None,right,0.8451804999494925,794.5591917000711,None,,,,,,,,,,,,,,,,,,,,,,,PPT37,001,2022-07-06_11h00.59.781,ABstudy,2022.1.4,59.985447531350815,
AB,Lag5_T1P_T2P,5,P,P,8,13,7,3,16,Chefs hat,Did you see the Chefs hat?,0.12,0.016,JPG\,rice,watermelon01,tableknife02,scarf,computerkeyboard02,cauliflower01,battery02b,chefshat,book01b,sandal,sponge01,microscope,stapler01,fork03c,thermometer02b,apple07,blankImage,chefshat,,,,,,,,,,,,0,68,68,128,,,,,,,,,,,,,,,,,,,,,,,,,,,,,,,,,,,795.4274778000545,796.4414409999736,796.424782200018,797.0081987000303,797.0081987000303,None,798.9520415000152,None,right,3.052280699950643,798.9520415000152,None,802.0304938000627,None,right,0.7102297999663278,802.0304938000627,None,,,,,,,,,,,,,,,,,,,,,,,PPT37,001,2022-07-06_11h00.59.781,ABstudy,2022.1.4,59.985447531350815,
AB,Lag1_T1A_T2P,1,A,P,8,9,7,4,13,Rabbit,Did you see the Rabbit?,0.12,0.016,JPG\,lamp04a,broccoli01a,alligator,garlic01a,dandelion,brownsugar,avocado01,ring01,stapler06,cellphone,medal02b,cd,calculator01,blankImage,blankImage,blankImage,blankImage,escalator,,,,,,,,,,,,0,69,69,254,,,,,,,,,,,,,,,,,,,,,,,,,,,,,,,,,,,802.7691722000018,803.7823083000258,803.7657468999969,804.3333747000434,804.3333747000434,None,805.9037672000704,None,right,1.3004353999858722,805.9037672000704,None,807.2357751000673,None,right,0.9686128000030294,807.2357751000673,None,,,,,,,,,,,,,,,,,,,,,,,PPT37,001,2022-07-06_11h00.59.781,ABstudy,2022.1.4,59.985447531350815,
AB,Lag1_T1P_T2P,1,P,P,6,7,5,4,11,cash register,Did you see the cash register?,0.12,0.016,JPG\,leaf02a,apple07,cd,pineapple01a,envelope03a,cashregister01,stapler03b,8ball,rice,feather03a,lemon02,blankImage,blankImage,blankImage,blankImage,blankImage,blankImage,cashregister01,,,,,,,,,,,,0,70,70,79,,,,,,,,,,,,,,,,,,,,,,,,,,,,,,,,,,,808.2416132000508,809.2543596000178,809.2375983999809,809.8296632000711,809.8296632000711,None,811.1628810999682,None,left,0.9852743000956252,811.1628810999682,None,812.1740942000179,None,right,2.094595000031404,812.1740942000179,None,,,,,,,,,,,,,,,,,,,,,,,PPT37,001,2022-07-06_11h00.59.781,ABstudy,2022.1.4,59.985447531350815,
AB,Lag1_T1P_T2P,1,P,P,7,8,6,3,11,cloud,Did you see the cloud?,0.12,0.016,JPG\,lighter01,hammer01,spoon01,chain01,cymbal,sponge01,cloud,stapler06,pig,watermelon01,cauliflower01,blankImage,blankImage,blankImage,blankImage,blankImage,blankImage,cloud,,,,,,,,,,,,0,71,71,36,,,,,,,,,,,,,,,,,,,,,,,,,,,,,,,,,,,814.2965225999942,815.310488600051,815.2937970000785,815.9254395000171,815.8488945000572,None,817.1928285000613,None,left,2.6985237000044435,817.1928285000613,None,819.914833100047,None,left,0.7938408999470994,819.914833100047,None,,,,,,,,,,,,,,,,,,,,,,,PPT37,001,2022-07-06_11h00.59.781,ABstudy,2022.1.4,59.985447531350815,
AB,Lag5_T1P_T2P,5,P,P,5,10,4,5,15,funnel,Did you see the funnel?,0.12,0.016,JPG\,pineapple01a,tennisball01b,computerkeyboard02,feather03a,funnel,acorn,violin,blueberry01,medal02b,stapler01,greenolive,screwdriver04b,potato02b,fork03c,cymbal,blankImage,blankImage,funnel,,,,,,,,,,,,0,72,72,109,,,,,,,,,,,,,,,,,,,,,,,,,,,,,,,,,,,820.7357788999798,821.7500402000733,821.7166517999722,822.3123155999929,822.3123155999929,None,824.0905207999749,None,right,9.841513099963777,824.0905207999749,None,833.9620855000103,None,right,1.5296089000767097,833.9620855000103,None,,,,,,,,,,,,,,,,,,,,,,,PPT37,001,2022-07-06_11h00.59.781,ABstudy,2022.1.4,59.985447531350815,
AB,Lag5_T1P_T2P,5,P,P,5,10,4,3,13,bathtub,Did you see the bathtub?,0.12,0.016,JPG\,belt02a,sunglasses04,computerkeyboard02,cherry01,bathtub,eraser,watch02a,dice05a,blueberry01,stapler04b,match,leaf02a,iron01b,blankImage,blankImage,blankImage,blankImage,bathtub,,,,,,,,,,,,0,73,73,103,,,,,,,,,,,,,,,,,,,,,,,,,,,,,,,,,,,835.51586829999,836.5313552999869,836.4979051999981,837.1032773000188,837.1032773000188,None,838.6636799999978,None,right,4.501138900057413,838.6636799999978,None,843.1886203000322,None,left,1.0307834000559524,843.1886203000322,None,,,,,,,,,,,,,,,,,,,,,,,PPT37,001,2022-07-06_11h00.59.781,ABstudy,2022.1.4,59.985447531350815,
AB,Lag1_T1P_T2P,1,P,P,7,8,6,4,12,Dog House,Did you see the Dog House?,0.12,0.016,JPG\,pineapple01a,leaf02a,grape01,toiletpaper01a,match,tennisball01b,doghouse,stapler03b,pig,measuringcup01,ring01,lemon02,blankImage,blankImage,blankImage,blankImage,blankImage,doghouse,,,,,,,,,,,,0,74,74,44,,,,,,,,,,,,,,,,,,,,,,,,,,,,,,,,,,,844.2448294999776,845.2569317000452,845.2401204999769,845.8357968999771,845.8357968999771,None,847.3422161999624,None,left,1.126066999975592,847.3422161999624,None,848.4931820000056,None,right,0.7428305000066757,848.4931820000056,None,,,,,,,,,,,,,,,,,,,,,,,PPT37,001,2022-07-06_11h00.59.781,ABstudy,2022.1.4,59.985447531350815,
AB,Lag5_T1P_T2P,5,P,P,7,12,6,5,17,flamingo,Did you see the flamingo?,0.12,0.016,JPG\,pig,belt02a,rice,screwdriver04b,candle01,apple07,flamingo,pear01,feather03a,match,thermometer02b,stapler06,lemon02,violin,medal02b,pineapple01a,blankImage,flamingo,,,,,,,,,,,,0,75,75,153,,,,,,,,,,,,,,,,,,,,,,,,,,,,,,,,,,,849.2633603999857,850.2783701000735,850.2449730000226,850.7457764999708,850.7457764999708,None,852.7542047000024,None,left,1.2093630000017583,852.7542047000024,None,853.9820526000112,None,right,0.725400900002569,853.9820526000112,None,,,,,,,,,,,,,,,,,,,,,,,PPT37,001,2022-07-06_11h00.59.781,ABstudy,2022.1.4,59.985447531350815,
AB,Lag1_T1A_T2P,1,A,P,7,8,6,5,13,Ant,Did you see the Ant?,0.12,0.016,JPG\,rice,watermelon01,tableknife02,scarf,computerkeyboard02,cauliflower01,battery02b,stapler03b,book01b,sandal,sponge01,microscope,tomato01,blankImage,blankImage,blankImage,blankImage,sandcastle,,,,,,,,,,,,0,76,76,242,,,,,,,,,,,,,,,,,,,,,,,,,,,,,,,,,,,854.735357800033,855.7343961000443,855.7188074999722,856.3623206000775,856.3623206000775,None,857.9219500999898,None,right,1.4497285999823362,857.9219500999898,None,859.4043544000015,None,right,1.2243954000296071,859.4043544000015,None,,,,,,,,,,,,,,,,,,,,,,,PPT37,001,2022-07-06_11h00.59.781,ABstudy,2022.1.4,59.985447531350815,
AB,Lag1_T1P_T2P,1,P,P,8,9,7,4,13,bowling ball,Did you see the bowling ball?,0.12,0.016,JPG\,dandelion,pineapple01a,broom01,pen04b,sock01a,sandal,foosballtable,bowlingball,stapler01,toothbrush03b,celery,candle08b,tennisball01b,blankImage,blankImage,blankImage,blankImage,bowlingball,,,,,,,,,,,,0,77,77,7,,,,,,,,,,,,,,,,,,,,,,,,,,,,,,,,,,,860.6574533999665,861.6566143999808,861.6400167000247,862.1434057999868,862.1434057999868,None,863.792397000012,None,left,0.6684979000128806,863.792397000012,None,864.4925149000483,None,right,0.8310417999746278,864.4925149000483,None,,,,,,,,,,,,,,,,,,,,,,,PPT37,001,2022-07-06_11h00.59.781,ABstudy,2022.1.4,59.985447531350815,
AB,Lag1_T1P_T2P,1,P,P,7,8,6,3,11,tree,Did you see the tree?,0.12,0.016,JPG\,pear01,clock01a,cymbal,match,ashtray01,globe,tree,stapler03b,lemon02,pen04b,dice05a,blankImage,blankImage,blankImage,blankImage,blankImage,blankImage,tree,,,,,,,,,,,,0,78,78,51,,,,,,,,,,,,,,,,,,,,,,,,,,,,,,,,,,,865.3455926000606,866.3610784000484,866.3277403999818,866.9378581000492,866.9378581000492,None,868.2791637000628,None,left,1.4040125999599695,868.2791637000628,None,869.7149000000209,None,right,0.7201960999518633,869.7149000000209,None,,,,,,,,,,,,,,,,,,,,,,,PPT37,001,2022-07-06_11h00.59.781,ABstudy,2022.1.4,59.985447531350815,
AB,Lag1_T1P_T2A,1,P,A,5,6,4,5,11,Electric toothbrush,Did you see the Electric toothbrush?,0.12,0.016,JPG\,carrot01,greenolive,fork03c,chain01,electrictoothbrush01c,watermelon01,tableknife02,printer02,comb02a,toaster01,orange,blankImage,blankImage,blankImage,blankImage,blankImage,blankImage,electrictoothbrush01c,,,,,,,,,,,,0,79,79,186,,,,,,,,,,,,,,,,,,,,,,,,,,,,,,,,,,,870.4738120000111,871.4831694000168,871.4663065000204,872.0425831000321,872.0425831000321,None,873.3887768000131,None,left,3.255209199967794,873.3887768000131,None,876.6716761999996,None,right,0.6997502000303939,876.6716761999996,None,,,,,,,,,,,,,,,,,,,,,,,PPT37,001,2022-07-06_11h00.59.781,ABstudy,2022.1.4,59.985447531350815,
AB,Lag1_T1P_T2P,1,P,P,7,8,6,3,11,swing,Did you see the swing?,0.12,0.016,JPG\,sewingmachine01a,thermometer02b,sponge01,eraser,broccoli01a,fork03c,swing,stapler03b,belt02a,medal02b,pineapple01a,blankImage,blankImage,blankImage,blankImage,blankImage,blankImage,swing,,,,,,,,,,,,0,80,80,30,,,,,,,,,,,,,,,,,,,,,,,,,,,,,,,,,,,877.4502908000723,878.456630300032,878.4400585000403,879.0291712000035,879.0291712000035,None,880.3300852000248,None,left,0.8017799999797717,880.3300852000248,None,881.1594932000153,None,right,1.1315187000436708,881.1594932000153,None,,,,,,,,,,,,,,,,,,,,,,,PPT37,001,2022-07-06_11h00.59.781,ABstudy,2022.1.4,59.985447531350815,
AB,Lag5_T1P_T2P,5,P,P,6,11,5,3,14,wrench,Did you see the wrench?,0.12,0.016,JPG\,cherry01,cymbal,envelope03a,foosballtable,shirt02,stubbywrench01a,sewingmachine01a,candle08b,battery02b,apple07,stapler03b,screwdriver04b,strawberry,sunglasses04,blankImage,blankImage,blankImage,stubbywrench01a,,,,,,,,,,,,0,81,81,122,,,,,,,,,,,,,,,,,,,,,,,,,,,,,,,,,,,882.3144174000481,883.3281266000122,883.3114331000252,883.8971218999941,883.8971218999941,None,885.6575115000596,None,left,15.258001900045201,885.6575115000596,None,900.9454424000578,None,right,1.8347829999402165,900.9454424000578,None,,,,,,,,,,,,,,,,,,,,,,,PPT37,001,2022-07-06_11h00.59.781,ABstudy,2022.1.4,59.985447531350815,
AB,Lag1_T1P_T2A,1,P,A,7,8,6,3,11,walkie talkie,Did you see the walkie talkie?,0.12,0.016,JPG\,teabag,envelope03a,cellphone,apple07,cauliflower01,orange,walkietalkie,book01b,hammer01,feather03a,toaster01,blankImage,blankImage,blankImage,blankImage,blankImage,blankImage,walkietalkie,,,,,,,,,,,,0,82,82,197,,,,,,,,,,,,,,,,,,,,,,,,,,,,,,,,,,,902.8020047000609,903.8150322000729,903.7983542999718,904.3813870999729,904.3813870999729,None,905.7439672000473,None,left,0.6597053000004962,905.7439672000473,None,906.4345135000767,None,right,1.0090707999188453,906.4345135000767,None,,,,,,,,,,,,,,,,,,,,,,,PPT37,001,2022-07-06_11h00.59.781,ABstudy,2022.1.4,59.985447531350815,
AB,Lag5_T1A_T2A,5,A,A,5,10,4,5,15,flower,Did you see the flower?,0.12,0.016,JPG\,clock01a,cellphone,toaster01,toothbrush03b,cauliflower01,microscope,comb02a,paintbrush01,scarf,clock04,sponge01,iron01b,watch02a,celery,ring01,blankImage,blankImage,stepladder,,,,,,,,,,,,0,83,83,303,,,,,,,,,,,,,,,,,,,,,,,,,,,,,,,,,,,907.4749685999705,908.4864951000782,908.4697550999699,909.0584289999679,909.0584289999679,None,910.9458964000223,None,right,0.9704034000169486,910.9458964000223,None,911.9397087000543,None,right,1.439820499974303,911.9397087000543,None,,,,,,,,,,,,,,,,,,,,,,,PPT37,001,2022-07-06_11h00.59.781,ABstudy,2022.1.4,59.985447531350815,
AB,Lag1_T1A_T2A,1,A,A,7,8,6,5,13,Poker chips,Did you see the Poker chips?,0.12,0.016,JPG\,violin,pizza,toothbrush03b,pineapple01a,banana01,ashtray01,candy,dandelion,clock04,sock01a,microscope,speaker04,calculator01,blankImage,blankImage,blankImage,blankImage,cigar,,,,,,,,,,,,0,84,84,289,,,,,,,,,,,,,,,,,,,,,,,,,,,,,,,,,,,913.4106289000483,914.4255607000086,914.3921573000262,914.9675053000683,914.9675053000683,None,916.572574299993,None,right,1.0306229999987409,916.572574299993,None,917.6287266999716,None,right,1.0463627999415621,917.6287266999716,None,,,,,,,,,,,,,,,,,,,,,,,PPT37,001,2022-07-06_11h00.59.781,ABstudy,2022.1.4,59.985447531350815,
AB,Lag5_T1P_T2P,5,P,P,5,10,4,3,13,Jellyfish,Did you see the Jellyfish?,0.12,0.016,JPG\,printer02,envelope03a,potato02b,calculator01,jellyfish,cigarette,ashtray01,pig,broom01,stapler06,candle08b,battery02b,strawberry,blankImage,blankImage,blankImage,blankImage,jellyfish,,,,,,,,,,,,0,85,85,91,,,,,,,,,,,,,,,,,,,,,,,,,,,,,,,,,,,918.7038101999788,919.7141476999968,919.6974458000623,920.2863463000394,920.2863463000394,None,921.8416634000605,None,left,0.8258846999378875,921.8416634000605,None,922.6843625999754,None,left,0.6163212000392377,922.6843625999754,None,,,,,,,,,,,,,,,,,,,,,,,PPT37,001,2022-07-06_11h00.59.781,ABstudy,2022.1.4,59.985447531350815,
AB,Lag5_T1P_T2P,5,P,P,6,11,5,4,15,sword,Did you see the sword?,0.12,0.016,JPG\,8ball,banana01,scissors01,pig,shirt02,broadsword,pear01,sponge01,fork03c,tableknife02,stapler06,match,toothbrush03b,birthdaycandle,candle01,blankImage,blankImage,broadsword,,,,,,,,,,,,0,86,86,167,,,,,,,,,,,,,,,,,,,,,,,,,,,,,,,,,,,923.3217305999715,924.3355426000198,924.3188235000707,924.9137936000479,924.9137936000479,None,926.7196278000483,None,left,0.612930899951607,926.7196278000483,None,927.3550813000184,None,left,0.3603828999912366,927.3550813000184,None,,,,,,,,,,,,,,,,,,,,,,,PPT37,001,2022-07-06_11h00.59.781,ABstudy,2022.1.4,59.985447531350815,
AB,Lag5_T1A_T2A,5,A,A,5,10,4,5,15,truck,Did you see the truck?,0.12,0.016,JPG\,pizza,printer02,medal02b,spoon01,grape01,lighter01,belt02a,watermelon01,celery,battery02b,screw02,comb02a,cauliflower01,lipstick02a,potato02b,blankImage,blankImage,postalmailbox01,,,,,,,,,,,,0,87,87,297,,,,,,,,,,,,,,,,,,,,,,,,,,,,,,,,,,,927.7414856000105,928.7565102999797,928.7231441000476,929.3390276000137,929.3390276000137,None,931.110791800078,None,right,4.820671199937351,931.110791800078,None,935.9637002999661,None,right,0.7757031999062747,935.9637002999661,None,,,,,,,,,,,,,,,,,,,,,,,PPT37,001,2022-07-06_11h00.59.781,ABstudy,2022.1.4,59.985447531350815,
AB,Lag5_T1P_T2P,5,P,P,6,11,5,5,16,Car,Did you see the Car?,0.12,0.016,JPG\,leaf02a,apple07,cd,pineapple01a,envelope03a,car,pig,canoftennisballs,rice,feather03a,stapler03a,balloon01b,avocado01,calculator01,watermelon01,teabag,blankImage,car,,,,,,,,,,,,0,88,88,127,,,,,,,,,,,,,,,,,,,,,,,,,,,,,,,,,,,936.7669180000667,937.7821459000697,937.7488217999926,938.3252686000196,938.3252686000196,None,940.3335928000743,None,left,1.0296509000472724,940.3335928000743,None,941.3856958000688,None,right,0.7452095999615267,941.3856958000688,None,,,,,,,,,,,,,,,,,,,,,,,PPT37,001,2022-07-06_11h00.59.781,ABstudy,2022.1.4,59.985447531350815,
AB,Lag1_T1P_T2A,1,P,A,8,9,7,5,14,Fridge,Did you see the Fridge?,0.12,0.016,JPG\,cherry01,cymbal,envelope03a,foosballtable,shirt02,cellphone,sewingmachine01a,fridge,battery02b,apple07,pencil01,screwdriver04b,strawberry,sunglasses04,blankImage,blankImage,blankImage,fridge,,,,,,,,,,,,0,89,89,173,,,,,,,,,,,,,,,,,,,,,,,,,,,,,,,,,,,942.1586510000052,943.1708233000245,943.1541086999932,943.737426900072,943.737426900072,None,945.4398673999822,None,left,3.564027799991891,945.4398673999822,None,949.0266837000381,None,left,0.8241591000696644,949.0266837000381,None,,,,,,,,,,,,,,,,,,,,,,,PPT37,001,2022-07-06_11h00.59.781,ABstudy,2022.1.4,59.985447531350815,
AB,Lag5_T1P_T2A,5,P,A,6,11,5,3,14,Balcony,Did you see the Balcony?,0.12,0.016,JPG\,tomato01,pen04b,shirt02,carrot01,lamp04a,balcony02,pizza,avocado01,sewingmachine01a,apple07,iron01b,book01b,chain01,sock01a,blankImage,blankImage,blankImage,balcony02,,,,,,,,,,,,0,90,90,207,,,,,,,,,,,,,,,,,,,,,,,,,,,,,,,,,,,949.8797599000391,950.8951243000338,950.8618237000192,951.434954800061,951.434954800061,None,953.1770249999827,None,left,1.371325800078921,953.1770249999827,None,954.5655047000619,None,right,0.5660342000192031,954.5655047000619,None,,,,,,,,,,,,,,,,,,,,,,,PPT37,001,2022-07-06_11h00.59.781,ABstudy,2022.1.4,59.985447531350815,
AB,Lag5_T1P_T2A,5,P,A,5,10,4,5,15,Shield,Did you see the Shield?,0.12,0.016,JPG\,cigarette,fork03c,greenolive,broccoli01a,shield02,tennisball01b,balloon01b,leaf02a,pig,fan,clock01a,strawberry,envelope03a,birthdaycandle,teabag,blankImage,blankImage,shield02,,,,,,,,,,,,0,91,91,223,,,,,,,,,,,,,,,,,,,,,,,,,,,,,,,,,,,955.1518354000291,956.1670926000224,956.1337308000075,956.7266520999838,956.7266520999838,None,958.557440900011,None,right,1.0537125000264496,958.557440900011,None,959.6372232000576,None,right,1.5976356000173837,959.6372232000576,None,,,,,,,,,,,,,,,,,,,,,,,PPT37,001,2022-07-06_11h00.59.781,ABstudy,2022.1.4,59.985447531350815,
AB,Lag1_T1P_T2A,1,P,A,7,8,6,3,11,Armadillo,Did you see the Armadillo?,0.12,0.016,JPG\,clock01a,cellphone,toaster01,toothbrush03b,cauliflower01,microscope,armadillo,paintbrush01,scarf,clock04,sponge01,blankImage,blankImage,blankImage,blankImage,blankImage,blankImage,armadillo,,,,,,,,,,,,0,92,92,180,,,,,,,,,,,,,,,,,,,,,,,,,,,,,,,,,,,961.3199080000632,962.3235206999816,962.3068929000292,962.901299500023,962.901299500023,None,964.2242757000495,None,left,0.8113408000208437,964.2242757000495,None,965.059328100062,None,right,0.9443529000272974,965.059328100062,None,,,,,,,,,,,,,,,,,,,,,,,PPT37,001,2022-07-06_11h00.59.781,ABstudy,2022.1.4,59.985447531350815,
AB,Lag5_T1P_T2A,5,P,A,5,10,4,3,13,pin,Did you see the pin?,0.12,0.016,JPG\,candle01,fork03c,plate01b,violin,pin,candy,calculator01,paintbrush01,cherry01,sock01a,teabag,banana01,cd,blankImage,blankImage,blankImage,blankImage,pin,,,,,,,,,,,,0,93,93,215,,,,,,,,,,,,,,,,,,,,,,,,,,,,,,,,,,,966.0294175000163,967.0446098999819,967.0112353999866,967.5839297000784,967.5839297000784,None,969.1679617000045,None,right,1.6270672000246122,969.1679617000045,None,970.8156042000046,None,right,1.0768776000477374,970.8156042000046,None,,,,,,,,,,,,,,,,,,,,,,,PPT37,001,2022-07-06_11h00.59.781,ABstudy,2022.1.4,59.985447531350815,
AB,Lag1_T1P_T2P,1,P,P,8,9,7,4,13,mattress,Did you see the mattress?,0.12,0.016,JPG\,button01,celery,birthdaycandle,apple07,avocado01,tennisball01b,dice05a,mattress,stapler01,feather03a,tomato01,scarf,orange,blankImage,blankImage,blankImage,blankImage,mattress,,,,,,,,,,,,0,94,94,22,,,,,,,,,,,,,,,,,,,,,,,,,,,,,,,,,,,971.9935739999637,973.0007129000733,972.9839146999875,973.5781347000739,973.5781347000739,None,975.1125377999851,None,left,1.0109435999765992,975.1125377999851,None,976.1536410000408,None,right,1.3375281000044197,976.1536410000408,None,,,,,,,,,,,,,,,,,,,,,,,PPT37,001,2022-07-06_11h00.59.781,ABstudy,2022.1.4,59.985447531350815,
AB,Lag1_T1P_T2P,1,P,P,7,8,6,3,11,Sand castle,Did you see the Sand castle?,0.12,0.016,JPG\,thermometer02b,candle08b,comb02a,toothbrush03b,brick,computerkeyboard02,sandcastle,stapler06,candy,birthdaycandle,clock04,blankImage,blankImage,blankImage,blankImage,blankImage,blankImage,sandcastle,,,,,,,,,,,,0,95,95,70,,,,,,,,,,,,,,,,,,,,,,,,,,,,,,,,,,,977.5246698000701,978.5396253999788,978.5064002000727,979.0928119000746,979.0928119000746,None,980.5250003000256,None,right,1.9424892000388354,980.5250003000256,None,982.4933208000148,None,right,0.7018991000950336,982.4933208000148,None,,,,,,,,,,,,,,,,,,,,,,,PPT37,001,2022-07-06_11h00.59.781,ABstudy,2022.1.4,59.985447531350815,
AB,Lag1_T1P_T2A,1,P,A,5,6,4,5,11,Moon,Did you see the Moon?,0.12,0.016,JPG\,lamp04a,broccoli01a,alligator,garlic01a,moon,brownsugar,avocado01,ring01,leaf02a,cellphone,medal02b,blankImage,blankImage,blankImage,blankImage,blankImage,blankImage,moon,,,,,,,,,,,,0,96,96,190,,,,,,,,,,,,,,,,,,,,,,,,,,,,,,,,,,,983.2298895000713,984.245090499986,984.2117332000053,984.8201312000165,984.8201312000165,None,986.1440929999808,None,right,1.042584800045006,986.1440929999808,None,987.2150185999926,None,right,0.6937095000175759,987.2150185999926,None,,,,,,,,,,,,,,,,,,,,,,,PPT37,001,2022-07-06_11h00.59.781,ABstudy,2022.1.4,59.985447531350815,
AB,Lag5_T1P_T2P,5,P,P,8,13,7,4,17,Accordion,Did you see the Accordion?,0.12,0.016,JPG\,toiletpaper01a,lipstick02a,potato02b,speaker04,globe,strawberry,carrot01,accordion01,sock01a,candle08b,pen04b,calculator01,stapler01,brick,pear01,fork03c,blankImage,accordion01,,,,,,,,,,,,0,97,97,162,,,,,,,,,,,,,,,,,,,,,,,,,,,,,,,,,,,987.9375252000755,988.95003800001,988.9332997000311,989.5180357999634,989.5180357999634,None,991.4569945000112,None,left,1.147591199958697,991.4569945000112,None,992.6365933000343,None,left,0.6229248000308871,992.6365933000343,None,,,,,,,,,,,,,,,,,,,,,,,PPT37,001,2022-07-06_11h00.59.781,ABstudy,2022.1.4,59.985447531350815,
AB,Lag5_T1A_T2P,5,A,P,5,10,4,5,15,Sushi,Did you see the Sushi?,0.12,0.016,JPG\,pineapple01a,leaf02a,grape01,toiletpaper01a,match,tennisball01b,spoon01,chain01,pig,stapler04b,ring01,lemon02,dice05a,pizza,potato02b,blankImage,blankImage,crown,,,,,,,,,,,,0,98,98,285,,,,,,,,,,,,,,,,,,,,,,,,,,,,,,,,,,,993.2895135000581,994.3048401999986,994.27151770005,994.8570004999638,994.8570004999638,None,996.7160646000411,None,right,1.2952799999620765,996.7160646000411,None,998.0423536000308,None,right,0.7938995000440627,998.0423536000308,None,,,,,,,,,,,,,,,,,,,,,,,PPT37,001,2022-07-06_11h00.59.781,ABstudy,2022.1.4,59.985447531350815,
AB,Lag5_T1P_T2A,5,P,A,7,12,6,3,15,helmet,Did you see the helmet?,0.12,0.016,JPG\,fork03c,belt02a,grape01,computerkeyboard02,lemon02,printer02,skihelmet01,toiletpaper01a,toaster01,lipstick02a,book01b,blueberry01,spoon01,apple07,avocado01,blankImage,blankImage,skihelmet01,,,,,,,,,,,,0,99,99,225,,,,,,,,,,,,,,,,,,,,,,,,,,,,,,,,,,,998.8634725000011,999.8774981000461,999.8607286000624,1000.4480645000003,1000.4480645000003,None,1002.2860736000584,None,left,2.5895033999113366,1002.2860736000584,None,1004.8993485000683,None,right,0.8553958999691531,1004.8993485000683,None,,,,,,,,,,,,,,,,,,,,,,,PPT37,001,2022-07-06_11h00.59.781,ABstudy,2022.1.4,59.985447531350815,
AB,Lag1_T1P_T2P,1,P,P,8,9,7,3,12,Wheelchair,Did you see the Wheelchair?,0.12,0.016,JPG\,cigarette,pig,banana01,strawberry,clock01a,plate01b,spoon01,wheelchair,stapler03b,pineapple01a,chain01,paintbrush01,blankImage,blankImage,blankImage,blankImage,blankImage,wheelchair,,,,,,,,,,,,0,100,100,27,,,,,,,,,,,,,,,,,,,,,,,,,,,,,,,,,,,1005.7870308000129,1006.8011142000323,1006.7843649999704,1007.4026333000511,1007.3321302999975,None,1008.838356000022,None,left,1.1570980999385938,1008.838356000022,None,1010.0207050000317,None,right,0.6059092000359669,1010.0207050000317,None,,,,,,,,,,,,,,,,,,,,,,,PPT37,001,2022-07-06_11h00.59.781,ABstudy,2022.1.4,59.985447531350815,
AB,Lag1_T1P_T2P,1,P,P,5,6,4,5,11,Basketball,Did you see the Basketball?,0.12,0.016,JPG\,pencil01,microscope,banana01,computerkeyboard02,basketball01,stapler04b,scissors01,sock01a,book01b,onion,dice05a,blankImage,blankImage,blankImage,blankImage,blankImage,blankImage,basketball01,,,,,,,,,,,,0,101,101,34,,,,,,,,,,,,,,,,,,,,,,,,,,,,,,,,,,,1010.6584401000291,1011.6724194000708,1011.6390125000617,1012.2113181999885,1012.2113181999885,None,1013.5821351000341,None,left,1.829016000032425,1013.5821351000341,None,1015.4432382000377,None,right,0.5763531000120565,1015.4432382000377,None,,,,,,,,,,,,,,,,,,,,,,,PPT37,001,2022-07-06_11h00.59.781,ABstudy,2022.1.4,59.985447531350815,
AB,Lag5_T1P_T2P,5,P,P,7,12,6,4,16,window,Did you see the window?,0.12,0.016,JPG\,cigarette,pig,banana01,strawberry,clock01a,plate01b,dormer,blueberry01,battery02b,pineapple01a,chain01,stapler01,candy,pen04b,teabag,birthdaycandle,blankImage,dormer,,,,,,,,,,,,0,102,102,170,,,,,,,,,,,,,,,,,,,,,,,,,,,,,,,,,,,1016.0491028999677,1017.0613215999911,1017.0447259000503,1017.6475492999889,1017.6475492999889,None,1019.4833880000515,None,left,1.1199886000249535,1019.4833880000515,None,1020.6324114999734,None,left,0.5068840000312775,1020.6324114999734,None,,,,,,,,,,,,,,,,,,,,,,,PPT37,001,2022-07-06_11h00.59.781,ABstudy,2022.1.4,59.985447531350815,
AB,Lag5_T1P_T2A,5,P,A,8,13,7,4,17,fountain,Did you see the fountain?,0.12,0.016,JPG\,printer02,envelope03a,potato02b,calculator01,tableknife02,cigarette,ashtray01,parkfountain,broom01,greenolive,candle08b,battery02b,strawberry,candle01,foosballtable,tennisball01b,blankImage,parkfountain,,,,,,,,,,,,0,103,103,219,,,,,,,,,,,,,,,,,,,,,,,,,,,,,,,,,,,1021.2296166999731,1022.233181699994,1022.2162939000409,1022.8098378999857,1022.8098378999857,None,1024.720674799988,None,left,1.0502038000850007,1024.720674799988,None,1025.8033316000365,None,right,0.7113135999534279,1025.8033316000365,None,,,,,,,,,,,,,,,,,,,,,,,PPT37,001,2022-07-06_11h00.59.781,ABstudy,2022.1.4,59.985447531350815,
AB,Lag1_T1P_T2P,1,P,P,8,9,7,3,12,cactus,Did you see the cactus?,0.12,0.016,JPG\,tennisball01b,paintbrush01,medal02b,apple07,speaker04,iron01b,avocado01,cactus,stapler03b,toiletpaper01a,watermelon01,candle01,blankImage,blankImage,blankImage,blankImage,blankImage,cactus,,,,,,,,,,,,0,104,104,58,,,,,,,,,,,,,,,,,,,,,,,,,,,,,,,,,,,1026.5412882000674,1027.5551065000473,1027.5383628000272,1028.1308539999882,1028.1308539999882,None,1029.6068441000534,None,left,2.09264719998464,1029.6068441000534,None,1031.725636200048,None,right,0.589725699974224,1031.725636200048,None,,,,,,,,,,,,,,,,,,,,,,,PPT37,001,2022-07-06_11h00.59.781,ABstudy,2022.1.4,59.985447531350815,
AB,Lag1_T1A_T2A,1,A,A,8,9,7,5,14,Ping pong Table,Did you see the Ping pong Table?,0.12,0.016,JPG\,pineapple01a,tennisball01b,computerkeyboard02,feather03a,belt02a,acorn,violin,blueberry01,medal02b,alligator,greenolive,screwdriver04b,potato02b,fork03c,blankImage,blankImage,blankImage,statue,,,,,,,,,,,,0,105,105,287,,,,,,,,,,,,,,,,,,,,,,,,,,,,,,,,,,,1032.3462889000075,1033.3606408999767,1033.343912600074,1033.9802644000156,1033.9059152000118,None,1035.629529500031,None,right,1.726065499940887,1035.629529500031,None,1037.3819385999814,None,right,0.9567583000753075,1037.3819385999814,None,,,,,,,,,,,,,,,,,,,,,,,PPT37,001,2022-07-06_11h00.59.781,ABstudy,2022.1.4,59.985447531350815,
AB,Lag1_T1P_T2P,1,P,P,7,8,6,4,12,trophy,Did you see the trophy?,0.12,0.016,JPG\,cherry01,cymbal,envelope03a,foosballtable,shirt02,cellphone,trophy01,stapler04b,battery02b,apple07,pencil01,screwdriver04b,blankImage,blankImage,blankImage,blankImage,blankImage,trophy01,,,,,,,,,,,,0,106,106,74,,,,,,,,,,,,,,,,,,,,,,,,,,,,,,,,,,,1038.3786420000251,1039.3844433000777,1039.3516329000704,1039.9392278000014,1039.9392278000014,None,1041.4205162000144,None,left,0.7587092999601737,1041.4205162000144,None,1042.2027540999698,None,right,1.520881999982521,1042.2027540999698,None,,,,,,,,,,,,,,,,,,,,,,,PPT37,001,2022-07-06_11h00.59.781,ABstudy,2022.1.4,59.985447531350815,
AB,Lag5_T1P_T2P,5,P,P,5,10,4,5,15,Eye,Did you see the Eye?,0.12,0.016,JPG\,apple07,toiletpaper01a,pizza,dandelion,eye,eraser,microscope,violin,orange,stapler01,balloon01b,sandal,lighter01,fan,book01b,blankImage,blankImage,eye,,,,,,,,,,,,0,107,107,171,,,,,,,,,,,,,,,,,,,,,,,,,,,,,,,,,,,1043.7565765000181,1044.7720118999714,1044.7386671999702,1045.3282406000653,1045.3282406000653,None,1047.145826700027,None,left,1.0251541000325233,1047.145826700027,None,1048.192386800074,None,left,0.41968829999677837,1048.192386800074,None,,,,,,,,,,,,,,,,,,,,,,,PPT37,001,2022-07-06_11h00.59.781,ABstudy,2022.1.4,59.985447531350815,
AB,Lag5_T1A_T2P,5,A,P,7,12,6,4,16,flower,Did you see the flower?,0.12,0.016,JPG\,printer02,envelope03a,potato02b,calculator01,tableknife02,cigarette,ashtray01,pig,broom01,greenolive,candle08b,stapler03a,strawberry,candle01,foosballtable,tennisball01b,blankImage,calendar,,,,,,,,,,,,0,108,108,282,,,,,,,,,,,,,,,,,,,,,,,,,,,,,,,,,,,1048.704370200052,1049.7102825000184,1049.6768744,1050.2634862000123,1050.2634862000123,None,1052.1962867999682,None,right,0.9502264000475407,1052.1962867999682,None,1053.1638385000406,None,right,0.7107362999813631,1053.1638385000406,None,,,,,,,,,,,,,,,,,,,,,,,PPT37,001,2022-07-06_11h00.59.781,ABstudy,2022.1.4,59.985447531350815,
AB,Lag5_T1A_T2P,5,A,P,6,11,5,3,14,saxophone,Did you see the saxophone?,0.12,0.016,JPG\,globe,belt02a,sponge01,violin,fork03c,tomato01,clock01a,microscope,balloon01b,scarf,stapler03b,pen04b,brick,brownsugar,blankImage,blankImage,blankImage,microphone01,,,,,,,,,,,,0,109,109,267,,,,,,,,,,,,,,,,,,,,,,,,,,,,,,,,,,,1053.90062510001,1054.9153878999641,1054.882035000017,1055.470921,1055.470921,None,1057.1418746999698,None,right,4.380765500012785,1057.1418746999698,None,1061.5553783000214,None,right,0.6478830999694765,1061.5553783000214,None,,,,,,,,,,,,,,,,,,,,,,,PPT37,001,2022-07-06_11h00.59.781,ABstudy,2022.1.4,59.985447531350815,
AB,Lag1_T1P_T2P,1,P,P,8,9,7,3,12,bridge,Did you see the bridge?,0.12,0.016,JPG\,speaker04,sewingmachine01a,eraser,violin,globe,belt02a,sunglasses04,bridge,stapler01,greenolive,alligator,pear01,blankImage,blankImage,blankImage,blankImage,blankImage,bridge,,,,,,,,,,,,0,110,110,78,,,,,,,,,,,,,,,,,,,,,,,,,,,,,,,,,,,1062.2230415999657,1063.2237143999664,1063.2070599000435,1063.8362678000703,1063.8362678000703,None,1065.262518899981,None,left,1.8206960000097752,1065.262518899981,None,1067.111250200076,None,left,1.020232699927874,1067.111250200076,None,,,,,,,,,,,,,,,,,,,,,,,PPT37,001,2022-07-06_11h00.59.781,ABstudy,2022.1.4,59.985447531350815,
AB,Lag5_T1P_T2P,5,P,P,8,13,7,3,16,shrimp,Did you see the shrimp?,0.12,0.016,JPG\,globe,belt02a,sponge01,violin,fork03c,tomato01,clock01a,cocktailshrimp02,balloon01b,scarf,teabag,pen04b,stapler03a,brownsugar,speaker04,screwdriver04b,blankImage,cocktailshrimp02,,,,,,,,,,,,0,111,111,169,,,,,,,,,,,,,,,,,,,,,,,,,,,,,,,,,,,1068.1661407999927,1069.179780800012,1069.1630031999666,1069.7587548000738,1069.7587548000738,None,1071.699881299981,None,left,2.119126299978234,1071.699881299981,None,1073.8511294999626,None,right,1.7448484000051394,1073.8511294999626,None,,,,,,,,,,,,,,,,,,,,,,,PPT37,001,2022-07-06_11h00.59.781,ABstudy,2022.1.4,59.985447531350815,
AB,Lag1_T1P_T2P,1,P,P,7,8,6,3,11,trampoline,Did you see the trampoline?,0.12,0.016,JPG\,dice05a,watch02a,pig,lighter01,button01,strawberry,trampoline,stapler03a,plate01b,pen04b,feather03a,blankImage,blankImage,blankImage,blankImage,blankImage,blankImage,trampoline,,,,,,,,,,,,0,112,112,73,,,,,,,,,,,,,,,,,,,,,,,,,,,,,,,,,,,1075.624988400028,1076.6373050999828,1076.6206746000098,1077.2007473000558,1077.2007473000558,None,1078.542808600003,None,left,0.8764569000340998,1078.542808600003,None,1079.4403929000255,None,right,0.7792702000588179,1079.4403929000255,None,,,,,,,,,,,,,,,,,,,,,,,PPT37,001,2022-07-06_11h00.59.781,ABstudy,2022.1.4,59.985447531350815,
AB,Lag5_T1A_T2A,5,A,A,6,11,5,5,16,shrimp,Did you see the shrimp?,0.12,0.016,JPG\,speaker04,sewingmachine01a,eraser,violin,globe,belt02a,sunglasses04,cymbal,cd,greenolive,alligator,pear01,watch02a,screwdriver04b,banana01,cigarette,blankImage,rollerblade,,,,,,,,,,,,0,113,113,300,,,,,,,,,,,,,,,,,,,,,,,,,,,,,,,,,,,1080.2866933000041,1081.2919494999805,1081.2585449999897,1081.870099700056,1081.870099700056,None,1083.7357682000147,None,right,1.052220999961719,1083.7357682000147,None,1084.8118561999872,None,right,0.9904388999566436,1084.8118561999872,None,,,,,,,,,,,,,,,,,,,,,,,PPT37,001,2022-07-06_11h00.59.781,ABstudy,2022.1.4,59.985447531350815,
AB,Lag1_T1P_T2P,1,P,P,6,7,5,3,10,drum sticks,Did you see the drum sticks?,0.12,0.016,JPG\,pineapple01a,tennisball01b,computerkeyboard02,feather03a,belt02a,drumstick,stapler03b,blueberry01,medal02b,alligator,blankImage,blankImage,blankImage,blankImage,blankImage,blankImage,blankImage,drumstick,,,,,,,,,,,,0,114,114,61,,,,,,,,,,,,,,,,,,,,,,,,,,,,,,,,,,,1085.8340970000718,1086.8473039000528,1086.8306101000635,1087.4134447000688,1087.4134447000688,None,1088.5992064999882,None,left,2.267268200055696,1088.5992064999882,None,1090.8850324000232,None,right,0.6374988000607118,1090.8850324000232,None,,,,,,,,,,,,,,,,,,,,,,,PPT37,001,2022-07-06_11h00.59.781,ABstudy,2022.1.4,59.985447531350815,
AB,Lag1_T1A_T2P,1,A,P,7,8,6,3,11,lion,Did you see the lion?,0.12,0.016,JPG\,sock01a,spoon01,alligator,comb02a,printer02,medal02b,lamp04a,stapler01,greenolive,computerkeyboard02,cauliflower01,blankImage,blankImage,blankImage,blankImage,blankImage,blankImage,bullet,,,,,,,,,,,,0,115,115,229,,,,,,,,,,,,,,,,,,,,,,,,,,,,,,,,,,,1091.554211699986,1092.5697738999734,1092.53647000005,1093.1155036999844,1093.1155036999844,None,1094.5040163999656,None,right,0.9871257999911904,1094.5040163999656,None,1095.5225311999675,None,right,1.0564267999725416,1095.5225311999675,None,,,,,,,,,,,,,,,,,,,,,,,PPT37,001,2022-07-06_11h00.59.781,ABstudy,2022.1.4,59.985447531350815,
AB,Lag1_T1P_T2P,1,P,P,5,6,4,3,9,camel,Did you see the camel?,0.12,0.016,JPG\,iron01b,brick,broccoli01a,balloon01b,dromedary,stapler05,sandal,teabag,scissors01,blankImage,blankImage,blankImage,blankImage,blankImage,blankImage,blankImage,blankImage,dromedary,,,,,,,,,,,,0,116,116,11,,,,,,,,,,,,,,,,,,,,,,,,,,,,,,,,,,,1096.609175199992,1097.6246423000703,1097.5912220000755,1098.1551313999807,1098.1551313999807,None,1099.2527098000282,None,left,1.205733299953863,1099.2527098000282,None,1100.4785940999864,None,right,0.5797052000416443,1100.4785940999864,None,,,,,,,,,,,,,,,,,,,,,,,PPT37,001,2022-07-06_11h00.59.781,ABstudy,2022.1.4,59.985447531350815,
AB,Lag1_T1P_T2P,1,P,P,6,7,5,5,12,owl,Did you see the owl?,0.12,0.016,JPG\,paintbrush01,eraser,medal02b,hammer01,speaker04,greathornowl,stapler01,comb02a,plate01b,clock01a,button01,globe,blankImage,blankImage,blankImage,blankImage,blankImage,greathornowl,,,,,,,,,,,,0,117,117,1,,,,,,,,,,,,,,,,,,,,,,,,,,,,,,,,,,,1101.1427909000777,1102.146319200052,1102.1306535999756,1102.7183364999946,1102.7183364999946,None,1104.1645522000035,None,left,0.8937580999918282,1104.1645522000035,None,1105.082009500009,None,left,0.5202006000326946,1105.082009500009,None,,,,,,,,,,,,,,,,,,,,,,,PPT37,001,2022-07-06_11h00.59.781,ABstudy,2022.1.4,59.985447531350815,
AB,Lag1_T1P_T2P,1,P,P,6,7,5,5,12,exit sign,Did you see the exit sign?,0.12,0.016,JPG\,printer02,envelope03a,potato02b,calculator01,tableknife02,exitsign,stapler01,pig,broom01,greenolive,candle08b,battery02b,blankImage,blankImage,blankImage,blankImage,blankImage,exitsign,,,,,,,,,,,,0,118,118,41,,,,,,,,,,,,,,,,,,,,,,,,,,,,,,,,,,,1105.6362232000101,1106.6502883000067,1106.6335531000514,1107.2240854999982,1107.2240854999982,None,1108.7454411999788,None,left,1.569745899992995,1108.7454411999788,None,1110.3375933000352,None,left,0.5685920999385417,1110.3375933000352,None,,,,,,,,,,,,,,,,,,,,,,,PPT37,001,2022-07-06_11h00.59.781,ABstudy,2022.1.4,59.985447531350815,
AB,Lag1_T1P_T2A,1,P,A,5,6,4,4,10,flower,Did you see the flower?,0.12,0.016,JPG\,broom01,globe,cellphone,tableknife02,daffodil,scissors01,ring01,alligator,rice,toaster01,blankImage,blankImage,blankImage,blankImage,blankImage,blankImage,blankImage,daffodil,,,,,,,,,,,,0,119,119,184,,,,,,,,,,,,,,,,,,,,,,,,,,,,,,,,,,,1110.9430092000403,1111.955728400033,1111.938994599972,1112.5619965000078,1112.5619965000078,None,1113.7188209000742,None,left,2.340563099947758,1113.7188209000742,None,1116.0906393000623,None,left,0.9125595999648795,1116.0906393000623,None,,,,,,,,,,,,,,,,,,,,,,,PPT37,001,2022-07-06_11h00.59.781,ABstudy,2022.1.4,59.985447531350815,
AB,Lag5_T1P_T2P,5,P,P,5,10,4,5,15,baseball bat,Did you see the baseball bat?,0.12,0.016,JPG\,pizza,printer02,medal02b,spoon01,baseballbat,lighter01,belt02a,watermelon01,celery,stapler04b,screw02,comb02a,cauliflower01,lipstick02a,potato02b,blankImage,blankImage,baseballbat,,,,,,,,,,,,0,120,120,123,,,,,,,,,,,,,,,,,,,,,,,,,,,,,,,,,,,1117.0299927999731,1118.0449307999806,1118.0115873999894,1118.6040742000332,1118.6040742000332,None,1120.508794000023,None,left,3.118001400027424,1120.508794000023,None,1123.6504561000038,None,right,0.5922371000051498,1123.6504561000038,None,,,,,,,,,,,,,,,,,,,,,,,PPT37,001,2022-07-06_11h00.59.781,ABstudy,2022.1.4,59.985447531350815,
AB,Lag1_T1P_T2P,1,P,P,6,7,5,5,12,bat,Did you see the bat?,0.12,0.016,JPG\,comb02a,key01,medal02b,battery02b,lighter01,bat,stapler05,sandal,pig,cellphone,computerkeyboard02,calculator01,blankImage,blankImage,blankImage,blankImage,blankImage,bat,,,,,,,,,,,,0,121,121,35,,,,,,,,,,,,,,,,,,,,,,,,,,,,,,,,,,,1124.2763512000674,1125.2854226999916,1125.2688085000264,1125.8502918999875,1125.8502918999875,None,1127.321285800077,None,left,1.8021779999835417,1127.321285800077,None,1129.155991000007,None,left,3.7987260000081733,1129.155991000007,None,,,,,,,,,,,,,,,,,,,,,,,PPT37,001,2022-07-06_11h00.59.781,ABstudy,2022.1.4,59.985447531350815,
AB,Lag1_T1P_T2P,1,P,P,6,7,5,4,11,no parking sign,Did you see the no parking sign?,0.12,0.016,JPG\,fork03c,belt02a,grape01,computerkeyboard02,lemon02,parkingsign,stapler05,toiletpaper01a,toaster01,lipstick02a,book01b,blankImage,blankImage,blankImage,blankImage,blankImage,blankImage,parkingsign,,,,,,,,,,,,0,122,122,47,,,,,,,,,,,,,,,,,,,,,,,,,,,,,,,,,,,1132.9792816999834,1133.993952400051,1133.9772944999859,1134.6032666000538,1134.5318344000261,None,1135.929660200025,None,left,0.7857496000360698,1135.929660200025,None,1136.7468926999718,None,right,0.7035528999986127,1136.7468926999718,None,,,,,,,,,,,,,,,,,,,,,,,PPT37,001,2022-07-06_11h00.59.781,ABstudy,2022.1.4,59.985447531350815,
AB,Lag5_T1P_T2P,5,P,P,7,12,6,4,16,Wolf,Did you see the Wolf?,0.12,0.016,JPG\,brick,eraser,cucumber,ashtray01,thermometer02b,binoculars01b,greywolf,screwdriver04b,grape01,brownsugar,battery02b,stapler03b,dice05a,avocado01,birthdaycandle,watch02a,blankImage,greywolf,,,,,,,,,,,,0,123,123,89,,,,,,,,,,,,,,,,,,,,,,,,,,,,,,,,,,,1137.4832277999958,1138.4986382999923,1138.4652763999766,1139.049287199974,1139.049287199974,None,1141.019151699962,None,left,0.7993243999080732,1141.019151699962,None,1141.835703000077,None,left,0.39095439994707704,1141.835703000077,None,,,,,,,,,,,,,,,,,,,,,,,PPT37,001,2022-07-06_11h00.59.781,ABstudy,2022.1.4,59.985447531350815,
AB,Lag5_T1P_T2P,5,P,P,6,11,5,5,16,Parking meter,Did you see the Parking meter?,0.12,0.016,JPG\,dice05a,watch02a,pig,lighter01,button01,parkingmeter,paintbrush01,microscope,plate01b,pen04b,stapler03b,weight04a,carrot01,shirt02,globe,garlic01a,blankImage,parkingmeter,,,,,,,,,,,,0,124,124,172,,,,,,,,,,,,,,,,,,,,,,,,,,,,,,,,,,,1142.259236300015,1143.2702753000194,1143.2534961999627,1143.850636200048,1143.850636200048,None,1145.7508705999935,None,left,0.708157500019297,1145.7508705999935,None,1146.489952599979,None,left,0.5210446999408305,1146.489952599979,None,,,,,,,,,,,,,,,,,,,,,,,PPT37,001,2022-07-06_11h00.59.781,ABstudy,2022.1.4,59.985447531350815,
AB,Lag5_T1A_T2P,5,A,P,6,11,5,3,14,keys,Did you see the keys?,0.12,0.016,JPG\,pencil01,microscope,banana01,computerkeyboard02,celery,cellphone,scissors01,sock01a,book01b,onion,stapler03a,binoculars01b,baseball01a,iron01b,blankImage,blankImage,blankImage,treadmill,,,,,,,,,,,,0,125,125,275,,,,,,,,,,,,,,,,,,,,,,,,,,,,,,,,,,,1147.0426821999718,1148.0581295000156,1148.0247827999992,1148.6003659999697,1148.6003659999697,None,1150.3534309000243,None,right,1.528679999988526,1150.3534309000243,None,1151.9119980999967,None,right,0.9790102000115439,1151.9119980999967,None,,,,,,,,,,,,,,,,,,,,,,,PPT37,001,2022-07-06_11h00.59.781,ABstudy,2022.1.4,59.985447531350815,
AB,Lag1_T1P_T2P,1,P,P,7,8,6,5,13,dream catcher,Did you see the dream catcher?,0.12,0.016,JPG\,clock01a,cellphone,toaster01,toothbrush03b,cauliflower01,microscope,dreamcatcher,stapler05,scarf,clock04,sponge01,iron01b,watch02a,blankImage,blankImage,blankImage,blankImage,dreamcatcher,,,,,,,,,,,,0,126,126,81,,,,,,,,,,,,,,,,,,,,,,,,,,,,,,,,,,,1152.987602600013,1153.997967000003,1153.9821015000343,1154.6867328999797,1154.6867328999797,None,1156.0529507000465,None,left,1.0311633999226615,1156.0529507000465,None,1157.1032343000406,None,right,1.6035560000455007,1157.1032343000406,None,,,,,,,,,,,,,,,,,,,,,,,PPT37,001,2022-07-06_11h00.59.781,ABstudy,2022.1.4,59.985447531350815,
AB,Lag1_T1A_T2P,1,A,P,6,7,5,5,12,Piano,Did you see the Piano?,0.12,0.016,JPG\,toiletpaper01a,mushroom01,medal02b,sandal,rice,cd,stapler01,pizza,candle08b,garlic01a,toaster01,belt02a,blankImage,blankImage,blankImage,blankImage,blankImage,moose,,,,,,,,,,,,0,127,127,239,,,,,,,,,,,,,,,,,,,,,,,,,,,,,,,,,,,1158.742204500013,1159.7532791000558,1159.7368278000504,1160.322493600077,1160.322493600077,None,1161.7481904000742,None,right,1.5110230999998748,1161.7481904000742,None,1163.290007899981,None,right,0.5200844999635592,1163.290007899981,None,,,,,,,,,,,,,,,,,,,,,,,PPT37,001,2022-07-06_11h00.59.781,ABstudy,2022.1.4,59.985447531350815,
AB,Lag1_T1A_T2P,1,A,P,5,6,4,3,9,Stool,Did you see the Stool?,0.12,0.016,JPG\,cherry01,cymbal,envelope03a,foosballtable,shirt02,stapler01,sewingmachine01a,candle08b,battery02b,blankImage,blankImage,blankImage,blankImage,blankImage,blankImage,blankImage,blankImage,hulahoop,,,,,,,,,,,,0,128,128,236,,,,,,,,,,,,,,,,,,,,,,,,,,,,,,,,,,,1163.9015616000397,1164.9082720000297,1164.8753446000628,1165.462612900068,1165.462612900068,None,1166.48718679999,None,right,10.564790499978699,1166.48718679999,None,1177.0704412000487,None,right,0.8444388000061736,1177.0704412000487,None,,,,,,,,,,,,,,,,,,,,,,,PPT37,001,2022-07-06_11h00.59.781,ABstudy,2022.1.4,59.985447531350815,
AB,Lag1_T1P_T2P,1,P,P,5,6,4,3,9,Escalator,Did you see the Escalator?,0.12,0.016,JPG\,celery,pencil01,fan,foosballtable,escalator,stapler05,potato02b,fork03c,button01,blankImage,blankImage,blankImage,blankImage,blankImage,blankImage,blankImage,blankImage,escalator,,,,,,,,,,,,0,129,129,82,,,,,,,,,,,,,,,,,,,,,,,,,,,,,,,,,,,1177.94015020004,1178.9555940000573,1178.9222535999725,1179.497606500052,1179.497606500052,None,1180.6687361999648,None,left,0.7898966000648215,1180.6687361999648,None,1181.4891769000096,None,right,0.7128307999810204,1181.4891769000096,None,,,,,,,,,,,,,,,,,,,,,,,PPT37,001,2022-07-06_11h00.59.781,ABstudy,2022.1.4,59.985447531350815,
AB,Lag5_T1A_T2A,5,A,A,5,10,4,5,15,window,Did you see the window?,0.12,0.016,JPG\,leaf02a,apple07,cd,pineapple01a,envelope03a,paintbrush01,pig,canoftennisballs,rice,feather03a,lemon02,balloon01b,avocado01,calculator01,watermelon01,blankImage,blankImage,saxophone,,,,,,,,,,,,0,130,130,301,,,,,,,,,,,,,,,,,,,,,,,,,,,,,,,,,,,1182.234589700005,1183.2437546000583,1183.2282251999713,1183.8281919000437,1183.8281919000437,None,1185.6642283999827,None,right,1.0181991000426933,1185.6642283999827,None,1186.7133340999717,None,right,0.560905999969691,1186.7133340999717,None,,,,,,,,,,,,,,,,,,,,,,,PPT37,001,2022-07-06_11h00.59.781,ABstudy,2022.1.4,59.985447531350815,
AB,Lag1_T1P_T2P,1,P,P,5,6,4,5,11,candy cane,Did you see the candy cane?,0.12,0.016,JPG\,shirt02,match,screw02,foosballtable,candycane01a,stapler04b,sewingmachine01a,watch02a,button01,comb02a,dice05a,blankImage,blankImage,blankImage,blankImage,blankImage,blankImage,candycane01a,,,,,,,,,,,,0,131,131,9,,,,,,,,,,,,,,,,,,,,,,,,,,,,,,,,,,,1187.2999640000053,1188.3152276000474,1188.2818446999881,1188.892550199991,1188.892550199991,None,1190.3084469999885,None,left,1.0218351000221446,1190.3084469999885,None,1191.3515258000698,None,right,0.8105673000682145,1191.3515258000698,None,,,,,,,,,,,,,,,,,,,,,,,PPT37,001,2022-07-06_11h00.59.781,ABstudy,2022.1.4,59.985447531350815,
AB,Lag5_T1P_T2P,5,P,P,5,10,4,5,15,scorpion,Did you see the scorpion?,0.12,0.016,JPG\,fan,tomato01,candy,screwdriver04b,scorpion,cd,thermometer02b,apple07,button01,stapler01,brownsugar,lighter01,clock01a,envelope03a,clock04,blankImage,blankImage,scorpion,,,,,,,,,,,,0,132,132,97,,,,,,,,,,,,,,,,,,,,,,,,,,,,,,,,,,,1192.1917401000392,1193.2032457999885,1193.186515300069,1193.7770549000707,1193.7770549000707,None,1195.5616814000532,None,left,0.7456818999489769,1195.5616814000532,None,1196.339521100046,None,right,0.45481090003158897,1196.339521100046,None,,,,,,,,,,,,,,,,,,,,,,,PPT37,001,2022-07-06_11h00.59.781,ABstudy,2022.1.4,59.985447531350815,
AB,Lag5_T1A_T2P,5,A,P,6,11,5,3,14,Kiwi,Did you see the Kiwi?,0.12,0.016,JPG\,paintbrush01,dice05a,watermelon01,broccoli01a,hammer01,leaf02a,match,tennisball01b,lemon02,fan,stapler06,grape01,envelope03a,sponge01,blankImage,blankImage,blankImage,granolabar01,,,,,,,,,,,,0,133,133,261,,,,,,,,,,,,,,,,,,,,,,,,,,,,,,,,,,,1196.8283428000286,1197.8409837000072,1197.824346999987,1198.401547000045,1198.401547000045,None,1200.126985699986,None,right,1.0192069000331685,1200.126985699986,None,1201.177615600056,None,right,1.7924472000449896,1201.177615600056,None,,,,,,,,,,,,,,,,,,,,,,,PPT37,001,2022-07-06_11h00.59.781,ABstudy,2022.1.4,59.985447531350815,
AB,Lag1_T1P_T2P,1,P,P,8,9,7,3,12,Sheep,Did you see the Sheep?,0.12,0.016,JPG\,celery,orange,scissors01,balloon01b,avocado01,printer02,mushroom01,sheep,stapler03b,dice05a,ashtray01,fan,blankImage,blankImage,blankImage,blankImage,blankImage,sheep,,,,,,,,,,,,0,134,134,71,,,,,,,,,,,,,,,,,,,,,,,,,,,,,,,,,,,1202.9983813000144,1204.013834399986,1203.980415900005,1204.5765983000165,1204.5765983000165,None,1206.0609435000224,None,left,0.9822067000204697,1206.0609435000224,None,1207.0672137000365,None,right,0.702780699939467,1207.0672137000365,None,,,,,,,,,,,,,,,,,,,,,,,PPT37,001,2022-07-06_11h00.59.781,ABstudy,2022.1.4,59.985447531350815,
AB,Lag5_T1A_T2P,5,A,P,7,12,6,5,17,funnel,Did you see the funnel?,0.12,0.016,JPG\,iron01b,orange,birthdaycandle,potato02b,cauliflower01,pencil01,key01,candle08b,celery,tableknife02,pen04b,stapler04b,ring01,rice,lemon02,tomato01,blankImage,englishcucumber,,,,,,,,,,,,0,135,135,259,,,,,,,,,,,,,,,,,,,,,,,,,,,,,,,,,,,1207.8066025000298,1208.818908300018,1208.8020796000492,1209.4065606000368,1209.4065606000368,None,1211.2910945999902,None,right,15.846966300043277,1211.2910945999902,None,1227.1707133000018,None,right,1.1919671000214294,1227.1707133000018,None,,,,,,,,,,,,,,,,,,,,,,,PPT37,001,2022-07-06_11h00.59.781,ABstudy,2022.1.4,59.985447531350815,
AB,Lag5_T1P_T2P,5,P,P,8,13,7,5,18,spice rack,Did you see the spice rack?,0.12,0.016,JPG\,lamp04a,broccoli01a,alligator,garlic01a,dandelion,brownsugar,avocado01,spicerack,leaf02a,cellphone,medal02b,cd,stapler05,sunglasses04,strawberry,eraser,blankImage,spicerack,,,,,,,,,,,,0,136,136,140,,,,,,,,,,,,,,,,,,,,,,,,,,,,,,,,,,,1228.3963688999647,1229.4060849000234,1229.3894130999688,1229.9771322000306,1229.9771322000306,None,1231.9759033999871,None,right,13.274288800079376,1231.9759033999871,None,1245.271956600016,None,right,0.7780337000731379,1245.271956600016,None,,,,,,,,,,,,,,,,,,,,,,,PPT37,001,2022-07-06_11h00.59.781,ABstudy,2022.1.4,59.985447531350815,
