TrialType,CondType,Lag,T1_PA,T2_PA,T1Loc,T2Loc,PreDistractor,PostDistractor,TotalImg,cueWord,T1cue,StimLength,isi,PicFolder,Img1,Img2,Img3,Img4,Img5,Img6,Img7,Img8,Img9,Img10,Img11,Img12,Img13,Img14,Img15,Img16,Img17,T1_Identity,ImageType,T1PA,T2PA,Picture,Image,FullPathName,FilePath,Practice_Trials.thisRepN,Practice_Trials.thisTrialN,Practice_Trials.thisN,Practice_Trials.thisIndex,trials.thisRepN,trials.thisTrialN,trials.thisN,trials.thisIndex,trials_2.thisRepN,trials_2.thisTrialN,trials_2.thisN,trials_2.thisIndex,Practice_Ins.started,Practice_Ins.stopped,End_Prac_Ins.keys,End_Prac_Ins.rt,End_Prac_Ins.started,End_Prac_Ins.stopped,text_2.started,text_2.stopped,Fixation_Cross_2.started,Fixation_Cross_2.stopped,Rapid_Image_Present_2.started,Rapid_Image_Present_2.stopped,key_resp.keys,key_resp.rt,key_resp.started,key_resp.stopped,T1Response_2.started,T1Response_2.stopped,T2Response_2.started,T2Response_2.stopped,key_resp_4.keys,key_resp_4.rt,key_resp_4.started,key_resp_4.stopped,text.started,text.stopped,End_Instructions.keys,End_Instructions.rt,End_Instructions.started,End_Instructions.stopped,text_5.started,text_5.stopped,FC.started,FC.stopped,Rapid_Image_Present.started,Rapid_Image_Present.stopped,T1Response.started,T1Response.stopped,key_resp_2.keys,key_resp_2.rt,key_resp_2.started,key_resp_2.stopped,T2Response.started,T2Response.stopped,key_resp_3.keys,key_resp_3.rt,key_resp_3.started,key_resp_3.stopped,text_6.started,text_6.stopped,Fin_ins.keys,Fin_ins.rt,Fin_ins.started,Fin_ins.stopped,MemTest.started,MemTest.stopped,MemResponse.keys,MemResponse.rt,MemResponse.started,MemResponse.stopped,Display.started,Display.stopped,text_7.started,text_7.stopped,endOfExperiment.started,endOfExperiment.stopped,key_resp_5.keys,key_resp_5.rt,key_resp_5.started,key_resp_5.stopped,participant,session,date,expName,psychopyVersion,frameRate,
,,,,,,,,,,,,,,,,,,,,,,,,,,,,,,,,,,,,,,,,,,,,,,,,,,,,15.057444399979431,None,space,26.036024699977133,15.057444399979431,None,,,,,,,,,,,,,,,,,,,,,,,,,,,,,,,,,,,,,,,,,,,,,,,,,,,,,,,,,,,,,,,,,PPT33,001,2022-07-05_15h31.02.716,ABstudy,2022.1.4,59.97202904909842,
AB_Prac,Lag5_T1P_T2A,5,P,A,6,11,5,5,16,Wheat,Did you see the Wheat?,0.5,0.016,JPG\,bottleopener01,dentalfloss03b,cooler01,icecreamcone01a,paperclip01b,wheat,pencilsharpener02a,plasticbasket01a,toycar04,apricot,hairclip02,rock01a,honeydewmelon,antenna,blackberry,cardboardbox,blankImage,wheat,,,,,,,,0,0,0,7,,,,,,,,,,,,,,,41.17639139998937,42.1754638000275,42.1754638000275,42.80668420001166,42.80668420001166,None,left,2.113748100004159,50.90101339999819,None,50.90101339999819,None,53.0364116000128,None,right,1.7289804000174627,53.0364116000128,None,,,,,,,,,,,,,,,,,,,,,,,,,,,,,,,,,,,,,,,,,,,,,,,PPT33,001,2022-07-05_15h31.02.716,ABstudy,2022.1.4,59.97202904909842,
AB_Prac,Lag1_T1P_T2P,1,P,P,6,7,5,5,12,triangle,Did you see the triangle?,0.5,0.016,JPG\,ginger,mousetrap,plum01,slipper01b,dropper01,triangle,stapler04b,pants,raspberry01,rope03,scale01a,vase01,blankImage,blankImage,blankImage,blankImage,blankImage,triangle,,,,,,,,0,1,1,1,,,,,,,,,,,,,,,54.7943250000244,55.806176299985964,55.79063339997083,56.402967699978035,56.402967699978035,None,right,2.4728159999940544,62.404471900023054,None,62.404471900023054,None,64.89792929997202,None,left,0.9242927000159398,64.89792929997202,None,,,,,,,,,,,,,,,,,,,,,,,,,,,,,,,,,,,,,,,,,,,,,,,PPT33,001,2022-07-05_15h31.02.716,ABstudy,2022.1.4,59.97202904909842,
AB_Prac,Lag5_T1P_T2A,5,P,A,6,11,5,5,16,bread,Did you see the bread?,0.5,0.016,JPG\,cleaver01,clipboard,dustpan,hikingshoe01,notebook03a,baguette01,playingcard,pliers02b,styrofoamcup,rollingpin01a,swimgoggles,wineglass01,fryingpan02a,safetypin,syringe01,thimble,blankImage,baguette01,,,,,,,,0,2,2,8,,,,,,,,,,,,,,,65.85337680001976,66.86657469999045,66.84985020000022,67.42453399999067,67.42453399999067,None,left,2.4697551999706775,75.48006839997834,None,75.48006839997834,None,77.98066290002316,None,right,1.0173163000144996,77.98066290002316,None,,,,,,,,,,,,,,,,,,,,,,,,,,,,,,,,,,,,,,,,,,,,,,,PPT33,001,2022-07-05_15h31.02.716,ABstudy,2022.1.4,59.97202904909842,
AB_Prac,Lag5_T1A_T2P,5,A,P,6,11,5,3,14,dog,Did you see the dog?,0.5,0.016,JPG\,bucket01a,doorlock,cookiecutter,fireextinguisher01,gluestick,highlighter02b,sportbag,spraybottle01,suitcase,thread02,stapler05,walnut01c,icecubetray01a,vikingmask01b,blankImage,blankImage,blankImage,None,,,,,,,,0,3,3,9,,,,,,,,,,,,,,,79.03667040000437,80.04633939999621,80.02962220000336,80.63348279998172,80.63348279998172,None,right,4.913554899976589,87.65198059997056,None,87.65198059997056,None,92.59216360002756,None,right,8.0935852000257,92.59216360002756,None,,,,,,,,,,,,,,,,,,,,,,,,,,,,,,,,,,,,,,,,,,,,,,,PPT33,001,2022-07-05_15h31.02.716,ABstudy,2022.1.4,59.97202904909842,
AB_Prac,Lag5_T1P_T2P,5,P,P,5,10,4,5,15,washing machine,Did you see the washing machine?,0.5,0.016,JPG\,waterbottle03,wheel01,flashlight02b,zucchini01,washingmachine,headphones02b,nutcracker01,paintroller01,paperclip03,stapler06,ribbon04,electricrazor,bottleofredwine01,pitabread,pot02a,blankImage,blankImage,washingmachine,,,,,,,,0,4,4,4,,,,,,,,,,,,,,,100.80026190000353,101.80153940001037,101.78475689998595,102.3768956999993,102.3768956999993,None,left,2.389678500010632,109.96801229997072,None,109.96801229997072,None,112.37858299998334,None,left,1.1160903999698348,112.37858299998334,None,,,,,,,,,,,,,,,,,,,,,,,,,,,,,,,,,,,,,,,,,,,,,,,PPT33,001,2022-07-05_15h31.02.716,ABstudy,2022.1.4,59.97202904909842,
AB_Prac,Lag1_T1A_T2A,1,A,A,8,9,7,3,12,Moose,Did you see the Moose?,0.5,0.016,JPG\,clothespin03b,corkscrew03a,drillbit03a,fusilli03a,needlenosepliers01,perfume01a,pistachio,scrubbingbrush05b,spatula03,toothpastetube,hinge,toydinosaur,blankImage,blankImage,blankImage,blankImage,blankImage,None,,,,,,,,0,5,5,10,,,,,,,,,,,,,,,113.5184860000154,114.53068049997091,114.51398270000936,115.08724079997046,115.08724079997046,None,right,1.2217044999706559,121.22412069997517,None,121.22412069997517,None,122.47186240000883,None,right,0.46973719995003194,122.47186240000883,None,,,,,,,,,,,,,,,,,,,,,,,,,,,,,,,,,,,,,,,,,,,,,,,PPT33,001,2022-07-05_15h31.02.716,ABstudy,2022.1.4,59.97202904909842,
AB_Prac,Lag1_T1P_T2A,1,P,A,5,6,4,5,11,Webcam,Did you see the Webcam?,0.5,0.016,JPG\,pictureframe04,binder03b,straw,adjustablewrench01b,webcam,cane,hairdryer02a,icepack,kitchenscale01a,lifejacket,piggybank,blankImage,blankImage,blankImage,blankImage,blankImage,blankImage,webcam,,,,,,,,0,6,6,6,,,,,,,,,,,,,,,122.97464730002685,123.99001190002309,123.95673049998004,124.54637970001204,124.54637970001204,None,left,1.9844444999471307,130.1975024000276,None,130.1975024000276,None,132.19855650002137,None,right,0.7105320999980904,132.19855650002137,None,,,,,,,,,,,,,,,,,,,,,,,,,,,,,,,,,,,,,,,,,,,,,,,PPT33,001,2022-07-05_15h31.02.716,ABstudy,2022.1.4,59.97202904909842,
AB_Prac,Lag1_T1P_T2P,1,P,P,8,9,7,5,14,Tennis racket,Did you see the Tennis racket?,0.5,0.016,JPG\,coconut,computermouse06,croissant01,deodorant02a,pillow01a,peanut01,boot02b,tennisracket,stapler03b,crayon,eggplant,marker01a,plant01,radish01,blankImage,blankImage,blankImage,tennisracket,,,,,,,,0,7,7,0,,,,,,,,,,,,,,,132.9428271999932,133.95002980000572,133.93332870001905,134.52889080002205,134.52889080002205,None,left,1.8589633000083268,141.52280969999265,None,141.52280969999265,None,143.40938249998726,None,left,0.6121870999922976,143.40938249998726,None,,,,,,,,,,,,,,,,,,,,,,,,,,,,,,,,,,,,,,,,,,,,,,,PPT33,001,2022-07-05_15h31.02.716,ABstudy,2022.1.4,59.97202904909842,
AB_Prac,Lag5_T1P_T2P,5,P,P,7,12,6,3,15,vacuum,Did you see the vacuum?,0.5,0.016,JPG\,fork07b,lightbulb01,manshoe,saw02b,shoelace,soap03a,vacuumcleaner01,floortile01,necklace,doll,cabbage,stapler03a,hanger02a,laptop01a,nailpolish03b,blankImage,blankImage,vacuumcleaner01,,,,,,,,0,8,8,2,,,,,,,,,,,,,,,144.04832340002758,145.06107410002733,145.04433910001535,145.62702409998747,145.62702409998747,None,right,2.9773622999782674,153.18826069997158,None,153.18826069997158,None,156.18923979997635,None,left,0.6962483000243083,156.18923979997635,None,,,,,,,,,,,,,,,,,,,,,,,,,,,,,,,,,,,,,,,,,,,,,,,PPT33,001,2022-07-05_15h31.02.716,ABstudy,2022.1.4,59.97202904909842,
AB_Prac,Lag5_T1P_T2P,5,P,P,5,10,4,5,15,Vulture,Did you see the Vulture?,0.5,0.016,JPG\,shorts01,toast,ramekin01,bib,vulture,cracker02,date,glasses01a,hat03b,stapler01,measuringtape01,nail,pill,drum01,starfish01,blankImage,blankImage,vulture,,,,,,,,0,9,9,3,,,,,,,,,,,,,,,156.91498320002574,157.92478950001532,157.90921070001787,158.5038017000188,158.5038017000188,None,left,0.951461200020276,166.06145199999446,None,166.06145199999446,None,167.04717789997812,None,left,0.5031387000344694,167.04717789997812,None,,,,,,,,,,,,,,,,,,,,,,,,,,,,,,,,,,,,,,,,,,,,,,,PPT33,001,2022-07-05_15h31.02.716,ABstudy,2022.1.4,59.97202904909842,
AB_Prac,Lag5_T1A_T2A,5,A,A,6,11,5,5,16,castle,Did you see the castle?,0.5,0.016,JPG\,tape02a,englishmuffin,flask,ladle02a,monitor,peach01,keychain,squeegee01b,telephone01b,whisk,walkman,syringe02,baguette01,coaster,box01a,coffeepot03a,blankImage,None,,,,,,,,0,10,10,11,,,,,,,,,,,,,,,167.5778588000103,168.5842999999877,168.5675770000089,169.15637099999003,169.15637099999003,None,right,1.508990200003609,177.1925687000039,None,177.1925687000039,None,178.72834789997432,None,right,0.9005465000518598,178.72834789997432,None,,,,,,,,,,,,,,,,,,,,,,,,,,,,,,,,,,,,,,,,,,,,,,,PPT33,001,2022-07-05_15h31.02.716,ABstudy,2022.1.4,59.97202904909842,
AB_Prac,Lag1_T1P_T2A,1,P,A,8,9,7,5,14,flower,Did you see the flower?,0.5,0.016,JPG\,razor01,axe01,binder03b,bowl01,kettle01,lettuce,lime,plasticflower01b,mitten04,pencilcase01,plunger02,strawbasket01,toothpick02,wallet02a,blankImage,blankImage,blankImage,plasticflower01b,,,,,,,,0,11,11,5,,,,,,,,,,,,,,,179.6548952999874,180.66338079998968,180.64669139997568,181.25420490000397,181.25420490000397,None,right,3.0641858999733813,188.26900730002671,None,188.26900730002671,None,191.37148139998317,None,right,0.39366529998369515,191.37148139998317,None,,,,,,,,,,,,,,,,,,,,,,,,,,,,,,,,,,,,,,,,,,,,,,,PPT33,001,2022-07-05_15h31.02.716,ABstudy,2022.1.4,59.97202904909842,
,,,,,,,,,,,,,,,,,,,,,,,,,,,,,,,,,,,,,,,,,,,,,,,,,,,,,,,,,,,,,,,,,,,,,,,,,,,,191.79411349998554,None,space,12.492155499989167,191.79411349998554,None,,,,,,,,,,,,,,,,,,,,,,,,,,,,,,,,,,,,,,,,,PPT33,001,2022-07-05_15h31.02.716,ABstudy,2022.1.4,59.97202904909842,
AB,Lag5_T1A_T2P,5,A,P,6,11,5,3,14,Kiwi,Did you see the Kiwi?,0.12,0.016,JPG\,paintbrush01,dice05a,watermelon01,broccoli01a,hammer01,leaf02a,match,tennisball01b,lemon02,fan,stapler06,grape01,envelope03a,sponge01,blankImage,blankImage,blankImage,granolabar01,,,,,,,,,,,,0,0,0,261,,,,,,,,,,,,,,,,,,,,,,,,,,,,,,,,,,,205.0588007000042,206.0718151999754,206.05505020002602,206.67777559999377,206.67777559999377,None,208.37251279997872,None,right,2.008860400004778,208.37251279997872,None,210.40998479997506,None,right,2.01919820002513,210.40998479997506,None,,,,,,,,,,,,,,,,,,,,,,,PPT33,001,2022-07-05_15h31.02.716,ABstudy,2022.1.4,59.97202904909842,
AB,Lag1_T1P_T2P,1,P,P,7,8,6,4,12,skunk,Did you see the skunk?,0.12,0.016,JPG\,fan,tomato01,candy,screwdriver04b,alligator,cd,skunk,stapler03b,button01,plate01b,brownsugar,lighter01,blankImage,blankImage,blankImage,blankImage,blankImage,skunk,,,,,,,,,,,,0,1,1,48,,,,,,,,,,,,,,,,,,,,,,,,,,,,,,,,,,,212.46433240000624,213.4791803000262,213.46246730000712,214.0469671000028,214.0469671000028,None,215.54570820002118,None,left,0.9964506999822333,215.54570820002118,None,216.56600639998214,None,left,1.063185400038492,216.56600639998214,None,,,,,,,,,,,,,,,,,,,,,,,PPT33,001,2022-07-05_15h31.02.716,ABstudy,2022.1.4,59.97202904909842,
AB,Lag1_T1P_T2A,1,P,A,7,8,6,4,12,Steering wheel,Did you see the Steering wheel?,0.12,0.016,JPG\,alligator,banana01,apple07,tomato01,button01,spoon01,steeringwheel,fork03c,canoftennisballs,potato02b,grape01,leaf02a,blankImage,blankImage,blankImage,blankImage,blankImage,steeringwheel,,,,,,,,,,,,0,2,2,198,,,,,,,,,,,,,,,,,,,,,,,,,,,,,,,,,,,217.6605437999824,218.66783360001864,218.6512206000043,219.1517813000246,219.1517813000246,None,220.75845710001886,None,right,0.9903273999807425,220.75845710001886,None,221.77079959999537,None,right,2.1548085000249557,221.77079959999537,None,,,,,,,,,,,,,,,,,,,,,,,PPT33,001,2022-07-05_15h31.02.716,ABstudy,2022.1.4,59.97202904909842,
AB,Lag5_T1P_T2P,5,P,P,6,11,5,5,16,scooter,Did you see the scooter?,0.12,0.016,JPG\,thermometer02b,candle08b,comb02a,toothbrush03b,brick,scooter,key01,pineapple01a,candy,birthdaycandle,stapler04b,canoftennisballs,teabag,medal02b,balloon01b,banana01,blankImage,scooter,,,,,,,,,,,,0,3,3,118,,,,,,,,,,,,,,,,,,,,,,,,,,,,,,,,,,,223.96566539997002,224.9739780999953,224.95732869999483,225.53804379998473,225.53804379998473,None,227.47380769997835,None,left,0.8431243000086397,227.47380769997835,None,228.3443479000125,None,left,0.6441640999983065,228.3443479000125,None,,,,,,,,,,,,,,,,,,,,,,,PPT33,001,2022-07-05_15h31.02.716,ABstudy,2022.1.4,59.97202904909842,
AB,Lag1_T1A_T2P,1,A,P,8,9,7,4,13,Toolbox,Did you see the Toolbox?,0.12,0.016,JPG\,pizza,printer02,medal02b,spoon01,grape01,lighter01,belt02a,watermelon01,stapler03b,battery02b,screw02,comb02a,cauliflower01,blankImage,blankImage,blankImage,blankImage,ladybug03,,,,,,,,,,,,0,4,4,237,,,,,,,,,,,,,,,,,,,,,,,,,,,,,,,,,,,229.01966489996994,230.02916500001447,230.01243349997094,230.61050110001815,230.61050110001815,None,232.23482890002197,None,right,2.074572299956344,232.23482890002197,None,234.34753869997803,None,left,0.9534106000210159,234.34753869997803,None,,,,,,,,,,,,,,,,,,,,,,,PPT33,001,2022-07-05_15h31.02.716,ABstudy,2022.1.4,59.97202904909842,
AB,Lag1_T1P_T2P,1,P,P,5,6,4,5,11,shark,Did you see the shark?,0.12,0.016,JPG\,cucumber,sponge01,alligator,pear01,greatwhiteshark,stapler06,clock04,battery02b,fork03c,binoculars01b,mushroom01,blankImage,blankImage,blankImage,blankImage,blankImage,blankImage,greatwhiteshark,,,,,,,,,,,,0,5,5,84,,,,,,,,,,,,,,,,,,,,,,,,,,,,,,,,,,,235.32970250002109,236.33528780000051,236.31857810000656,236.89775619999273,236.89775619999273,None,238.21530689997599,None,left,1.8138599999947473,238.21530689997599,None,240.0567709999741,None,left,1.0684363000327721,240.0567709999741,None,,,,,,,,,,,,,,,,,,,,,,,PPT33,001,2022-07-05_15h31.02.716,ABstudy,2022.1.4,59.97202904909842,
AB,Lag5_T1P_T2P,5,P,P,6,11,5,4,15,sword,Did you see the sword?,0.12,0.016,JPG\,8ball,banana01,scissors01,pig,shirt02,broadsword,pear01,sponge01,fork03c,tableknife02,stapler06,match,toothbrush03b,birthdaycandle,candle01,blankImage,blankImage,broadsword,,,,,,,,,,,,0,6,6,167,,,,,,,,,,,,,,,,,,,,,,,,,,,,,,,,,,,241.1615117000183,242.1747189000016,242.15805189998355,242.75551799999084,242.75551799999084,None,244.5949087999761,None,left,1.7376264999620616,244.5949087999761,None,246.3617165000178,None,left,0.6909660999663174,246.3617165000178,None,,,,,,,,,,,,,,,,,,,,,,,PPT33,001,2022-07-05_15h31.02.716,ABstudy,2022.1.4,59.97202904909842,
AB,Lag5_T1P_T2P,5,P,P,6,11,5,5,16,Car,Did you see the Car?,0.12,0.016,JPG\,leaf02a,apple07,cd,pineapple01a,envelope03a,car,pig,canoftennisballs,rice,feather03a,stapler03a,balloon01b,avocado01,calculator01,watermelon01,teabag,blankImage,car,,,,,,,,,,,,0,7,7,127,,,,,,,,,,,,,,,,,,,,,,,,,,,,,,,,,,,247.08179929998005,248.09674469998572,248.0634177000029,248.64135920000263,248.64135920000263,None,250.66589210001985,None,left,1.115087800018955,250.66589210001985,None,251.80064209998818,None,left,0.6363764000125229,251.80064209998818,None,,,,,,,,,,,,,,,,,,,,,,,PPT33,001,2022-07-05_15h31.02.716,ABstudy,2022.1.4,59.97202904909842,
AB,Lag1_T1P_T2P,1,P,P,7,8,6,5,13,horse,Did you see the horse?,0.12,0.016,JPG\,watermelon01,pencil01,microscope,blueberry01,computerkeyboard02,lamp04a,horse,stapler03b,sock01a,key01,binoculars01b,cauliflower01,ashtray01,blankImage,blankImage,blankImage,blankImage,horse,,,,,,,,,,,,0,8,8,3,,,,,,,,,,,,,,,,,,,,,,,,,,,,,,,,,,,252.47028180002235,253.48568230000092,253.45229460002156,254.03962709999178,254.03962709999178,None,255.61467659997288,None,left,1.214465300028678,255.61467659997288,None,256.85686830000486,None,right,0.4925004999968223,256.85686830000486,None,,,,,,,,,,,,,,,,,,,,,,,PPT33,001,2022-07-05_15h31.02.716,ABstudy,2022.1.4,59.97202904909842,
AB,Lag1_T1P_T2P,1,P,P,7,8,6,3,11,cloud,Did you see the cloud?,0.12,0.016,JPG\,lighter01,hammer01,spoon01,chain01,cymbal,sponge01,cloud,stapler06,pig,watermelon01,cauliflower01,blankImage,blankImage,blankImage,blankImage,blankImage,blankImage,cloud,,,,,,,,,,,,0,9,9,36,,,,,,,,,,,,,,,,,,,,,,,,,,,,,,,,,,,257.3785852000001,258.3903611000278,258.3738266999717,258.94468600000255,258.94468600000255,None,260.31625709997024,None,left,1.3281087999930605,260.31625709997024,None,261.66096720000496,None,left,2.463993399986066,261.66096720000496,None,,,,,,,,,,,,,,,,,,,,,,,PPT33,001,2022-07-05_15h31.02.716,ABstudy,2022.1.4,59.97202904909842,
AB,Lag1_T1P_T2A,1,P,A,7,8,6,4,12,gate,Did you see the gate?,0.12,0.016,JPG\,pen04b,speaker04,lighter01,cherry01,pintofbeer,onion,entrancegate,toothbrush03b,broom01,sewingmachine01a,book01b,iron01b,blankImage,blankImage,blankImage,blankImage,blankImage,entrancegate,,,,,,,,,,,,0,10,10,187,,,,,,,,,,,,,,,,,,,,,,,,,,,,,,,,,,,264.1495202999795,265.1641985999886,265.13078499998664,265.7068576000165,265.7068576000165,None,267.1965300000156,None,left,1.8241226999671198,267.1965300000156,None,269.05111280002166,None,right,0.7695629000081681,269.05111280002166,None,,,,,,,,,,,,,,,,,,,,,,,PPT33,001,2022-07-05_15h31.02.716,ABstudy,2022.1.4,59.97202904909842,
AB,Lag1_T1P_T2A,1,P,A,5,6,4,4,10,bird,Did you see the bird?,0.12,0.016,JPG\,toaster01,scarf,toiletpaper01a,calculator01,swallow,sewingmachine01a,fan,teabag,strawberry,balloon01b,blankImage,blankImage,blankImage,blankImage,blankImage,blankImage,blankImage,swallow,,,,,,,,,,,,0,11,11,195,,,,,,,,,,,,,,,,,,,,,,,,,,,,,,,,,,,269.854165799974,270.86965900001815,270.8362534000189,271.42193980002776,271.42193980002776,None,272.6607536000083,None,left,1.6076710000052117,272.6607536000083,None,274.28974129998824,None,right,0.5867992999847047,274.28974129998824,None,,,,,,,,,,,,,,,,,,,,,,,PPT33,001,2022-07-05_15h31.02.716,ABstudy,2022.1.4,59.97202904909842,
AB,Lag5_T1A_T2A,5,A,A,5,10,4,5,15,truck,Did you see the truck?,0.12,0.016,JPG\,pizza,printer02,medal02b,spoon01,grape01,lighter01,belt02a,watermelon01,celery,battery02b,screw02,comb02a,cauliflower01,lipstick02a,potato02b,blankImage,blankImage,postalmailbox01,,,,,,,,,,,,0,12,12,297,,,,,,,,,,,,,,,,,,,,,,,,,,,,,,,,,,,274.96519449999323,275.97496730001876,275.95815219997894,276.5528311000089,276.5528311000089,None,278.2866429000278,None,right,1.430344899999909,278.2866429000278,None,279.74566850002157,None,right,0.4191229999996722,279.74566850002157,None,,,,,,,,,,,,,,,,,,,,,,,PPT33,001,2022-07-05_15h31.02.716,ABstudy,2022.1.4,59.97202904909842,
AB,Lag1_T1P_T2P,1,P,P,6,7,5,4,11,cash register,Did you see the cash register?,0.12,0.016,JPG\,leaf02a,apple07,cd,pineapple01a,envelope03a,cashregister01,stapler03b,8ball,rice,feather03a,lemon02,blankImage,blankImage,blankImage,blankImage,blankImage,blankImage,cashregister01,,,,,,,,,,,,0,13,13,79,,,,,,,,,,,,,,,,,,,,,,,,,,,,,,,,,,,280.2007644000114,281.2130712000071,281.196878799994,281.76458120002644,281.76458120002644,None,283.12340739998035,None,left,1.025337299972307,283.12340739998035,None,284.16617849998875,None,left,0.4384832999785431,284.16617849998875,None,,,,,,,,,,,,,,,,,,,,,,,PPT33,001,2022-07-05_15h31.02.716,ABstudy,2022.1.4,59.97202904909842,
AB,Lag1_T1P_T2P,1,P,P,5,6,4,3,9,Escalator,Did you see the Escalator?,0.12,0.016,JPG\,celery,pencil01,fan,foosballtable,escalator,stapler05,potato02b,fork03c,button01,blankImage,blankImage,blankImage,blankImage,blankImage,blankImage,blankImage,blankImage,escalator,,,,,,,,,,,,0,14,14,82,,,,,,,,,,,,,,,,,,,,,,,,,,,,,,,,,,,284.69446789997164,285.70112619997235,285.68441460002214,286.27594810002483,286.27594810002483,None,287.3009180999943,None,left,1.2241379999904893,287.3009180999943,None,288.55386899999576,None,right,0.8105224999599159,288.55386899999576,None,,,,,,,,,,,,,,,,,,,,,,,PPT33,001,2022-07-05_15h31.02.716,ABstudy,2022.1.4,59.97202904909842,
AB,Lag5_T1P_T2P,5,P,P,6,11,5,3,14,fish,Did you see the fish?,0.12,0.016,JPG\,broom01,globe,cellphone,tableknife02,cauliflower01,holdfast,ring01,alligator,rice,toaster01,stapler03b,grape01,microscope,cucumber,blankImage,blankImage,blankImage,holdfast,,,,,,,,,,,,0,15,15,133,,,,,,,,,,,,,,,,,,,,,,,,,,,,,,,,,,,289.390293799981,290.4057071999996,290.37236029998166,290.9519924999913,290.9519924999913,None,292.63665340002626,None,left,0.9676148000289686,292.63665340002626,None,293.62604459997965,None,left,0.5790688000270166,293.62604459997965,None,,,,,,,,,,,,,,,,,,,,,,,PPT33,001,2022-07-05_15h31.02.716,ABstudy,2022.1.4,59.97202904909842,
AB,Lag5_T1P_T2P,5,P,P,8,13,7,5,18,bed,Did you see the bed?,0.12,0.016,JPG\,pencil01,broccoli01a,button01,sponge01,watermelon01,lipstick02a,comb02a,bed,lighter01,sock01a,spoon01,blueberry01,stapler04b,onion,grape01,avocado01,blankImage,bed,,,,,,,,,,,,0,16,16,124,,,,,,,,,,,,,,,,,,,,,,,,,,,,,,,,,,,294.2301353000221,295.2441503999871,295.2106183000142,295.8164255999727,295.8164255999727,None,297.77175409998745,None,left,1.0415180000127293,297.77175409998745,None,298.8308240000042,None,left,0.7187312000314705,298.8308240000042,None,,,,,,,,,,,,,,,,,,,,,,,PPT33,001,2022-07-05_15h31.02.716,ABstudy,2022.1.4,59.97202904909842,
AB,Lag1_T1P_T2P,1,P,P,5,6,4,3,9,camel,Did you see the camel?,0.12,0.016,JPG\,iron01b,brick,broccoli01a,balloon01b,dromedary,stapler05,sandal,teabag,scissors01,blankImage,blankImage,blankImage,blankImage,blankImage,blankImage,blankImage,blankImage,dromedary,,,,,,,,,,,,0,17,17,11,,,,,,,,,,,,,,,,,,,,,,,,,,,,,,,,,,,299.5838394999737,300.59924519999186,300.5658768999856,301.1514339999994,301.1514339999994,None,302.3509682000149,None,left,0.7580111999996006,302.3509682000149,None,303.1354733000044,None,left,0.2772889999905601,303.1354733000044,None,,,,,,,,,,,,,,,,,,,,,,,PPT33,001,2022-07-05_15h31.02.716,ABstudy,2022.1.4,59.97202904909842,
AB,Lag1_T1P_T2A,1,P,A,5,6,4,5,11,Electric toothbrush,Did you see the Electric toothbrush?,0.12,0.016,JPG\,carrot01,greenolive,fork03c,chain01,electrictoothbrush01c,watermelon01,tableknife02,printer02,comb02a,toaster01,orange,blankImage,blankImage,blankImage,blankImage,blankImage,blankImage,electrictoothbrush01c,,,,,,,,,,,,0,18,18,186,,,,,,,,,,,,,,,,,,,,,,,,,,,,,,,,,,,303.44336680002743,304.4532219999819,304.4369279000093,305.03165499999886,305.03165499999886,None,306.3551570000127,None,left,0.9698606999590993,306.3551570000127,None,307.3566917999997,None,right,0.4642504999646917,307.3566917999997,None,,,,,,,,,,,,,,,,,,,,,,,PPT33,001,2022-07-05_15h31.02.716,ABstudy,2022.1.4,59.97202904909842,
AB,Lag1_T1P_T2A,1,P,A,8,9,7,4,13,boat,Did you see the boat?,0.12,0.016,JPG\,fork03c,dandelion,dice05a,belt02a,onion,watch02a,key01,boat,eraser,medal02b,greenolive,shirt02,candle08b,blankImage,blankImage,blankImage,blankImage,boat,,,,,,,,,,,,0,19,19,199,,,,,,,,,,,,,,,,,,,,,,,,,,,,,,,,,,,307.84476870001527,308.85729160002666,308.84059659997,309.4356158999726,309.4356158999726,None,310.97714859998086,None,left,1.3955663000233471,310.97714859998086,None,312.3943754999782,None,right,0.802117699990049,312.3943754999782,None,,,,,,,,,,,,,,,,,,,,,,,PPT33,001,2022-07-05_15h31.02.716,ABstudy,2022.1.4,59.97202904909842,
AB,Lag1_T1A_T2P,1,A,P,8,9,7,4,13,Christmas tree,Did you see the Christmas tree?,0.12,0.016,JPG\,broom01,globe,cellphone,tableknife02,cauliflower01,scissors01,ring01,alligator,stapler03a,toaster01,cigarette,grape01,microscope,blankImage,blankImage,blankImage,blankImage,windmill,,,,,,,,,,,,0,20,20,247,,,,,,,,,,,,,,,,,,,,,,,,,,,,,,,,,,,313.23200179997366,314.2463122999761,314.2296440000064,314.8093250999809,314.8093250999809,None,316.3650995999924,None,right,1.4392723999917507,316.3650995999924,None,317.8331937000039,None,left,0.6760141999693587,317.8331937000039,None,,,,,,,,,,,,,,,,,,,,,,,PPT33,001,2022-07-05_15h31.02.716,ABstudy,2022.1.4,59.97202904909842,
AB,Lag5_T1P_T2P,5,P,P,8,13,7,5,18,popcorn,Did you see the popcorn?,0.12,0.016,JPG\,toaster01,garlic01a,hairclip03,fan,comb02a,apple07,orange,popcorn,onion,blueberry01,toiletpaper01a,fork03c,stapler06,pineapple01a,scarf,eraser,blankImage,popcorn,,,,,,,,,,,,0,21,21,155,,,,,,,,,,,,,,,,,,,,,,,,,,,,,,,,,,,318.5379474000074,319.5515923000057,319.53483010001946,320.13820290000876,320.13820290000876,None,322.07387169997673,None,right,1.410473300027661,322.07387169997673,None,323.50580440001795,None,right,1.122462600003928,323.50580440001795,None,,,,,,,,,,,,,,,,,,,,,,,PPT33,001,2022-07-05_15h31.02.716,ABstudy,2022.1.4,59.97202904909842,
AB,Lag5_T1P_T2A,5,P,A,5,10,4,5,15,Shield,Did you see the Shield?,0.12,0.016,JPG\,cigarette,fork03c,greenolive,broccoli01a,shield02,tennisball01b,balloon01b,leaf02a,pig,fan,clock01a,strawberry,envelope03a,birthdaycandle,teabag,blankImage,blankImage,shield02,,,,,,,,,,,,0,22,22,223,,,,,,,,,,,,,,,,,,,,,,,,,,,,,,,,,,,324.6622270999942,325.67432679998456,325.65781619999325,326.25132899999153,326.25132899999153,None,328.0730014999863,None,left,1.7395798999932595,328.0730014999863,None,329.8449611000251,None,right,0.7840060999733396,329.8449611000251,None,,,,,,,,,,,,,,,,,,,,,,,PPT33,001,2022-07-05_15h31.02.716,ABstudy,2022.1.4,59.97202904909842,
AB,Lag1_T1P_T2P,1,P,P,7,8,6,3,11,harmonica,Did you see the harmonica?,0.12,0.016,JPG\,cucumber,ring01,lipstick02a,microscope,violin,garlic01a,harmonica,stapler03b,cherry01,sewingmachine01a,belt02a,blankImage,blankImage,blankImage,blankImage,blankImage,blankImage,harmonica,,,,,,,,,,,,0,23,23,43,,,,,,,,,,,,,,,,,,,,,,,,,,,,,,,,,,,330.7101222000201,331.71377590001794,331.6969176999992,332.26726230001077,332.26726230001077,None,333.56884750002064,None,left,1.0758481999509968,333.56884750002064,None,334.6672711999854,None,left,0.34551399998599663,334.6672711999854,None,,,,,,,,,,,,,,,,,,,,,,,PPT33,001,2022-07-05_15h31.02.716,ABstudy,2022.1.4,59.97202904909842,
AB,Lag5_T1P_T2P,5,P,P,6,11,5,5,16,table,Did you see the table?,0.12,0.016,JPG\,birthdaycandle,mushroom01,strawberry,match,cherry01,table01,hammer01,thermometer02b,sock01a,ring01,stapler06,banana01,toiletpaper01a,key01,sponge01,teabag,blankImage,table01,,,,,,,,,,,,0,24,24,144,,,,,,,,,,,,,,,,,,,,,,,,,,,,,,,,,,,335.0374997999752,336.05144790001214,336.03480560000753,336.535169699986,336.51891769998474,None,338.5962728000013,None,right,1.6009500999934971,338.5962728000013,None,340.2224165999796,None,right,1.2304219999932684,340.2224165999796,None,,,,,,,,,,,,,,,,,,,,,,,PPT33,001,2022-07-05_15h31.02.716,ABstudy,2022.1.4,59.97202904909842,
AB,Lag1_T1P_T2P,1,P,P,5,6,4,3,9,Pumpkin,Did you see the Pumpkin?,0.12,0.016,JPG\,binoculars01b,speaker04,sandal,envelope03a,pumpkin,stapler03b,battery02b,chain01,measuringcup01,blankImage,blankImage,blankImage,blankImage,blankImage,blankImage,blankImage,blankImage,pumpkin,,,,,,,,,,,,0,25,25,23,,,,,,,,,,,,,,,,,,,,,,,,,,,,,,,,,,,341.4819523000042,342.49169789999723,342.4744389000116,343.0608679999714,343.0608679999714,None,344.1996588999755,None,left,0.9011795000405982,344.1996588999755,None,345.12726839998504,None,right,0.85385860002134,345.12726839998504,None,,,,,,,,,,,,,,,,,,,,,,,PPT33,001,2022-07-05_15h31.02.716,ABstudy,2022.1.4,59.97202904909842,
AB,Lag5_T1P_T2A,5,P,A,7,12,6,4,16,Bear,Did you see the Bear?,0.12,0.016,JPG\,comb02a,key01,medal02b,battery02b,lighter01,microscope,grizzly,sandal,pig,cellphone,computerkeyboard02,calculator01,cymbal,clock04,cucumber,avocado01,blankImage,grizzly,,,,,,,,,,,,0,26,26,213,,,,,,,,,,,,,,,,,,,,,,,,,,,,,,,,,,,346.0187295000069,347.0290521000279,347.01232480001636,347.6275718000252,347.6275718000252,None,349.60321229998954,None,left,2.6569185000262223,349.60321229998954,None,352.2853655000217,None,right,0.8149433000362478,352.2853655000217,None,,,,,,,,,,,,,,,,,,,,,,,PPT33,001,2022-07-05_15h31.02.716,ABstudy,2022.1.4,59.97202904909842,
AB,Lag5_T1A_T2P,5,A,P,8,13,7,3,16,ladder,Did you see the ladder?,0.12,0.016,JPG\,apple07,toiletpaper01a,pizza,dandelion,greenolive,eraser,microscope,violin,orange,lipstick02a,balloon01b,sandal,stapler01,fan,book01b,sewingmachine01a,blankImage,ostrich,,,,,,,,,,,,0,27,27,269,,,,,,,,,,,,,,,,,,,,,,,,,,,,,,,,,,,353.12427490000846,354.1361462000059,354.1195597000187,354.7180278999731,354.7180278999731,None,356.6489795999951,None,right,1.779878799978178,356.6489795999951,None,358.45682339998893,None,left,0.42002329998649657,358.45682339998893,None,,,,,,,,,,,,,,,,,,,,,,,PPT33,001,2022-07-05_15h31.02.716,ABstudy,2022.1.4,59.97202904909842,
AB,Lag5_T1P_T2P,5,P,P,8,13,7,5,18,spice rack,Did you see the spice rack?,0.12,0.016,JPG\,lamp04a,broccoli01a,alligator,garlic01a,dandelion,brownsugar,avocado01,spicerack,leaf02a,cellphone,medal02b,cd,stapler05,sunglasses04,strawberry,eraser,blankImage,spicerack,,,,,,,,,,,,0,28,28,140,,,,,,,,,,,,,,,,,,,,,,,,,,,,,,,,,,,358.9652255999972,359.97610700002406,359.96060180000495,360.64134129998274,360.5637106000213,None,362.4297676999704,None,left,2.9027351000113413,362.4297676999704,None,365.3640086000087,None,left,0.5683818999677896,365.3640086000087,None,,,,,,,,,,,,,,,,,,,,,,,PPT33,001,2022-07-05_15h31.02.716,ABstudy,2022.1.4,59.97202904909842,
AB,Lag1_T1A_T2P,1,A,P,8,9,7,5,14,clock,Did you see the clock?,0.12,0.016,JPG\,speaker04,sewingmachine01a,eraser,violin,globe,belt02a,sunglasses04,cymbal,stapler01,greenolive,alligator,pear01,watch02a,screwdriver04b,blankImage,blankImage,blankImage,peacock,,,,,,,,,,,,0,29,29,240,,,,,,,,,,,,,,,,,,,,,,,,,,,,,,,,,,,365.96899069997016,366.98225619998993,366.96564279997256,367.5450500000152,367.5450500000152,None,369.21307370002614,None,right,4.16004139999859,369.21307370002614,None,373.40550990001066,None,right,1.494520099950023,373.40550990001066,None,,,,,,,,,,,,,,,,,,,,,,,PPT33,001,2022-07-05_15h31.02.716,ABstudy,2022.1.4,59.97202904909842,
AB,Lag1_T1A_T2P,1,A,P,7,8,6,5,13,Ant,Did you see the Ant?,0.12,0.016,JPG\,rice,watermelon01,tableknife02,scarf,computerkeyboard02,cauliflower01,battery02b,stapler03b,book01b,sandal,sponge01,microscope,tomato01,blankImage,blankImage,blankImage,blankImage,sandcastle,,,,,,,,,,,,0,30,30,242,,,,,,,,,,,,,,,,,,,,,,,,,,,,,,,,,,,374.93202860001475,375.94113210000796,375.92436800000723,376.5035825999803,376.5035825999803,None,378.1132303000195,None,right,1.003357799956575,378.1132303000195,None,379.1440963000059,None,left,0.6125593000324443,379.1440963000059,None,,,,,,,,,,,,,,,,,,,,,,,PPT33,001,2022-07-05_15h31.02.716,ABstudy,2022.1.4,59.97202904909842,
AB,Lag5_T1A_T2P,5,A,P,8,13,7,4,17,wrench,Did you see the wrench?,0.12,0.016,JPG\,clock01a,grape01,plate01b,key01,screwdriver04b,feather03a,pineapple01a,iron01b,toothbrush03b,comb02a,broom01,toaster01,stapler05,garlic01a,match,ashtray01,blankImage,seal,,,,,,,,,,,,0,31,31,272,,,,,,,,,,,,,,,,,,,,,,,,,,,,,,,,,,,379.78032149997307,380.7957657999941,380.76238979998743,381.3494485000265,381.3494485000265,None,383.28604640002595,None,right,1.2862071000272408,383.28604640002595,None,384.59993989998475,None,right,0.43635650002397597,384.59993989998475,None,,,,,,,,,,,,,,,,,,,,,,,PPT33,001,2022-07-05_15h31.02.716,ABstudy,2022.1.4,59.97202904909842,
AB,Lag1_T1P_T2A,1,P,A,5,6,4,4,10,flower,Did you see the flower?,0.12,0.016,JPG\,broom01,globe,cellphone,tableknife02,daffodil,scissors01,ring01,alligator,rice,toaster01,blankImage,blankImage,blankImage,blankImage,blankImage,blankImage,blankImage,daffodil,,,,,,,,,,,,0,32,32,184,,,,,,,,,,,,,,,,,,,,,,,,,,,,,,,,,,,385.07203129999107,386.08446599997114,386.0677749000024,386.6369565000059,386.6369565000059,None,387.9212677999749,None,right,2.2988242999999784,387.9212677999749,None,390.23876550002024,None,right,0.6132513000047766,390.23876550002024,None,,,,,,,,,,,,,,,,,,,,,,,PPT33,001,2022-07-05_15h31.02.716,ABstudy,2022.1.4,59.97202904909842,
AB,Lag1_T1P_T2P,1,P,P,7,8,6,3,11,swing,Did you see the swing?,0.12,0.016,JPG\,sewingmachine01a,thermometer02b,sponge01,eraser,broccoli01a,fork03c,swing,stapler03b,belt02a,medal02b,pineapple01a,blankImage,blankImage,blankImage,blankImage,blankImage,blankImage,swing,,,,,,,,,,,,0,33,33,30,,,,,,,,,,,,,,,,,,,,,,,,,,,,,,,,,,,390.87463249999564,391.8901622000267,391.8567752999952,392.4455681000254,392.4455681000254,None,393.8236780000152,None,left,1.7570889999624342,393.8236780000152,None,395.6105029999744,None,right,0.5621204000199214,395.6105029999744,None,,,,,,,,,,,,,,,,,,,,,,,PPT33,001,2022-07-05_15h31.02.716,ABstudy,2022.1.4,59.97202904909842,
AB,Lag1_T1P_T2A,1,P,A,6,7,5,4,11,bird,Did you see the bird?,0.12,0.016,JPG\,foosballtable,candy,envelope03a,microscope,pencil01,cedarwaxwing,scissors01,watermelon01,grape01,dandelion,pineapple01a,blankImage,blankImage,blankImage,blankImage,blankImage,blankImage,cedarwaxwing,,,,,,,,,,,,0,34,34,182,,,,,,,,,,,,,,,,,,,,,,,,,,,,,,,,,,,396.1966541999718,397.2120774000068,397.17873970000073,397.6801733999746,397.6801733999746,None,399.1534358999925,None,left,1.2667141000274569,399.1534358999925,None,400.4490738000022,None,right,0.5869875000207685,400.4490738000022,None,,,,,,,,,,,,,,,,,,,,,,,PPT33,001,2022-07-05_15h31.02.716,ABstudy,2022.1.4,59.97202904909842,
AB,Lag1_T1P_T2P,1,P,P,8,9,7,5,14,helicopter,Did you see the helicopter?,0.12,0.016,JPG\,broom01,globe,cellphone,tableknife02,cauliflower01,scissors01,ring01,helicopter,stapler01,toaster01,cigarette,grape01,microscope,cucumber,blankImage,blankImage,blankImage,helicopter,,,,,,,,,,,,0,35,35,85,,,,,,,,,,,,,,,,,,,,,,,,,,,,,,,,,,,401.07209839997813,402.08389419998275,402.0672388999956,402.674417799979,402.674417799979,None,404.3384217999992,None,left,1.322127100022044,404.3384217999992,None,405.68717779999133,None,right,0.5411847999785095,405.68717779999133,None,,,,,,,,,,,,,,,,,,,,,,,PPT33,001,2022-07-05_15h31.02.716,ABstudy,2022.1.4,59.97202904909842,
AB,Lag5_T1P_T2A,5,P,A,5,10,4,3,13,martini glass,Did you see the martini glass?,0.12,0.016,JPG\,brick,eraser,cucumber,ashtray01,martiniglass01b,binoculars01b,lipstick02a,screwdriver04b,grape01,brownsugar,battery02b,iron01b,dice05a,blankImage,blankImage,blankImage,blankImage,martiniglass01b,,,,,,,,,,,,0,36,36,217,,,,,,,,,,,,,,,,,,,,,,,,,,,,,,,,,,,406.2568181999959,407.2721215999918,407.2387230999884,407.82113070000196,407.82113070000196,None,409.45674679998774,None,right,1.1873601999832317,409.45674679998774,None,410.67549679998774,None,right,0.4168313999543898,410.67549679998774,None,,,,,,,,,,,,,,,,,,,,,,,PPT33,001,2022-07-05_15h31.02.716,ABstudy,2022.1.4,59.97202904909842,
AB,Lag5_T1P_T2P,5,P,P,8,13,7,5,18,pipe,Did you see the pipe?,0.12,0.016,JPG\,scissors01,ashtray01,garlic01a,medal02b,cigarette,candle08b,leaf02a,smokingpipe,cucumber,rice,toiletpaper01a,greenolive,stapler01,cellphone,tableknife02,spoon01,blankImage,smokingpipe,,,,,,,,,,,,0,37,37,138,,,,,,,,,,,,,,,,,,,,,,,,,,,,,,,,,,,411.1128431999823,412.12695319997147,412.0935939999763,412.68719169998076,412.68719169998076,None,414.6405029000016,None,left,1.156959799991455,414.6405029000016,None,415.8144511000137,None,right,0.4137442999635823,415.8144511000137,None,,,,,,,,,,,,,,,,,,,,,,,PPT33,001,2022-07-05_15h31.02.716,ABstudy,2022.1.4,59.97202904909842,
AB,Lag1_T1A_T2A,1,A,A,5,6,4,4,10,rose,Did you see the rose?,0.12,0.016,JPG\,sock01a,spoon01,alligator,comb02a,printer02,medal02b,lamp04a,cymbal,greenolive,computerkeyboard02,blankImage,blankImage,blankImage,blankImage,blankImage,blankImage,blankImage,cruiseship,,,,,,,,,,,,0,38,38,293,,,,,,,,,,,,,,,,,,,,,,,,,,,,,,,,,,,416.25165079999715,417.26565800001845,417.23219379998045,417.8389292000211,417.8389292000211,None,419.0870547000086,None,right,1.5180777999921702,419.0870547000086,None,420.6353696999722,None,right,0.7205137999844737,420.6353696999722,None,,,,,,,,,,,,,,,,,,,,,,,PPT33,001,2022-07-05_15h31.02.716,ABstudy,2022.1.4,59.97202904909842,
AB,Lag1_T1A_T2P,1,A,P,6,7,5,5,12,Ostrich,Did you see the Ostrich?,0.12,0.016,JPG\,thermometer02b,candle08b,comb02a,toothbrush03b,brick,computerkeyboard02,stapler05,pineapple01a,candy,birthdaycandle,clock04,hairclip03,blankImage,blankImage,blankImage,blankImage,blankImage,discoball,,,,,,,,,,,,0,39,39,232,,,,,,,,,,,,,,,,,,,,,,,,,,,,,,,,,,,421.39077469997574,422.4038647999987,422.38713470002403,422.96746790001635,422.96746790001635,None,424.46820549998665,None,right,1.0643282000091858,424.46820549998665,None,425.5573436000268,None,left,0.40720720001263544,425.5573436000268,None,,,,,,,,,,,,,,,,,,,,,,,PPT33,001,2022-07-05_15h31.02.716,ABstudy,2022.1.4,59.97202904909842,
AB,Lag1_T1P_T2P,1,P,P,5,6,4,5,11,Guitar case,Did you see the Guitar case?,0.12,0.016,JPG\,broccoli01a,scissors01,toothbrush03b,foosballtable,guitarcase,stapler05,hammer01,toiletpaper01a,cd,garlic01a,carrot01,blankImage,blankImage,blankImage,blankImage,blankImage,blankImage,guitarcase,,,,,,,,,,,,0,40,40,14,,,,,,,,,,,,,,,,,,,,,,,,,,,,,,,,,,,426.0007693999796,427.0086547000101,426.99193919997197,427.5910849000211,427.5910849000211,None,428.9415477999719,None,left,1.086318299989216,428.9415477999719,None,430.04479580000043,None,right,0.5118213999667205,430.04479580000043,None,,,,,,,,,,,,,,,,,,,,,,,PPT33,001,2022-07-05_15h31.02.716,ABstudy,2022.1.4,59.97202904909842,
AB,Lag5_T1A_T2P,5,A,P,6,11,5,4,15,butterfly,Did you see the butterfly?,0.12,0.016,JPG\,comb02a,key01,medal02b,battery02b,lighter01,microscope,watermelon01,sandal,pig,cellphone,stapler06,calculator01,cymbal,clock04,cucumber,blankImage,blankImage,uprightpiano01,,,,,,,,,,,,0,41,41,276,,,,,,,,,,,,,,,,,,,,,,,,,,,,,,,,,,,430.5822716000257,431.5963547999854,431.57989140000427,432.2199513000087,432.1433835999924,None,433.95284109999193,None,right,1.0116695999749936,433.95284109999193,None,434.9829596999916,None,left,0.9259361000149511,434.9829596999916,None,,,,,,,,,,,,,,,,,,,,,,,PPT33,001,2022-07-05_15h31.02.716,ABstudy,2022.1.4,59.97202904909842,
AB,Lag1_T1P_T2P,1,P,P,7,8,6,3,11,compass,Did you see the compass?,0.12,0.016,JPG\,brick,plate01b,pen04b,toaster01,screwdriver04b,candle01,magneticcompass,stapler03a,pig,ring01,orange,blankImage,blankImage,blankImage,blankImage,blankImage,blankImage,magneticcompass,,,,,,,,,,,,0,42,42,66,,,,,,,,,,,,,,,,,,,,,,,,,,,,,,,,,,,435.9369435000117,436.9515828000149,436.9182400999707,437.4929664999945,437.4929664999945,None,438.90338779997546,None,left,1.0285101000335999,438.90338779997546,None,439.9546511999797,None,right,0.4501661999966018,439.9546511999797,None,,,,,,,,,,,,,,,,,,,,,,,PPT33,001,2022-07-05_15h31.02.716,ABstudy,2022.1.4,59.97202904909842,
AB,Lag5_T1P_T2P,5,P,P,5,10,4,3,13,lollipop,Did you see the lollipop?,0.12,0.016,JPG\,brownsugar,candle01,match,printer02,lollipop04,balloon01b,belt02a,potato02b,computerkeyboard02,stapler03a,rice,mushroom01,pencil01,blankImage,blankImage,blankImage,blankImage,lollipop04,,,,,,,,,,,,0,43,43,112,,,,,,,,,,,,,,,,,,,,,,,,,,,,,,,,,,,440.426151200023,441.43977330002235,441.42321949999314,441.9252140999888,441.9252140999888,None,443.5831586000277,None,left,0.8620688000228256,443.5831586000277,None,444.4789345000172,None,left,0.5176573999924585,444.4789345000172,None,,,,,,,,,,,,,,,,,,,,,,,PPT33,001,2022-07-05_15h31.02.716,ABstudy,2022.1.4,59.97202904909842,
AB,Lag5_T1P_T2P,5,P,P,7,12,6,5,17,tie,Did you see the tie?,0.12,0.016,JPG\,iron01b,orange,birthdaycandle,potato02b,cauliflower01,pencil01,tie02,candle08b,celery,tableknife02,pen04b,stapler06,ring01,rice,lemon02,tomato01,blankImage,tie02,,,,,,,,,,,,0,44,44,161,,,,,,,,,,,,,,,,,,,,,,,,,,,,,,,,,,,445.02860830002464,446.0440457999939,446.01066219998756,446.5976536999806,446.5976536999806,None,448.5604366000043,None,left,0.899922999960836,448.5604366000043,None,449.48096050001914,None,left,0.35559200000716373,449.48096050001914,None,,,,,,,,,,,,,,,,,,,,,,,PPT33,001,2022-07-05_15h31.02.716,ABstudy,2022.1.4,59.97202904909842,
AB,Lag1_T1P_T2P,1,P,P,7,8,6,4,12,Christmas Tree,Did you see the Christmas Tree?,0.12,0.016,JPG\,sandal,fan,printer02,cellphone,mushroom01,candle08b,firtree,stapler03a,lamp04a,hammer01,teabag,aceofdiamond,blankImage,blankImage,blankImage,blankImage,blankImage,firtree,,,,,,,,,,,,0,45,45,6,,,,,,,,,,,,,,,,,,,,,,,,,,,,,,,,,,,449.86706989997765,450.8663622000022,450.85081879998324,451.48248639999656,451.48248639999656,None,452.9420106000034,None,left,1.1105715999729,452.9420106000034,None,454.0693976000184,None,right,0.37616819998947904,454.0693976000184,None,,,,,,,,,,,,,,,,,,,,,,,PPT33,001,2022-07-05_15h31.02.716,ABstudy,2022.1.4,59.97202904909842,
AB,Lag1_T1P_T2P,1,P,P,6,7,5,5,12,exit sign,Did you see the exit sign?,0.12,0.016,JPG\,printer02,envelope03a,potato02b,calculator01,tableknife02,exitsign,stapler01,pig,broom01,greenolive,candle08b,battery02b,blankImage,blankImage,blankImage,blankImage,blankImage,exitsign,,,,,,,,,,,,0,46,46,41,,,,,,,,,,,,,,,,,,,,,,,,,,,,,,,,,,,454.55113510001684,455.55508449999616,455.53859850001754,456.22170499997446,456.13835069997003,None,457.5785006000078,None,left,1.177610199956689,457.5785006000078,None,458.7734324000194,None,right,0.4306240000296384,458.7734324000194,None,,,,,,,,,,,,,,,,,,,,,,,PPT33,001,2022-07-05_15h31.02.716,ABstudy,2022.1.4,59.97202904909842,
AB,Lag1_T1P_T2P,1,P,P,7,8,6,4,12,cow,Did you see the cow?,0.12,0.016,JPG\,fork03c,plate01b,toiletpaper01a,greenolive,rice,blueberry01,cow,stapler01,envelope03a,orange,book01b,pencil01,blankImage,blankImage,blankImage,blankImage,blankImage,cow,,,,,,,,,,,,0,47,47,59,,,,,,,,,,,,,,,,,,,,,,,,,,,,,,,,,,,459.22600590001093,460.24148520000745,460.2081244000001,460.77813709998736,460.77813709998736,None,462.30773699999554,None,left,0.7297130000079051,462.30773699999554,None,463.06093430001056,None,left,0.4635163000202738,463.06093430001056,None,,,,,,,,,,,,,,,,,,,,,,,PPT33,001,2022-07-05_15h31.02.716,ABstudy,2022.1.4,59.97202904909842,
AB,Lag5_T1P_T2A,5,P,A,8,13,7,4,17,Drum set,Did you see the Drum set?,0.12,0.016,JPG\,pencil01,microscope,banana01,computerkeyboard02,celery,cellphone,scissors01,drumset,book01b,onion,dice05a,binoculars01b,baseball01a,iron01b,screw02,fork03c,blankImage,drumset,,,,,,,,,,,,0,48,48,212,,,,,,,,,,,,,,,,,,,,,,,,,,,,,,,,,,,463.5479043999803,464.56249550002394,464.52914669999154,465.10577829997055,465.10577829997055,None,467.0304888000246,None,left,1.0217169999959879,467.0304888000246,None,468.0828987000277,None,right,0.29765230003977194,468.0828987000277,None,,,,,,,,,,,,,,,,,,,,,,,PPT33,001,2022-07-05_15h31.02.716,ABstudy,2022.1.4,59.97202904909842,
AB,Lag5_T1P_T2P,5,P,P,6,11,5,5,16,keys,Did you see the keys?,0.12,0.016,JPG\,toiletpaper01a,mushroom01,medal02b,sandal,rice,foldingchair,feather03a,pizza,candle08b,garlic01a,stapler01,belt02a,cigarette,violin,lemon02,fork03c,blankImage,foldingchair,,,,,,,,,,,,0,49,49,125,,,,,,,,,,,,,,,,,,,,,,,,,,,,,,,,,,,468.40167509997264,469.41707389999647,469.3837296999991,469.987099400023,469.987099400023,None,472.0136171000195,None,right,1.4305451000109315,472.0136171000195,None,473.47134980000556,None,left,0.6209496999508701,473.47134980000556,None,,,,,,,,,,,,,,,,,,,,,,,PPT33,001,2022-07-05_15h31.02.716,ABstudy,2022.1.4,59.97202904909842,
AB,Lag5_T1P_T2P,5,P,P,5,10,4,3,13,Sushi,Did you see the Sushi?,0.12,0.016,JPG\,carrot01,greenolive,fork03c,chain01,makiroll,watermelon01,tableknife02,printer02,comb02a,stapler03b,orange,rice,fan,blankImage,blankImage,blankImage,blankImage,makiroll,,,,,,,,,,,,0,50,50,135,,,,,,,,,,,,,,,,,,,,,,,,,,,,,,,,,,,474.12490980001166,475.1396674999851,475.10635479999473,475.6897827999783,475.6897827999783,None,477.2562314000097,None,left,0.8444283999851905,477.2562314000097,None,478.14049399999203,None,left,0.5361358000081964,478.14049399999203,None,,,,,,,,,,,,,,,,,,,,,,,PPT33,001,2022-07-05_15h31.02.716,ABstudy,2022.1.4,59.97202904909842,
AB,Lag5_T1P_T2P,5,P,P,5,10,4,3,13,Jellyfish,Did you see the Jellyfish?,0.12,0.016,JPG\,printer02,envelope03a,potato02b,calculator01,jellyfish,cigarette,ashtray01,pig,broom01,stapler06,candle08b,battery02b,strawberry,blankImage,blankImage,blankImage,blankImage,jellyfish,,,,,,,,,,,,0,51,51,91,,,,,,,,,,,,,,,,,,,,,,,,,,,,,,,,,,,478.7122134999954,479.7275795000023,479.694195899996,480.2893188999733,480.2893188999733,None,481.8844278000179,None,left,0.6883329999982379,481.8844278000179,None,482.59709930000827,None,left,0.3199874000274576,482.59709930000827,None,,,,,,,,,,,,,,,,,,,,,,,PPT33,001,2022-07-05_15h31.02.716,ABstudy,2022.1.4,59.97202904909842,
AB,Lag5_T1P_T2A,5,P,A,8,13,7,4,17,Tarantula,Did you see the Tarantula?,0.12,0.016,JPG\,binoculars01b,speaker04,sandal,envelope03a,plate01b,comb02a,battery02b,tarantula,measuringcup01,key01,medal02b,lamp04a,tennisball01b,pizza,cigarette,sunglasses04,blankImage,tarantula,,,,,,,,,,,,0,52,52,201,,,,,,,,,,,,,,,,,,,,,,,,,,,,,,,,,,,482.94971279997844,483.9651565999957,483.9317928000237,484.5160160000087,484.5160160000087,None,486.4785216000164,None,left,1.1661041000043042,486.4785216000164,None,487.66874819999794,None,right,0.5268858000054024,487.66874819999794,None,,,,,,,,,,,,,,,,,,,,,,,PPT33,001,2022-07-05_15h31.02.716,ABstudy,2022.1.4,59.97202904909842,
AB,Lag1_T1A_T2P,1,A,P,5,6,4,3,9,microphone,Did you see the microphone?,0.12,0.016,JPG\,hammer01,sponge01,toaster01,cherry01,feather03a,stapler06,measuringcup01,pencil01,tennisball01b,blankImage,blankImage,blankImage,blankImage,blankImage,blankImage,blankImage,blankImage,cactus,,,,,,,,,,,,0,53,53,230,,,,,,,,,,,,,,,,,,,,,,,,,,,,,,,,,,,488.2235658999998,489.23729919997277,489.2207672999939,489.87900209997315,489.79766420001397,None,490.9292742999969,None,right,1.2910498999990523,490.9292742999969,None,492.24044329999015,None,left,0.35577780002495274,492.24044329999015,None,,,,,,,,,,,,,,,,,,,,,,,PPT33,001,2022-07-05_15h31.02.716,ABstudy,2022.1.4,59.97202904909842,
AB,Lag5_T1P_T2P,5,P,P,6,11,5,3,14,wrench,Did you see the wrench?,0.12,0.016,JPG\,cherry01,cymbal,envelope03a,foosballtable,shirt02,stubbywrench01a,sewingmachine01a,candle08b,battery02b,apple07,stapler03b,screwdriver04b,strawberry,sunglasses04,blankImage,blankImage,blankImage,stubbywrench01a,,,,,,,,,,,,0,54,54,122,,,,,,,,,,,,,,,,,,,,,,,,,,,,,,,,,,,492.62759899999946,493.6422033000272,493.6264040999813,494.30043419997673,494.2256305000046,None,495.8969362999778,None,left,0.8906448000343516,495.8969362999778,None,496.8112767999992,None,left,0.20203539996873587,496.8112767999992,None,,,,,,,,,,,,,,,,,,,,,,,PPT33,001,2022-07-05_15h31.02.716,ABstudy,2022.1.4,59.97202904909842,
AB,Lag5_T1P_T2P,5,P,P,8,13,7,4,17,Accordion,Did you see the Accordion?,0.12,0.016,JPG\,toiletpaper01a,lipstick02a,potato02b,speaker04,globe,strawberry,carrot01,accordion01,sock01a,candle08b,pen04b,calculator01,stapler01,brick,pear01,fork03c,blankImage,accordion01,,,,,,,,,,,,0,55,55,162,,,,,,,,,,,,,,,,,,,,,,,,,,,,,,,,,,,497.0481269999873,498.0625238000066,498.0291509000235,498.6261541999993,498.6261541999993,None,500.60315330000594,None,left,0.6243240000330843,500.60315330000594,None,501.24893699999666,None,left,0.1785022999974899,501.24893699999666,None,,,,,,,,,,,,,,,,,,,,,,,PPT33,001,2022-07-05_15h31.02.716,ABstudy,2022.1.4,59.97202904909842,
AB,Lag5_T1A_T2P,5,A,P,5,10,4,5,15,Sushi,Did you see the Sushi?,0.12,0.016,JPG\,pineapple01a,leaf02a,grape01,toiletpaper01a,match,tennisball01b,spoon01,chain01,pig,stapler04b,ring01,lemon02,dice05a,pizza,potato02b,blankImage,blankImage,crown,,,,,,,,,,,,0,56,56,285,,,,,,,,,,,,,,,,,,,,,,,,,,,,,,,,,,,501.4514021999785,502.4668034000206,502.4335047000204,503.01816530001815,503.01816530001815,None,504.8491339000175,None,right,1.1644552999641746,504.8491339000175,None,506.03819099999964,None,left,0.30211320001399145,506.03819099999964,None,,,,,,,,,,,,,,,,,,,,,,,PPT33,001,2022-07-05_15h31.02.716,ABstudy,2022.1.4,59.97202904909842,
AB,Lag1_T1A_T2P,1,A,P,5,6,4,3,9,Crown,Did you see the Crown?,0.12,0.016,JPG\,leaf02a,pear01,measuringcup01,cigarette,fan,stapler04b,teabag,tableknife02,ring01,blankImage,blankImage,blankImage,blankImage,blankImage,blankImage,blankImage,blankImage,arrow02,,,,,,,,,,,,0,57,57,248,,,,,,,,,,,,,,,,,,,,,,,,,,,,,,,,,,,506.4497950000223,507.4562035999843,507.4404325999785,508.02195620001294,508.02195620001294,None,509.0808186000213,None,right,1.1797878999495879,509.0808186000213,None,510.29138000000967,None,left,0.27306969999335706,510.29138000000967,None,,,,,,,,,,,,,,,,,,,,,,,PPT33,001,2022-07-05_15h31.02.716,ABstudy,2022.1.4,59.97202904909842,
AB,Lag1_T1P_T2A,1,P,A,5,6,4,5,11,Toaster oven,Did you see the Toaster oven?,0.12,0.016,JPG\,fork03c,toothbrush03b,cellphone,fan,toasteroven,clock01a,ring01,eraser,sunglasses04,thermometer02b,violin,blankImage,blankImage,blankImage,blankImage,blankImage,blankImage,toasteroven,,,,,,,,,,,,0,58,58,200,,,,,,,,,,,,,,,,,,,,,,,,,,,,,,,,,,,510.5955771000008,511.60934979998274,511.59263859997736,512.1743268999853,512.1743268999853,None,513.5193069999805,None,left,2.5647663000272587,513.5193069999805,None,516.1140727999737,None,right,0.3701381999999285,516.1140727999737,None,,,,,,,,,,,,,,,,,,,,,,,PPT33,001,2022-07-05_15h31.02.716,ABstudy,2022.1.4,59.97202904909842,
AB,Lag1_T1P_T2P,1,P,P,5,6,4,3,9,mail box,Did you see the mail box?,0.12,0.016,JPG\,watermelon01,banana01,ring01,pencil01,mailbox02,stapler04b,cucumber,thermometer02b,key01,blankImage,blankImage,blankImage,blankImage,blankImage,blankImage,blankImage,blankImage,mailbox02,,,,,,,,,,,,0,59,59,21,,,,,,,,,,,,,,,,,,,,,,,,,,,,,,,,,,,516.5698389000027,517.5819336000131,517.5670867000008,518.2361924999859,518.1576704999898,None,519.1611867999891,None,left,1.0349733000039123,519.1611867999891,None,520.2191548999981,None,left,0.4342637999798171,520.2191548999981,None,,,,,,,,,,,,,,,,,,,,,,,PPT33,001,2022-07-05_15h31.02.716,ABstudy,2022.1.4,59.97202904909842,
AB,Lag5_T1A_T2P,5,A,P,5,10,4,5,15,parachute,Did you see the parachute?,0.12,0.016,JPG\,binoculars01b,speaker04,sandal,envelope03a,plate01b,comb02a,battery02b,chain01,measuringcup01,stapler03b,medal02b,lamp04a,tennisball01b,pizza,cigarette,blankImage,blankImage,knee,,,,,,,,,,,,0,60,60,264,,,,,,,,,,,,,,,,,,,,,,,,,,,,,,,,,,,520.6920387999853,521.702933499997,521.6861993999919,522.277848800004,522.277848800004,None,524.0743107000017,None,right,1.729423000011593,524.0743107000017,None,525.824882099987,None,right,0.5067759999656118,525.824882099987,None,,,,,,,,,,,,,,,,,,,,,,,PPT33,001,2022-07-05_15h31.02.716,ABstudy,2022.1.4,59.97202904909842,
AB,Lag1_T1P_T2P,1,P,P,6,7,5,3,10,elephant,Did you see the elephant?,0.12,0.016,JPG\,clock01a,grape01,plate01b,key01,screwdriver04b,africanelephant,stapler03b,iron01b,toothbrush03b,comb02a,blankImage,blankImage,blankImage,blankImage,blankImage,blankImage,blankImage,africanelephant,,,,,,,,,,,,0,61,61,31,,,,,,,,,,,,,,,,,,,,,,,,,,,,,,,,,,,526.4308542999788,527.4426637999713,527.4270476999809,528.0304719000123,528.0304719000123,None,529.1738687999896,None,left,0.9178892999771051,529.1738687999896,None,530.1110341000021,None,left,0.3015921999467537,530.1110341000021,None,,,,,,,,,,,,,,,,,,,,,,,PPT33,001,2022-07-05_15h31.02.716,ABstudy,2022.1.4,59.97202904909842,
AB,Lag1_T1P_T2P,1,P,P,8,9,7,3,12,Eiffel tower,Did you see the Eiffel tower?,0.12,0.016,JPG\,celery,tennisball01b,calculator01,pear01,screw02,orange,button01,eiffeltower,stapler03b,apple07,iron01b,brownsugar,blankImage,blankImage,blankImage,blankImage,blankImage,eiffeltower,,,,,,,,,,,,0,62,62,40,,,,,,,,,,,,,,,,,,,,,,,,,,,,,,,,,,,530.448022000026,531.4623520000023,531.4456945999991,532.0846467000083,532.0077467000228,None,533.4462576999795,None,left,1.2219974000472575,533.4462576999795,None,534.69893459999,None,right,0.6256616999744438,534.69893459999,None,,,,,,,,,,,,,,,,,,,,,,,PPT33,001,2022-07-05_15h31.02.716,ABstudy,2022.1.4,59.97202904909842,
AB,Lag5_T1P_T2P,5,P,P,7,12,6,4,16,flower,Did you see the flower?,0.12,0.016,JPG\,cucumber,sponge01,alligator,pear01,ashtray01,hammer01,hibiscusflower02,battery02b,fork03c,binoculars01b,mushroom01,stapler01,leaf02a,acorn,comb02a,screwdriver04b,blankImage,hibiscusflower02,,,,,,,,,,,,0,63,63,132,,,,,,,,,,,,,,,,,,,,,,,,,,,,,,,,,,,535.3527361999732,536.3672947000014,536.3338788999827,536.9261671000277,536.9261671000277,None,538.8312837000121,None,right,1.5882013999507762,538.8312837000121,None,540.4393443000154,None,left,0.4769188000354916,540.4393443000154,None,,,,,,,,,,,,,,,,,,,,,,,PPT33,001,2022-07-05_15h31.02.716,ABstudy,2022.1.4,59.97202904909842,
AB,Lag5_T1P_T2P,5,P,P,5,10,4,4,14,License Plate,Did you see the License Plate?,0.12,0.016,JPG\,toaster01,chain01,sponge01,baseball01a,licenseplate,belt02a,book01b,iron01b,grape01,stapler06,celery,onion,mushroom01,toothbrush03b,blankImage,blankImage,blankImage,licenseplate,,,,,,,,,,,,0,64,64,120,,,,,,,,,,,,,,,,,,,,,,,,,,,,,,,,,,,540.9523734999821,541.9564992000232,541.9231890999945,542.5272774000186,542.5272774000186,None,544.2394353999989,None,left,0.5562581999693066,544.2394353999989,None,544.8255944999983,None,left,0.20288909994997084,544.8255944999983,None,,,,,,,,,,,,,,,,,,,,,,,PPT33,001,2022-07-05_15h31.02.716,ABstudy,2022.1.4,59.97202904909842,
AB,Lag5_T1P_T2P,5,P,P,6,11,5,5,16,microwave,Did you see the microwave?,0.12,0.016,JPG\,pen04b,speaker04,lighter01,cherry01,weight04a,microwave,sock01a,toothbrush03b,broom01,sewingmachine01a,stapler06,iron01b,clock01a,sandal,cd,blueberry01,blankImage,microwave,,,,,,,,,,,,0,65,65,136,,,,,,,,,,,,,,,,,,,,,,,,,,,,,,,,,,,545.0618057000102,546.0768956000102,546.043569899979,546.6154357999912,546.6154357999912,None,548.5633008999866,None,left,1.4247723000007682,548.5633008999866,None,550.0145808000234,None,right,0.541699499997776,550.0145808000234,None,,,,,,,,,,,,,,,,,,,,,,,PPT33,001,2022-07-05_15h31.02.716,ABstudy,2022.1.4,59.97202904909842,
AB,Lag1_T1P_T2P,1,P,P,6,7,5,3,10,cupcake,Did you see the cupcake?,0.12,0.016,JPG\,printer02,leaf02a,cauliflower01,sock01a,brownsugar,cupcake,stapler01,orange,belt02a,shirt02,blankImage,blankImage,blankImage,blankImage,blankImage,blankImage,blankImage,cupcake,,,,,,,,,,,,0,66,66,38,,,,,,,,,,,,,,,,,,,,,,,,,,,,,,,,,,,550.6467249999987,551.6489284000127,551.632179200009,552.221215699974,552.221215699974,None,553.4414775000187,None,left,0.4906896999455057,553.4414775000187,None,553.9525991000119,None,left,0.1317072000238113,553.9525991000119,None,,,,,,,,,,,,,,,,,,,,,,,PPT33,001,2022-07-05_15h31.02.716,ABstudy,2022.1.4,59.97202904909842,
AB,Lag1_T1A_T2P,1,A,P,8,9,7,3,12,porcupine,Did you see the porcupine?,0.12,0.016,JPG\,celery,orange,scissors01,balloon01b,avocado01,printer02,mushroom01,sewingmachine01a,stapler01,dice05a,ashtray01,fan,blankImage,blankImage,blankImage,blankImage,blankImage,drumstick,,,,,,,,,,,,0,67,67,233,,,,,,,,,,,,,,,,,,,,,,,,,,,,,,,,,,,554.1108907000162,555.1197026000009,555.1029024000163,555.6634128000005,555.6634128000005,None,557.1743910000077,None,left,0.9016862999997102,557.1743910000077,None,558.1055700000143,None,right,0.2584222999867052,558.1055700000143,None,,,,,,,,,,,,,,,,,,,,,,,PPT33,001,2022-07-05_15h31.02.716,ABstudy,2022.1.4,59.97202904909842,
AB,Lag5_T1P_T2A,5,P,A,8,13,7,4,17,knife,Did you see the knife?,0.12,0.016,JPG\,lighter01,hammer01,spoon01,chain01,cymbal,sponge01,lipstick02a,knife03,pig,watermelon01,cauliflower01,lemon02,broccoli01a,tableknife02,tennisball01b,toothbrush03b,blankImage,knife03,,,,,,,,,,,,0,68,68,214,,,,,,,,,,,,,,,,,,,,,,,,,,,,,,,,,,,558.392949800007,559.4072244999697,559.3738633000175,560.0114634999773,560.0114634999773,None,561.9178042000276,None,left,1.9177640000125393,561.9178042000276,None,563.8616808999795,None,right,0.430863399989903,563.8616808999795,None,,,,,,,,,,,,,,,,,,,,,,,PPT33,001,2022-07-05_15h31.02.716,ABstudy,2022.1.4,59.97202904909842,
AB,Lag1_T1P_T2A,1,P,A,8,9,7,5,14,Parrot,Did you see the Parrot?,0.12,0.016,JPG\,candy,brownsugar,dice05a,cd,sock01a,blueberry01,button01,parrot01,feather03a,grape01,dandelion,scissors01,watch02a,candle08b,blankImage,blankImage,blankImage,parrot01,,,,,,,,,,,,0,69,69,192,,,,,,,,,,,,,,,,,,,,,,,,,,,,,,,,,,,564.3170524999732,565.3297093000147,565.3130757000181,565.8917261000024,565.8917261000024,None,567.597784099984,None,left,2.677990399999544,567.597784099984,None,570.3014041999704,None,right,1.1432001999928616,570.3014041999704,None,,,,,,,,,,,,,,,,,,,,,,,PPT33,001,2022-07-05_15h31.02.716,ABstudy,2022.1.4,59.97202904909842,
AB,Lag1_T1P_T2P,1,P,P,7,8,6,5,13,tiger,Did you see the tiger?,0.12,0.016,JPG\,globe,broccoli01a,binoculars01b,iron01b,avocado01,dandelion,tiger02,stapler03b,fan,pizza,celery,blueberry01,sewingmachine01a,blankImage,blankImage,blankImage,blankImage,tiger02,,,,,,,,,,,,0,70,70,50,,,,,,,,,,,,,,,,,,,,,,,,,,,,,,,,,,,571.4728042000206,572.4881595000043,572.4549127999926,573.0914450000273,573.0914450000273,None,574.6665026000119,None,left,0.873983199999202,574.6665026000119,None,575.5732286999701,None,left,0.31054020003648475,575.5732286999701,None,,,,,,,,,,,,,,,,,,,,,,,PPT33,001,2022-07-05_15h31.02.716,ABstudy,2022.1.4,59.97202904909842,
AB,Lag1_T1P_T2P,1,P,P,6,7,5,5,12,owl,Did you see the owl?,0.12,0.016,JPG\,paintbrush01,eraser,medal02b,hammer01,speaker04,greathornowl,stapler01,comb02a,plate01b,clock01a,button01,globe,blankImage,blankImage,blankImage,blankImage,blankImage,greathornowl,,,,,,,,,,,,0,71,71,1,,,,,,,,,,,,,,,,,,,,,,,,,,,,,,,,,,,575.9584452999989,576.957867900026,576.957867900026,577.5512326000025,577.5512326000025,None,578.9496112000197,None,left,0.8790893999976106,578.9496112000197,None,579.8608619999723,None,left,0.6068125999881886,579.8608619999723,None,,,,,,,,,,,,,,,,,,,,,,,PPT33,001,2022-07-05_15h31.02.716,ABstudy,2022.1.4,59.97202904909842,
AB,Lag1_T1P_T2P,1,P,P,5,6,4,5,11,owl,Did you see the owl?,0.12,0.016,JPG\,cellphone,tomato01,comb02a,candy,barnowl,stapler03a,toaster01,fan,feather03a,pen04b,lemon02,blankImage,blankImage,blankImage,blankImage,blankImage,blankImage,barnowl,,,,,,,,,,,,0,72,72,33,,,,,,,,,,,,,,,,,,,,,,,,,,,,,,,,,,,580.49665310001,581.4956372000161,581.4790526999859,582.0611168000032,582.0611168000032,None,583.4082854000153,None,left,2.027724199986551,583.4082854000153,None,585.4661181999836,None,left,0.7776199000072666,585.4661181999836,None,,,,,,,,,,,,,,,,,,,,,,,PPT33,001,2022-07-05_15h31.02.716,ABstudy,2022.1.4,59.97202904909842,
AB,Lag5_T1P_T2A,5,P,A,8,13,7,3,16,Shelves,Did you see the Shelves?,0.12,0.016,JPG\,pineapple01a,leaf02a,grape01,toiletpaper01a,match,tennisball01b,spoon01,shelves,pig,measuringcup01,ring01,lemon02,dice05a,pizza,potato02b,eraser,blankImage,shelves,,,,,,,,,,,,0,73,73,222,,,,,,,,,,,,,,,,,,,,,,,,,,,,,,,,,,,586.2702117000008,587.284676100011,587.2512698000064,587.8325648999889,587.8325648999889,None,589.7702652000007,None,left,1.0658714000019245,589.7702652000007,None,590.8548694999772,None,right,0.41335379995871335,590.8548694999772,None,,,,,,,,,,,,,,,,,,,,,,,PPT33,001,2022-07-05_15h31.02.716,ABstudy,2022.1.4,59.97202904909842,
AB,Lag5_T1A_T2A,5,A,A,7,12,6,3,15,Christmas lights,Did you see the Christmas lights?,0.12,0.016,JPG\,toiletpaper01a,mushroom01,medal02b,sandal,rice,cd,feather03a,pizza,candle08b,garlic01a,toaster01,belt02a,cigarette,violin,lemon02,blankImage,blankImage,rockbass,,,,,,,,,,,,0,74,74,299,,,,,,,,,,,,,,,,,,,,,,,,,,,,,,,,,,,591.2935729000019,592.306337099988,592.2896754000103,592.8760744999745,592.8760744999745,None,594.7351053999737,None,right,1.0364810000173748,594.7351053999737,None,595.7934995000251,None,right,0.4344357999507338,595.7934995000251,None,,,,,,,,,,,,,,,,,,,,,,,PPT33,001,2022-07-05_15h31.02.716,ABstudy,2022.1.4,59.97202904909842,
AB,Lag5_T1P_T2P,5,P,P,7,12,6,3,15,mail box,Did you see the mail box?,0.12,0.016,JPG\,key01,apple07,ring01,leaf02a,hammer01,tableknife02,postalmailbox01,sponge01,baseball01a,thermometer02b,celery,stapler06,grape01,cucumber,tennisball01b,blankImage,blankImage,postalmailbox01,,,,,,,,,,,,0,75,75,113,,,,,,,,,,,,,,,,,,,,,,,,,,,,,,,,,,,596.2660596999922,597.2781134999823,597.261342999991,597.839936000004,597.839936000004,None,599.6786564000067,None,right,2.5409412999870256,599.6786564000067,None,602.2494808000047,None,left,0.36233499995432794,602.2494808000047,None,,,,,,,,,,,,,,,,,,,,,,,PPT33,001,2022-07-05_15h31.02.716,ABstudy,2022.1.4,59.97202904909842,
AB,Lag5_T1P_T2P,5,P,P,8,13,7,3,16,shrimp,Did you see the shrimp?,0.12,0.016,JPG\,globe,belt02a,sponge01,violin,fork03c,tomato01,clock01a,cocktailshrimp02,balloon01b,scarf,teabag,pen04b,stapler03a,brownsugar,speaker04,screwdriver04b,blankImage,cocktailshrimp02,,,,,,,,,,,,0,76,76,169,,,,,,,,,,,,,,,,,,,,,,,,,,,,,,,,,,,602.6359602999873,603.6509800999775,603.6176262000226,604.2094187000184,604.2094187000184,None,606.1207641999936,None,right,1.210749100020621,606.1207641999936,None,607.3545643999823,None,right,0.47278469998855144,607.3545643999823,None,,,,,,,,,,,,,,,,,,,,,,,PPT33,001,2022-07-05_15h31.02.716,ABstudy,2022.1.4,59.97202904909842,
AB,Lag5_T1P_T2P,5,P,P,6,11,5,4,15,Witch hat,Did you see the Witch hat?,0.12,0.016,JPG\,pizza,watch02a,greenolive,cucumber,match,witchhat,scissors01,broom01,globe,cherry01,stapler03a,cigarette,microscope,cellphone,speaker04,blankImage,blankImage,witchhat,,,,,,,,,,,,0,77,77,101,,,,,,,,,,,,,,,,,,,,,,,,,,,,,,,,,,,607.85739379999,608.8728458000114,608.8394195999717,609.4442715999903,609.4442715999903,None,611.2854247000068,None,left,0.6234657000168227,611.2854247000068,None,611.9258824000135,None,left,0.4060526000102982,611.9258824000135,None,,,,,,,,,,,,,,,,,,,,,,,PPT33,001,2022-07-05_15h31.02.716,ABstudy,2022.1.4,59.97202904909842,
AB,Lag1_T1P_T2P,1,P,P,6,7,5,4,11,American football,Did you see the American football?,0.12,0.016,JPG\,toaster01,garlic01a,faucet,fan,comb02a,football,stapler06,watch02a,onion,blueberry01,toiletpaper01a,blankImage,blankImage,blankImage,blankImage,blankImage,blankImage,football,,,,,,,,,,,,0,78,78,12,,,,,,,,,,,,,,,,,,,,,,,,,,,,,,,,,,,612.3643566999817,613.3773117000237,613.3608150000218,613.9477009000257,613.9477009000257,None,615.3136463999981,None,left,0.5699634000193328,615.3136463999981,None,615.9134456000174,None,left,0.29798289999598637,615.9134456000174,None,,,,,,,,,,,,,,,,,,,,,,,PPT33,001,2022-07-05_15h31.02.716,ABstudy,2022.1.4,59.97202904909842,
AB,Lag1_T1P_T2P,1,P,P,8,9,7,4,13,crab,Did you see the crab?,0.12,0.016,JPG\,candle01,fork03c,plate01b,violin,computerkeyboard02,candy,calculator01,crab01,stapler04b,sock01a,teabag,banana01,cd,blankImage,blankImage,blankImage,blankImage,crab01,,,,,,,,,,,,0,79,79,37,,,,,,,,,,,,,,,,,,,,,,,,,,,,,,,,,,,616.2333895000047,617.2481505000032,617.2147180999746,617.7837645999971,617.7837645999971,None,619.3998369000037,None,left,0.7172927999636158,619.3998369000037,None,620.1344129000208,None,left,0.36513739998918027,620.1344129000208,None,,,,,,,,,,,,,,,,,,,,,,,PPT33,001,2022-07-05_15h31.02.716,ABstudy,2022.1.4,59.97202904909842,
AB,Lag1_T1P_T2A,1,P,A,5,6,4,5,11,Sailboat,Did you see the Sailboat?,0.12,0.016,JPG\,chain01,speaker04,avocado01,watermelon01,sailboat,comb02a,lamp04a,fork03c,toaster01,slipper03b,scissors01,blankImage,blankImage,blankImage,blankImage,blankImage,blankImage,sailboat,,,,,,,,,,,,0,80,80,193,,,,,,,,,,,,,,,,,,,,,,,,,,,,,,,,,,,620.5233696000068,621.5355747999856,621.5190936999861,622.1079964999808,622.1079964999808,None,623.4456734000123,None,left,1.294936400023289,623.4456734000123,None,624.7723533000099,None,right,0.35158879996743053,624.7723533000099,None,,,,,,,,,,,,,,,,,,,,,,,PPT33,001,2022-07-05_15h31.02.716,ABstudy,2022.1.4,59.97202904909842,
AB,Lag1_T1A_T2P,1,A,P,6,7,5,5,12,Treadmill,Did you see the Treadmill?,0.12,0.016,JPG\,pencil01,broccoli01a,button01,sponge01,watermelon01,lipstick02a,stapler04b,fan,lighter01,sock01a,spoon01,blueberry01,blankImage,blankImage,blankImage,blankImage,blankImage,magneticcompass,,,,,,,,,,,,0,81,81,238,,,,,,,,,,,,,,,,,,,,,,,,,,,,,,,,,,,625.158520099998,626.1735884000082,626.1402763000224,626.703052100027,626.703052100027,None,628.2945460000192,None,right,1.1341422999976203,628.2945460000192,None,629.4600122999982,None,left,0.40767559997038916,629.4600122999982,None,,,,,,,,,,,,,,,,,,,,,,,PPT33,001,2022-07-05_15h31.02.716,ABstudy,2022.1.4,59.97202904909842,
AB,Lag1_T1P_T2A,1,P,A,7,8,6,3,11,Snowshoe,Did you see the Snowshoe?,0.12,0.016,JPG\,birthdaycandle,mushroom01,strawberry,match,cherry01,eraser,snowshoe,thermometer02b,sock01a,ring01,feather03a,blankImage,blankImage,blankImage,blankImage,blankImage,blankImage,snowshoe,,,,,,,,,,,,0,82,82,194,,,,,,,,,,,,,,,,,,,,,,,,,,,,,,,,,,,629.8965449000243,630.9113420000067,630.8779980000108,631.3798786000116,631.3798786000116,None,632.8132261999999,None,left,2.7029101999942213,632.8132261999999,None,635.5326292000245,None,right,0.9034793000319041,635.5326292000245,None,,,,,,,,,,,,,,,,,,,,,,,PPT33,001,2022-07-05_15h31.02.716,ABstudy,2022.1.4,59.97202904909842,
AB,Lag5_T1P_T2A,5,P,A,5,10,4,3,13,pin,Did you see the pin?,0.12,0.016,JPG\,candle01,fork03c,plate01b,violin,pin,candy,calculator01,paintbrush01,cherry01,sock01a,teabag,banana01,cd,blankImage,blankImage,blankImage,blankImage,pin,,,,,,,,,,,,0,83,83,215,,,,,,,,,,,,,,,,,,,,,,,,,,,,,,,,,,,636.4698884999962,637.4846409999882,637.4512898999965,638.0204706999939,638.0204706999939,None,639.6258528999751,None,right,1.4816665000398643,639.6258528999751,None,641.1390635999851,None,left,0.3601534999907017,641.1390635999851,None,,,,,,,,,,,,,,,,,,,,,,,PPT33,001,2022-07-05_15h31.02.716,ABstudy,2022.1.4,59.97202904909842,
AB,Lag5_T1A_T2A,5,A,A,6,11,5,5,16,shrimp,Did you see the shrimp?,0.12,0.016,JPG\,speaker04,sewingmachine01a,eraser,violin,globe,belt02a,sunglasses04,cymbal,cd,greenolive,alligator,pear01,watch02a,screwdriver04b,banana01,cigarette,blankImage,rollerblade,,,,,,,,,,,,0,84,84,300,,,,,,,,,,,,,,,,,,,,,,,,,,,,,,,,,,,641.5230037000147,642.5233193999738,642.5063315000152,643.077200700005,643.077200700005,None,645.0435770999757,None,right,0.7603343999944627,645.0435770999757,None,645.8262014000211,None,right,0.20146850001765415,645.8262014000211,None,,,,,,,,,,,,,,,,,,,,,,,PPT33,001,2022-07-05_15h31.02.716,ABstudy,2022.1.4,59.97202904909842,
AB,Lag1_T1P_T2P,1,P,P,6,7,5,3,10,jelly beans,Did you see the jelly beans?,0.12,0.016,JPG\,lipstick02a,cucumber,candle08b,printer02,grape01,jellybean,stapler01,lighter01,belt02a,balloon01b,blankImage,blankImage,blankImage,blankImage,blankImage,blankImage,blankImage,jellybean,,,,,,,,,,,,0,85,85,15,,,,,,,,,,,,,,,,,,,,,,,,,,,,,,,,,,,646.1029084000038,647.1111647000071,647.0943624000065,647.7263651000103,647.6566212999751,None,648.8679444000009,None,left,0.7198901000083424,648.8679444000009,None,649.61363789998,None,left,0.142809999990277,649.61363789998,None,,,,,,,,,,,,,,,,,,,,,,,PPT33,001,2022-07-05_15h31.02.716,ABstudy,2022.1.4,59.97202904909842,
AB,Lag1_T1P_T2A,1,P,A,7,8,6,3,11,walkie talkie,Did you see the walkie talkie?,0.12,0.016,JPG\,teabag,envelope03a,cellphone,apple07,cauliflower01,orange,walkietalkie,book01b,hammer01,feather03a,toaster01,blankImage,blankImage,blankImage,blankImage,blankImage,blankImage,walkietalkie,,,,,,,,,,,,0,86,86,197,,,,,,,,,,,,,,,,,,,,,,,,,,,,,,,,,,,649.7849298000219,650.7979415999725,650.7811507000006,651.3647116000066,651.3647116000066,None,652.7410732000135,None,left,0.6548439000034705,652.7410732000135,None,653.4171300000162,None,right,0.2822156000183895,653.4171300000162,None,,,,,,,,,,,,,,,,,,,,,,,PPT33,001,2022-07-05_15h31.02.716,ABstudy,2022.1.4,59.97202904909842,
AB,Lag1_T1P_T2P,1,P,P,6,7,5,3,10,Pool table,Did you see the Pool table?,0.12,0.016,JPG\,tomato01,pen04b,shirt02,carrot01,lamp04a,pooltable,stapler06,avocado01,sewingmachine01a,apple07,blankImage,blankImage,blankImage,blankImage,blankImage,blankImage,blankImage,pooltable,,,,,,,,,,,,0,87,87,29,,,,,,,,,,,,,,,,,,,,,,,,,,,,,,,,,,,653.778489999997,654.7850231999764,654.7683563000173,655.3596322999801,655.3596322999801,None,656.5179380999762,None,left,0.646446900034789,656.5179380999762,None,657.1879635999794,None,left,0.34439350001048297,657.1879635999794,None,,,,,,,,,,,,,,,,,,,,,,,PPT33,001,2022-07-05_15h31.02.716,ABstudy,2022.1.4,59.97202904909842,
AB,Lag1_T1P_T2A,1,P,A,7,8,6,4,12,bird,Did you see the bird?,0.12,0.016,JPG\,speaker04,sewingmachine01a,eraser,violin,globe,belt02a,tern,cymbal,cd,greenolive,alligator,pear01,blankImage,blankImage,blankImage,blankImage,blankImage,tern,,,,,,,,,,,,0,88,88,177,,,,,,,,,,,,,,,,,,,,,,,,,,,,,,,,,,,657.5573930999963,658.5555871999823,658.5403398000053,659.1236765999929,659.1236765999929,None,660.6805693000206,None,left,1.0985951999900863,660.6805693000206,None,661.8091123999911,None,right,0.4350101000163704,661.8091123999911,None,,,,,,,,,,,,,,,,,,,,,,,PPT33,001,2022-07-05_15h31.02.716,ABstudy,2022.1.4,59.97202904909842,
AB,Lag1_T1P_T2P,1,P,P,8,9,7,3,12,bridge,Did you see the bridge?,0.12,0.016,JPG\,speaker04,sewingmachine01a,eraser,violin,globe,belt02a,sunglasses04,bridge,stapler01,greenolive,alligator,pear01,blankImage,blankImage,blankImage,blankImage,blankImage,bridge,,,,,,,,,,,,0,89,89,78,,,,,,,,,,,,,,,,,,,,,,,,,,,,,,,,,,,662.2799617000273,663.2939923999947,663.2771869999706,663.8817128000082,663.8817128000082,None,665.324218099995,None,left,1.2074734999914654,665.324218099995,None,666.5638915000018,None,left,0.5848375000059605,666.5638915000018,None,,,,,,,,,,,,,,,,,,,,,,,PPT33,001,2022-07-05_15h31.02.716,ABstudy,2022.1.4,59.97202904909842,
AB,Lag1_T1P_T2P,1,P,P,7,8,6,3,11,locker,Did you see the locker?,0.12,0.016,JPG\,toiletpaper01a,lipstick02a,potato02b,speaker04,globe,strawberry,locker,stapler04b,sock01a,candle08b,pen04b,blankImage,blankImage,blankImage,blankImage,blankImage,blankImage,locker,,,,,,,,,,,,0,90,90,19,,,,,,,,,,,,,,,,,,,,,,,,,,,,,,,,,,,667.1853884999873,668.1987907000002,668.1820462999749,668.7814539999817,668.7814539999817,None,670.130173499987,None,left,0.8009586000116542,670.130173499987,None,670.9517581000109,None,right,0.3715682000038214,670.9517581000109,None,,,,,,,,,,,,,,,,,,,,,,,PPT33,001,2022-07-05_15h31.02.716,ABstudy,2022.1.4,59.97202904909842,
AB,Lag5_T1P_T2P,5,P,P,8,13,7,3,16,church,Did you see the church?,0.12,0.016,JPG\,clock01a,cellphone,toaster01,toothbrush03b,cauliflower01,microscope,comb02a,church,scarf,clock04,sponge01,iron01b,stapler06,celery,ring01,ashtray01,blankImage,church,,,,,,,,,,,,0,91,91,129,,,,,,,,,,,,,,,,,,,,,,,,,,,,,,,,,,,671.3552271000226,672.3694607000216,672.3530427999794,672.9973857000005,672.916872199974,None,674.8645393999759,None,right,1.6439658000017516,674.8645393999759,None,676.5404552000109,None,left,0.25510920002125204,676.5404552000109,None,,,,,,,,,,,,,,,,,,,,,,,PPT33,001,2022-07-05_15h31.02.716,ABstudy,2022.1.4,59.97202904909842,
AB,Lag1_T1P_T2A,1,P,A,7,8,6,5,13,Well,Did you see the Well?,0.12,0.016,JPG\,leaf02a,apple07,cd,pineapple01a,envelope03a,paintbrush01,well,acorn,rice,feather03a,lemon02,balloon01b,avocado01,blankImage,blankImage,blankImage,blankImage,well,,,,,,,,,,,,0,92,92,178,,,,,,,,,,,,,,,,,,,,,,,,,,,,,,,,,,,676.8271776000038,677.8417122000246,677.8083462999784,678.3747452999814,678.3747452999814,None,680.0895982999937,None,left,1.290904399997089,680.0895982999937,None,681.4116999999969,None,right,0.376925399992615,681.4116999999969,None,,,,,,,,,,,,,,,,,,,,,,,PPT33,001,2022-07-05_15h31.02.716,ABstudy,2022.1.4,59.97202904909842,
AB,Lag1_T1P_T2P,1,P,P,5,6,4,5,11,Light switch,Did you see the Light switch?,0.12,0.016,JPG\,iron01b,orange,birthdaycandle,potato02b,lightswitch01,stapler03b,key01,candle08b,celery,tableknife02,pen04b,blankImage,blankImage,blankImage,blankImage,blankImage,blankImage,lightswitch01,,,,,,,,,,,,0,93,93,18,,,,,,,,,,,,,,,,,,,,,,,,,,,,,,,,,,,681.813263899996,682.813106000016,682.796400399995,683.392220299982,683.392220299982,None,684.7824476999813,None,left,7.749993200006429,684.7824476999813,None,692.5564823999885,None,right,0.13593700004275888,692.5564823999885,None,,,,,,,,,,,,,,,,,,,,,,,PPT33,001,2022-07-05_15h31.02.716,ABstudy,2022.1.4,59.97202904909842,
AB,Lag5_T1A_T2P,5,A,P,7,12,6,5,17,Rollerblade,Did you see the Rollerblade?,0.12,0.016,JPG\,binoculars01b,cymbal,pizza,candy,paintbrush01,sponge01,grape01,thermometer02b,speaker04,lemon02,lipstick02a,stapler03b,candle01,8ball,plate01b,pen04b,blankImage,lion,,,,,,,,,,,,0,94,94,266,,,,,,,,,,,,,,,,,,,,,,,,,,,,,,,,,,,692.7316625000094,693.7409231999773,693.7242891999776,694.3039163000067,694.3039163000067,None,696.2705742000253,None,right,0.8368716000113636,696.2705742000253,None,697.1417387999827,None,left,0.21353439998347312,697.1417387999827,None,,,,,,,,,,,,,,,,,,,,,,,PPT33,001,2022-07-05_15h31.02.716,ABstudy,2022.1.4,59.97202904909842,
AB,Lag5_T1P_T2P,5,P,P,5,10,4,4,14,Christmas lights,Did you see the Christmas lights?,0.12,0.016,JPG\,binoculars01b,cymbal,pizza,candy,christmaslights,sponge01,grape01,thermometer02b,speaker04,stapler03a,lipstick02a,strawberry,candle01,tambourine02,blankImage,blankImage,blankImage,christmaslights,,,,,,,,,,,,0,95,95,168,,,,,,,,,,,,,,,,,,,,,,,,,,,,,,,,,,,697.3920229999931,698.395084400021,698.3784130000276,698.9811070999713,698.9811070999713,None,700.6424078000127,None,left,0.8726622000103816,700.6424078000127,None,701.5321194999851,None,left,0.246748200035654,701.5321194999851,None,,,,,,,,,,,,,,,,,,,,,,,PPT33,001,2022-07-05_15h31.02.716,ABstudy,2022.1.4,59.97202904909842,
AB,Lag1_T1P_T2P,1,P,P,8,9,7,4,13,kite,Did you see the kite?,0.12,0.016,JPG\,scissors01,balloon01b,eraser,feather03a,banana01,candle01,measuringcup01,kite,stapler04b,strawberry,pear01,carrot01,globe,blankImage,blankImage,blankImage,blankImage,kite,,,,,,,,,,,,0,96,96,17,,,,,,,,,,,,,,,,,,,,,,,,,,,,,,,,,,,701.8554237000062,702.866577400011,702.8503823999781,703.4145827000029,703.4145827000029,None,705.0128133000107,None,left,1.094313699984923,705.0128133000107,None,706.136265499983,None,left,0.2917588999844156,706.136265499983,None,,,,,,,,,,,,,,,,,,,,,,,PPT33,001,2022-07-05_15h31.02.716,ABstudy,2022.1.4,59.97202904909842,
AB,Lag1_T1A_T2P,1,A,P,7,8,6,3,11,Fox,Did you see the Fox?,0.12,0.016,JPG\,toaster01,chain01,sponge01,baseball01a,carrot01,belt02a,book01b,stapler03b,grape01,brick,celery,blankImage,blankImage,blankImage,blankImage,blankImage,blankImage,fingerprint,,,,,,,,,,,,0,97,97,234,,,,,,,,,,,,,,,,,,,,,,,,,,,,,,,,,,,706.4576282000053,707.4709004000179,707.4542455999763,708.0606623999774,708.0606623999774,None,709.3868383999798,None,right,1.2328178000170738,709.3868383999798,None,710.6407204999705,None,left,0.39490630000364035,710.6407204999705,None,,,,,,,,,,,,,,,,,,,,,,,PPT33,001,2022-07-05_15h31.02.716,ABstudy,2022.1.4,59.97202904909842,
AB,Lag5_T1P_T2A,5,P,A,5,10,4,4,14,Ship in a bottle,Did you see the Ship in a bottle?,0.12,0.016,JPG\,sewingmachine01a,thermometer02b,sponge01,eraser,shipinabottle,fork03c,pizza,violin,belt02a,medal02b,pineapple01a,tennisball01b,dandelion,cauliflower01,blankImage,blankImage,blankImage,shipinabottle,,,,,,,,,,,,0,98,98,208,,,,,,,,,,,,,,,,,,,,,,,,,,,,,,,,,,,711.0611286999774,712.0766463999753,712.0608708999935,712.7420583000057,712.6563925999799,None,714.3474154999712,None,left,1.1277513999957591,714.3474154999712,None,715.5100079000113,None,right,0.31825969996862113,715.5100079000113,None,,,,,,,,,,,,,,,,,,,,,,,PPT33,001,2022-07-05_15h31.02.716,ABstudy,2022.1.4,59.97202904909842,
AB,Lag5_T1P_T2A,5,P,A,8,13,7,3,16,leaf blower,Did you see the leaf blower?,0.12,0.016,JPG\,printer02,leaf02a,cauliflower01,sock01a,brownsugar,paintbrush01,pig,leafblower01,belt02a,shirt02,key01,match,cigarette,scissors01,envelope03a,blueberry01,blankImage,leafblower01,,,,,,,,,,,,0,99,99,216,,,,,,,,,,,,,,,,,,,,,,,,,,,,,,,,,,,715.8609543999773,716.8651679999894,716.8323677000008,717.4339142999961,717.4339142999961,None,719.3462979000178,None,right,1.0568253999808803,719.3462979000178,None,720.4341408999753,None,right,0.28882509999675676,720.4341408999753,None,,,,,,,,,,,,,,,,,,,,,,,PPT33,001,2022-07-05_15h31.02.716,ABstudy,2022.1.4,59.97202904909842,
AB,Lag5_T1A_T2P,5,A,P,5,10,4,4,14,mail box,Did you see the mail box?,0.12,0.016,JPG\,button01,celery,birthdaycandle,apple07,avocado01,tennisball01b,dice05a,teabag,clock01a,stapler05,tomato01,scarf,orange,battery02b,blankImage,blankImage,blankImage,jeep,,,,,,,,,,,,0,100,100,263,,,,,,,,,,,,,,,,,,,,,,,,,,,,,,,,,,,720.7575474000187,721.7695390000008,721.7538731999812,722.3516926000011,722.3516926000011,None,724.0456604000065,None,right,1.4625650999951176,724.0456604000065,None,725.5388852999895,None,left,0.5125842000124976,725.5388852999895,None,,,,,,,,,,,,,,,,,,,,,,,PPT33,001,2022-07-05_15h31.02.716,ABstudy,2022.1.4,59.97202904909842,
AB,Lag1_T1A_T2A,1,A,A,8,9,7,3,12,punching bag,Did you see the punching bag?,0.12,0.016,JPG\,key01,apple07,ring01,leaf02a,hammer01,tableknife02,violin,sponge01,baseball01a,thermometer02b,celery,calculator01,blankImage,blankImage,blankImage,blankImage,blankImage,bathtub,,,,,,,,,,,,0,101,101,291,,,,,,,,,,,,,,,,,,,,,,,,,,,,,,,,,,,726.0762043999857,727.0904656000203,727.0737326000235,727.7603888000012,727.673209599976,None,729.1284530999837,None,right,0.8505296999937855,729.1284530999837,None,730.010340799985,None,right,0.4811418000026606,730.010340799985,None,,,,,,,,,,,,,,,,,,,,,,,PPT33,001,2022-07-05_15h31.02.716,ABstudy,2022.1.4,59.97202904909842,
AB,Lag5_T1P_T2P,5,P,P,8,13,7,4,17,cruise ship,Did you see the cruise ship?,0.12,0.016,JPG\,measuringcup01,dice05a,greenolive,lipstick02a,feather03a,balloon01b,lighter01,cruiseship,carrot01,plate01b,microscope,brick,stapler05,screw02,speaker04,spoon01,blankImage,cruiseship,,,,,,,,,,,,0,102,102,105,,,,,,,,,,,,,,,,,,,,,,,,,,,,,,,,,,,730.5177302000229,731.5284608000075,731.5117225999711,732.1110193000059,732.1110193000059,None,733.9960390999913,None,left,0.5516089000157081,733.9960390999913,None,734.5650828999933,None,left,0.2939089999999851,734.5650828999933,None,,,,,,,,,,,,,,,,,,,,,,,PPT33,001,2022-07-05_15h31.02.716,ABstudy,2022.1.4,59.97202904909842,
AB,Lag1_T1P_T2P,1,P,P,7,8,6,3,11,tree,Did you see the tree?,0.12,0.016,JPG\,pear01,clock01a,cymbal,match,ashtray01,globe,tree,stapler03b,lemon02,pen04b,dice05a,blankImage,blankImage,blankImage,blankImage,blankImage,blankImage,tree,,,,,,,,,,,,0,103,103,51,,,,,,,,,,,,,,,,,,,,,,,,,,,,,,,,,,,734.8847512999782,735.8993897999753,735.8660819000215,736.4546979999868,736.4546979999868,None,737.798057499982,None,left,1.1895931999897584,737.798057499982,None,739.0193161999923,None,left,0.4328712999704294,739.0193161999923,None,,,,,,,,,,,,,,,,,,,,,,,PPT33,001,2022-07-05_15h31.02.716,ABstudy,2022.1.4,59.97202904909842,
AB,Lag5_T1P_T2P,5,P,P,5,10,4,5,15,sword fish,Did you see the sword fish?,0.12,0.016,JPG\,scissors01,balloon01b,eraser,feather03a,swordfish,candle01,measuringcup01,calculator01,thermometer02b,stapler04b,pear01,carrot01,globe,baseball01a,leaf02a,blankImage,blankImage,swordfish,,,,,,,,,,,,0,104,104,160,,,,,,,,,,,,,,,,,,,,,,,,,,,,,,,,,,,739.4827462999965,740.5036547000054,740.4560952999745,741.097147100023,741.0270335000241,None,742.8825719999732,None,left,0.6408111999626271,742.8825719999732,None,743.5401847999892,None,left,0.2307647000416182,743.5401847999892,None,,,,,,,,,,,,,,,,,,,,,,,PPT33,001,2022-07-05_15h31.02.716,ABstudy,2022.1.4,59.97202904909842,
AB,Lag5_T1P_T2P,5,P,P,8,13,7,5,18,sock,Did you see the sock?,0.12,0.016,JPG\,thermometer02b,avocado01,scissors01,tennisball01b,medal02b,banana01,strawberry,athleticsock,potato02b,pineapple01a,microscope,cymbal,stapler03b,celery,garlic01a,sunglasses04,blankImage,athleticsock,,,,,,,,,,,,0,105,105,141,,,,,,,,,,,,,,,,,,,,,,,,,,,,,,,,,,,743.8485533000203,744.8582104999805,744.8415616999846,745.4213663000264,745.4213663000264,None,747.349250899977,None,left,0.7258845000178553,747.349250899977,None,748.1092078000074,None,left,0.21412690001307055,748.1092078000074,None,,,,,,,,,,,,,,,,,,,,,,,PPT33,001,2022-07-05_15h31.02.716,ABstudy,2022.1.4,59.97202904909842,
AB,Lag1_T1P_T2P,1,P,P,8,9,7,4,13,Hula hoop,Did you see the Hula hoop?,0.12,0.016,JPG\,brownsugar,candle01,match,printer02,broom01,balloon01b,belt02a,hulahoop,stapler04b,feather03a,rice,mushroom01,pencil01,blankImage,blankImage,blankImage,blankImage,hulahoop,,,,,,,,,,,,0,106,106,64,,,,,,,,,,,,,,,,,,,,,,,,,,,,,,,,,,,748.3639806999709,749.363622099976,749.3479977999814,749.8642101999721,749.8479914999916,None,751.5124466000125,None,left,0.5463397999992594,751.5124466000125,None,752.0831060999772,None,left,0.3523728000000119,752.0831060999772,None,,,,,,,,,,,,,,,,,,,,,,,PPT33,001,2022-07-05_15h31.02.716,ABstudy,2022.1.4,59.97202904909842,
AB,Lag1_T1P_T2P,1,P,P,8,9,7,3,12,Sheep,Did you see the Sheep?,0.12,0.016,JPG\,celery,orange,scissors01,balloon01b,avocado01,printer02,mushroom01,sheep,stapler03b,dice05a,ashtray01,fan,blankImage,blankImage,blankImage,blankImage,blankImage,sheep,,,,,,,,,,,,0,107,107,71,,,,,,,,,,,,,,,,,,,,,,,,,,,,,,,,,,,752.4725252999924,753.4836838999763,753.466975599993,754.0381666999892,754.0381666999892,None,755.5672128999722,None,left,0.7718444000347517,755.5672128999722,None,756.3699397000019,None,right,0.9052413000026718,756.3699397000019,None,,,,,,,,,,,,,,,,,,,,,,,PPT33,001,2022-07-05_15h31.02.716,ABstudy,2022.1.4,59.97202904909842,
AB,Lag1_T1P_T2P,1,P,P,8,9,7,3,12,Wheelchair,Did you see the Wheelchair?,0.12,0.016,JPG\,cigarette,pig,banana01,strawberry,clock01a,plate01b,spoon01,wheelchair,stapler03b,pineapple01a,chain01,paintbrush01,blankImage,blankImage,blankImage,blankImage,blankImage,wheelchair,,,,,,,,,,,,0,108,108,27,,,,,,,,,,,,,,,,,,,,,,,,,,,,,,,,,,,757.308061800024,758.3217866999912,758.304996300023,758.8901920000208,758.8901920000208,None,760.3465292999754,None,left,1.9365428000455722,760.3465292999754,None,762.3092497999896,None,left,0.23000229999888688,762.3092497999896,None,,,,,,,,,,,,,,,,,,,,,,,PPT33,001,2022-07-05_15h31.02.716,ABstudy,2022.1.4,59.97202904909842,
AB,Lag1_T1P_T2P,1,P,P,8,9,7,3,12,Fire hydrant,Did you see the Fire hydrant?,0.12,0.016,JPG\,foosballtable,candy,envelope03a,microscope,pencil01,leaf02a,scissors01,firehydrant,stapler01,dandelion,pineapple01a,hammer01,blankImage,blankImage,blankImage,blankImage,blankImage,firehydrant,,,,,,,,,,,,0,109,109,83,,,,,,,,,,,,,,,,,,,,,,,,,,,,,,,,,,,762.5663101000246,763.5767986999708,763.5600518999854,764.0607714999933,764.0607714999933,None,765.586772300012,None,left,0.7045439999783412,765.586772300012,None,766.3128860999714,None,right,0.26643800002057105,766.3128860999714,None,,,,,,,,,,,,,,,,,,,,,,,PPT33,001,2022-07-05_15h31.02.716,ABstudy,2022.1.4,59.97202904909842,
AB,Lag5_T1P_T2P,5,P,P,8,13,7,4,17,butterfly,Did you see the butterfly?,0.12,0.016,JPG\,speaker04,sewingmachine01a,eraser,violin,globe,belt02a,sunglasses04,butterfly,cd,greenolive,alligator,pear01,stapler01,screwdriver04b,banana01,cigarette,blankImage,butterfly,,,,,,,,,,,,0,110,110,126,,,,,,,,,,,,,,,,,,,,,,,,,,,,,,,,,,,766.6002860000008,767.6141751999967,767.5974823000142,768.1849903999828,768.1849903999828,None,770.0829451999743,None,left,0.8482306000078097,770.0829451999743,None,770.9521798000205,None,right,0.4028231999836862,770.9521798000205,None,,,,,,,,,,,,,,,,,,,,,,,PPT33,001,2022-07-05_15h31.02.716,ABstudy,2022.1.4,59.97202904909842,
AB,Lag1_T1A_T2P,1,A,P,6,7,5,3,10,Jellyfish,Did you see the Jellyfish?,0.12,0.016,JPG\,thermometer02b,avocado01,scissors01,tennisball01b,medal02b,banana01,stapler01,cigarette,potato02b,pineapple01a,blankImage,blankImage,blankImage,blankImage,blankImage,blankImage,blankImage,firehydrant,,,,,,,,,,,,0,111,111,255,,,,,,,,,,,,,,,,,,,,,,,,,,,,,,,,,,,771.391979100008,772.4022358999937,772.3855883000069,772.9940448999987,772.9940448999987,None,774.200823799998,None,left,0.7220773000153713,774.200823799998,None,774.9548438999918,None,left,1.9198208999587223,774.9548438999918,None,,,,,,,,,,,,,,,,,,,,,,,PPT33,001,2022-07-05_15h31.02.716,ABstudy,2022.1.4,59.97202904909842,
AB,Lag5_T1P_T2P,5,P,P,7,12,6,4,16,Wolf,Did you see the Wolf?,0.12,0.016,JPG\,brick,eraser,cucumber,ashtray01,thermometer02b,binoculars01b,greywolf,screwdriver04b,grape01,brownsugar,battery02b,stapler03b,dice05a,avocado01,birthdaycandle,watch02a,blankImage,greywolf,,,,,,,,,,,,0,112,112,89,,,,,,,,,,,,,,,,,,,,,,,,,,,,,,,,,,,776.9561919000116,777.9578664000146,777.9412119999761,778.5398856999818,778.5398856999818,None,780.4495405000052,None,left,0.6174624999985099,780.4495405000052,None,781.0946332999738,None,left,0.14031759998761117,781.0946332999738,None,,,,,,,,,,,,,,,,,,,,,,,PPT33,001,2022-07-05_15h31.02.716,ABstudy,2022.1.4,59.97202904909842,
AB,Lag1_T1P_T2P,1,P,P,6,7,5,4,11,bowling pin,Did you see the bowling pin?,0.12,0.016,JPG\,strawberry,leaf02a,clock04,candle01,avocado01,bowlingpin,stapler03a,brownsugar,ring01,lemon02,fork03c,blankImage,blankImage,blankImage,blankImage,blankImage,blankImage,bowlingpin,,,,,,,,,,,,0,113,113,8,,,,,,,,,,,,,,,,,,,,,,,,,,,,,,,,,,,781.268149600015,782.2790988999768,782.2623699000105,782.8369293999858,782.8369293999858,None,784.22000999999,None,left,0.9994331999914721,784.22000999999,None,785.248357000004,None,right,0.914948399993591,785.248357000004,None,,,,,,,,,,,,,,,,,,,,,,,PPT33,001,2022-07-05_15h31.02.716,ABstudy,2022.1.4,59.97202904909842,
AB,Lag5_T1P_T2P,5,P,P,7,12,6,5,17,elbow,Did you see the elbow?,0.12,0.016,JPG\,candle01,fork03c,plate01b,violin,computerkeyboard02,candy,elbow,paintbrush01,cherry01,sock01a,teabag,stapler01,cd,lighter01,book01b,tennisball01b,blankImage,elbow,,,,,,,,,,,,0,114,114,87,,,,,,,,,,,,,,,,,,,,,,,,,,,,,,,,,,,786.1848686999874,787.2003149000229,787.1669657999882,787.7436598999775,787.7436598999775,None,789.7617288000183,None,left,2.5137179999728687,789.7617288000183,None,792.3060182000045,None,left,0.4415160999633372,792.3060182000045,None,,,,,,,,,,,,,,,,,,,,,,,PPT33,001,2022-07-05_15h31.02.716,ABstudy,2022.1.4,59.97202904909842,
AB,Lag1_T1P_T2A,1,P,A,6,7,5,4,11,Road,Did you see the Road?,0.12,0.016,JPG\,pizza,printer02,medal02b,spoon01,grape01,road02,belt02a,watermelon01,celery,battery02b,screw02,blankImage,blankImage,blankImage,blankImage,blankImage,blankImage,road02,,,,,,,,,,,,0,115,115,174,,,,,,,,,,,,,,,,,,,,,,,,,,,,,,,,,,,792.7786372000119,793.7900430000154,793.7751344999997,794.3918123000185,794.3918123000185,None,795.7465571999783,None,right,3.7924831000273116,795.7465571999783,None,799.5626164000132,None,left,4.27222519996576,799.5626164000132,None,,,,,,,,,,,,,,,,,,,,,,,PPT33,001,2022-07-05_15h31.02.716,ABstudy,2022.1.4,59.97202904909842,
AB,Lag1_T1P_T2A,1,P,A,7,8,6,3,11,Armadillo,Did you see the Armadillo?,0.12,0.016,JPG\,clock01a,cellphone,toaster01,toothbrush03b,cauliflower01,microscope,armadillo,paintbrush01,scarf,clock04,sponge01,blankImage,blankImage,blankImage,blankImage,blankImage,blankImage,armadillo,,,,,,,,,,,,0,116,116,180,,,,,,,,,,,,,,,,,,,,,,,,,,,,,,,,,,,803.8700873000198,804.884597599972,804.8512795999995,805.4343668000074,805.4343668000074,None,806.7931081000133,None,left,1.2819346000324003,806.7931081000133,None,808.1050001999829,None,right,0.394215099979192,808.1050001999829,None,,,,,,,,,,,,,,,,,,,,,,,PPT33,001,2022-07-05_15h31.02.716,ABstudy,2022.1.4,59.97202904909842,
AB,Lag1_T1P_T2P,1,P,P,7,8,6,3,11,Sand castle,Did you see the Sand castle?,0.12,0.016,JPG\,thermometer02b,candle08b,comb02a,toothbrush03b,brick,computerkeyboard02,sandcastle,stapler06,candy,birthdaycandle,clock04,blankImage,blankImage,blankImage,blankImage,blankImage,blankImage,sandcastle,,,,,,,,,,,,0,117,117,70,,,,,,,,,,,,,,,,,,,,,,,,,,,,,,,,,,,808.5290097999969,809.5395041999873,809.5228792999987,810.0937468999764,810.0937468999764,None,811.53738970001,None,right,1.6016880999668501,811.53738970001,None,813.1595500999829,None,left,0.30751089996192604,813.1595500999829,None,,,,,,,,,,,,,,,,,,,,,,,PPT33,001,2022-07-05_15h31.02.716,ABstudy,2022.1.4,59.97202904909842,
AB,Lag5_T1A_T2P,5,A,P,5,10,4,3,13,License Plate,Did you see the License Plate?,0.12,0.016,JPG\,tomato01,pen04b,shirt02,carrot01,lamp04a,key01,pizza,avocado01,sewingmachine01a,stapler06,iron01b,book01b,chain01,blankImage,blankImage,blankImage,blankImage,porcupine,,,,,,,,,,,,0,118,118,270,,,,,,,,,,,,,,,,,,,,,,,,,,,,,,,,,,,813.4971170999925,814.5109130999772,814.494189399993,815.0833760999958,815.0833760999958,None,816.6656335999724,None,right,1.001616700028535,816.6656335999724,None,817.6973388000042,None,right,0.3537544999853708,817.6973388000042,None,,,,,,,,,,,,,,,,,,,,,,,PPT33,001,2022-07-05_15h31.02.716,ABstudy,2022.1.4,59.97202904909842,
AB,Lag5_T1A_T2A,5,A,A,7,12,6,4,16,boxing glove,Did you see the boxing glove?,0.12,0.016,JPG\,cherry01,cymbal,envelope03a,foosballtable,shirt02,cellphone,sewingmachine01a,candle08b,battery02b,apple07,pencil01,screwdriver04b,strawberry,sunglasses04,feather03a,rice,blankImage,lollipop04,,,,,,,,,,,,0,119,119,296,,,,,,,,,,,,,,,,,,,,,,,,,,,,,,,,,,,818.083812900004,819.0987164999824,819.0653301000129,819.658407800016,819.658407800016,None,821.6475387000246,None,right,1.5482986999559216,821.6475387000246,None,823.2194453999982,None,right,0.9754225999931805,823.2194453999982,None,,,,,,,,,,,,,,,,,,,,,,,PPT33,001,2022-07-05_15h31.02.716,ABstudy,2022.1.4,59.97202904909842,
AB,Lag5_T1A_T2P,5,A,P,7,12,6,3,15,hockey puck,Did you see the hockey puck?,0.12,0.016,JPG\,toiletpaper01a,lipstick02a,potato02b,speaker04,globe,strawberry,carrot01,plate01b,sock01a,candle08b,pen04b,stapler04b,foosballtable,brick,pear01,blankImage,blankImage,frisbee,,,,,,,,,,,,0,120,120,260,,,,,,,,,,,,,,,,,,,,,,,,,,,,,,,,,,,824.2232099000248,825.2380922000157,825.2047120999778,825.79349489999,825.79349489999,None,827.6213435999816,None,right,1.0696228999877349,827.6213435999816,None,828.7082653000252,None,right,0.6947038000216708,828.7082653000252,None,,,,,,,,,,,,,,,,,,,,,,,PPT33,001,2022-07-05_15h31.02.716,ABstudy,2022.1.4,59.97202904909842,
AB,Lag5_T1P_T2P,5,P,P,8,13,7,4,17,trumpet,Did you see the trumpet?,0.12,0.016,JPG\,toaster01,scarf,toiletpaper01a,calculator01,violin,sewingmachine01a,fan,trumpet,strawberry,balloon01b,brownsugar,eraser,stapler01,rice,ring01,shirt02,blankImage,trumpet,,,,,,,,,,,,0,121,121,145,,,,,,,,,,,,,,,,,,,,,,,,,,,,,,,,,,,829.4291983000003,830.4434060999774,830.4100248999894,831.0176964999991,831.0176964999991,None,832.9995936999912,None,left,0.5471655000001192,832.9995936999912,None,833.564439299982,None,left,0.32631799997761846,833.564439299982,None,,,,,,,,,,,,,,,,,,,,,,,PPT33,001,2022-07-05_15h31.02.716,ABstudy,2022.1.4,59.97202904909842,
AB,Lag5_T1P_T2P,5,P,P,6,11,5,4,15,Bumper car,Did you see the Bumper car?,0.12,0.016,JPG\,eraser,measuringcup01,chain01,birthdaycandle,ring01,bumpercar,weight04a,pig,cauliflower01,celery,stapler01,sunglasses04,greenolive,candy,strawberry,blankImage,blankImage,bumpercar,,,,,,,,,,,,0,122,122,104,,,,,,,,,,,,,,,,,,,,,,,,,,,,,,,,,,,833.9204614000046,834.9313570000231,834.9146071000141,835.4994452000246,835.4994452000246,None,837.3922970999847,None,left,0.507923299970571,837.3922970999847,None,837.9174194000079,None,left,0.14106300001731142,837.9174194000079,None,,,,,,,,,,,,,,,,,,,,,,,PPT33,001,2022-07-05_15h31.02.716,ABstudy,2022.1.4,59.97202904909842,
AB,Lag5_T1P_T2A,5,P,A,7,12,6,5,17,shoulder,Did you see the shoulder?,0.12,0.016,JPG\,battery02b,sunglasses04,pear01,tennisball01b,clock01a,speaker04,shoulder,spoon01,alligator,pineapple01a,avocado01,grape01,blueberry01,violin,strawberry,sock01a,blankImage,shoulder,,,,,,,,,,,,0,123,123,224,,,,,,,,,,,,,,,,,,,,,,,,,,,,,,,,,,,838.086539299984,839.1019860000233,839.0686341000255,839.6624820000143,839.6624820000143,None,841.6499776999699,None,left,0.9768086999538355,841.6499776999699,None,842.6555337000173,None,right,0.515288700000383,842.6555337000173,None,,,,,,,,,,,,,,,,,,,,,,,PPT33,001,2022-07-05_15h31.02.716,ABstudy,2022.1.4,59.97202904909842,
AB,Lag1_T1P_T2P,1,P,P,8,9,7,5,14,lawn mower,Did you see the lawn mower?,0.12,0.016,JPG\,battery02b,sunglasses04,pear01,tennisball01b,clock01a,speaker04,binoculars01b,lawnmower,stapler05,pineapple01a,avocado01,grape01,blueberry01,violin,blankImage,blankImage,blankImage,lawnmower,,,,,,,,,,,,0,124,124,46,,,,,,,,,,,,,,,,,,,,,,,,,,,,,,,,,,,843.1926824999973,844.2074108999805,844.1741142999963,844.7720515999827,844.7720515999827,None,846.5273598000058,None,left,1.3075409000157379,846.5273598000058,None,847.8606659999932,None,right,0.6462166999699548,847.8606659999932,None,,,,,,,,,,,,,,,,,,,,,,,PPT33,001,2022-07-05_15h31.02.716,ABstudy,2022.1.4,59.97202904909842,
AB,Lag1_T1P_T2P,1,P,P,7,8,6,3,11,Moose,Did you see the Moose?,0.12,0.016,JPG\,sock01a,spoon01,alligator,comb02a,printer02,medal02b,moose,stapler03a,greenolive,computerkeyboard02,cauliflower01,blankImage,blankImage,blankImage,blankImage,blankImage,blankImage,moose,,,,,,,,,,,,0,125,125,67,,,,,,,,,,,,,,,,,,,,,,,,,,,,,,,,,,,848.5303390999907,849.5457424999913,849.5123773000087,850.0971419999842,850.0971419999842,None,851.4443067000248,None,left,1.7823578999959864,851.4443067000248,None,853.2500473000109,None,left,0.31236209999769926,853.2500473000109,None,,,,,,,,,,,,,,,,,,,,,,,PPT33,001,2022-07-05_15h31.02.716,ABstudy,2022.1.4,59.97202904909842,
AB,Lag1_T1P_T2P,1,P,P,8,9,7,4,13,peacock,Did you see the peacock?,0.12,0.016,JPG\,hammer01,sponge01,toaster01,cherry01,feather03a,mushroom01,measuringcup01,peacock,stapler03a,brick,clock04,medal02b,teabag,blankImage,blankImage,blankImage,blankImage,peacock,,,,,,,,,,,,0,126,126,68,,,,,,,,,,,,,,,,,,,,,,,,,,,,,,,,,,,853.5890820000204,854.6009797999868,854.5842518999707,855.1654708000133,855.1654708000133,None,856.8321394000086,None,left,0.9946651999489404,856.8321394000086,None,857.8537140000262,None,right,0.3011093999957666,857.8537140000262,None,,,,,,,,,,,,,,,,,,,,,,,PPT33,001,2022-07-05_15h31.02.716,ABstudy,2022.1.4,59.97202904909842,
AB,Lag1_T1P_T2A,1,P,A,5,6,4,5,11,Moon,Did you see the Moon?,0.12,0.016,JPG\,lamp04a,broccoli01a,alligator,garlic01a,moon,brownsugar,avocado01,ring01,leaf02a,cellphone,medal02b,blankImage,blankImage,blankImage,blankImage,blankImage,blankImage,moon,,,,,,,,,,,,0,127,127,190,,,,,,,,,,,,,,,,,,,,,,,,,,,,,,,,,,,858.1813208999811,859.1893167999806,859.173557800008,859.7657741999719,859.7657741999719,None,861.1246639000019,None,right,1.2781612999970093,861.1246639000019,None,862.425159299979,None,right,1.1864934000186622,862.425159299979,None,,,,,,,,,,,,,,,,,,,,,,,PPT33,001,2022-07-05_15h31.02.716,ABstudy,2022.1.4,59.97202904909842,
AB,Lag5_T1P_T2P,5,P,P,6,11,5,4,15,punching bag,Did you see the punching bag?,0.12,0.016,JPG\,foosballtable,cigarette,pen04b,birthdaycandle,hammer01,punchingbag,binoculars01b,chain01,potato02b,cauliflower01,stapler04b,ashtray01,scarf,cellphone,calculator01,blankImage,blankImage,punchingbag,,,,,,,,,,,,0,128,128,156,,,,,,,,,,,,,,,,,,,,,,,,,,,,,,,,,,,863.6470543000032,864.6608132999972,864.6440917999716,865.1449502999894,865.1449502999894,None,867.0717504000058,None,right,1.676172899955418,867.0717504000058,None,868.7652610000223,None,right,0.5979475000058301,868.7652610000223,None,,,,,,,,,,,,,,,,,,,,,,,PPT33,001,2022-07-05_15h31.02.716,ABstudy,2022.1.4,59.97202904909842,
AB,Lag5_T1A_T2P,5,A,P,7,12,6,4,16,scooter,Did you see the scooter?,0.12,0.016,JPG\,cigarette,pig,banana01,strawberry,clock01a,plate01b,spoon01,blueberry01,battery02b,pineapple01a,chain01,stapler05,candy,pen04b,teabag,birthdaycandle,blankImage,1nose,,,,,,,,,,,,0,129,129,268,,,,,,,,,,,,,,,,,,,,,,,,,,,,,,,,,,,869.3865753000136,870.399936700007,870.383247299993,870.9571313000051,870.9571313000051,None,872.8198352999752,None,right,0.9763964000158012,872.8198352999752,None,873.8203031999874,None,left,0.405914600007236,873.8203031999874,None,,,,,,,,,,,,,,,,,,,,,,,PPT33,001,2022-07-05_15h31.02.716,ABstudy,2022.1.4,59.97202904909842,
AB,Lag1_T1P_T2P,1,P,P,6,7,5,5,12,Snowboard,Did you see the Snowboard?,0.12,0.016,JPG\,belt02a,measuringcup01,spoon01,chain01,greenolive,snowboard,stapler01,onion,fan,strawberry,candle01,broom01,blankImage,blankImage,blankImage,blankImage,blankImage,snowboard,,,,,,,,,,,,0,130,130,49,,,,,,,,,,,,,,,,,,,,,,,,,,,,,,,,,,,874.3157125000143,875.3213870999753,875.3046496000024,875.8910979999928,875.8910979999928,None,877.3256230999832,None,right,0.701988100016024,877.3256230999832,None,878.0576935000136,None,left,0.30526930000633,878.0576935000136,None,,,,,,,,,,,,,,,,,,,,,,,PPT33,001,2022-07-05_15h31.02.716,ABstudy,2022.1.4,59.97202904909842,
AB,Lag1_T1A_T2P,1,A,P,8,9,7,3,12,seal,Did you see the seal?,0.12,0.016,JPG\,dice05a,watch02a,pig,lighter01,button01,strawberry,paintbrush01,microscope,stapler03a,pen04b,feather03a,8ball,blankImage,blankImage,blankImage,blankImage,blankImage,hockeystick,,,,,,,,,,,,0,131,131,235,,,,,,,,,,,,,,,,,,,,,,,,,,,,,,,,,,,878.3950717999833,879.4089673000271,879.3755314999726,879.9592844999861,879.9592844999861,None,881.4497310000006,None,right,0.6328432000009343,881.4497310000006,None,882.1114802000229,None,right,0.25216699996963143,882.1114802000229,None,,,,,,,,,,,,,,,,,,,,,,,PPT33,001,2022-07-05_15h31.02.716,ABstudy,2022.1.4,59.97202904909842,
AB,Lag1_T1P_T2P,1,P,P,6,7,5,5,12,bat,Did you see the bat?,0.12,0.016,JPG\,comb02a,key01,medal02b,battery02b,lighter01,bat,stapler05,sandal,pig,cellphone,computerkeyboard02,calculator01,blankImage,blankImage,blankImage,blankImage,blankImage,bat,,,,,,,,,,,,0,132,132,35,,,,,,,,,,,,,,,,,,,,,,,,,,,,,,,,,,,882.45135019999,883.4628097999957,883.4460419000243,884.0176695000264,884.0176695000264,None,885.438341000001,None,right,1.05314679996809,885.438341000001,None,886.5162087000208,None,left,0.27820379997137934,886.5162087000208,None,,,,,,,,,,,,,,,,,,,,,,,PPT33,001,2022-07-05_15h31.02.716,ABstudy,2022.1.4,59.97202904909842,
AB,Lag5_T1P_T2P,5,P,P,7,12,6,3,15,marble,Did you see the marble?,0.12,0.016,JPG\,cigarette,ashtray01,envelope03a,sandal,chain01,cucumber,marble,tomato01,dandelion,candle01,lemon02,stapler03b,potato02b,cymbal,clock01a,blankImage,blankImage,marble,,,,,,,,,,,,0,133,133,146,,,,,,,,,,,,,,,,,,,,,,,,,,,,,,,,,,,886.8203905000119,887.8340141000226,887.8172390999971,888.4028454999789,888.4028454999789,None,890.2818781000096,None,left,0.6811071999836713,890.2818781000096,None,890.9874656000175,None,right,0.34338759997626767,890.9874656000175,None,,,,,,,,,,,,,,,,,,,,,,,PPT33,001,2022-07-05_15h31.02.716,ABstudy,2022.1.4,59.97202904909842,
AB,Lag5_T1P_T2P,5,P,P,5,10,4,5,15,Bee,Did you see the Bee?,0.12,0.016,JPG\,fork03c,dandelion,dice05a,belt02a,honeybee,watch02a,key01,globe,eraser,stapler03a,greenolive,shirt02,candle08b,cigarette,garlic01a,blankImage,blankImage,honeybee,,,,,,,,,,,,0,134,134,149,,,,,,,,,,,,,,,,,,,,,,,,,,,,,,,,,,,891.3591348999762,892.371940299985,892.3551686999854,892.9575854999712,892.9575854999712,None,894.8113156000036,None,left,0.6717207999899983,894.8113156000036,None,895.5085886999732,None,left,0.23019770003156736,895.5085886999732,None,,,,,,,,,,,,,,,,,,,,,,,PPT33,001,2022-07-05_15h31.02.716,ABstudy,2022.1.4,59.97202904909842,
AB,Lag5_T1P_T2A,5,P,A,7,12,6,5,17,flower,Did you see the flower?,0.12,0.016,JPG\,cellphone,tomato01,comb02a,candy,celery,cucumber,craneflower,fan,feather03a,pen04b,lemon02,blueberry01,plate01b,cherry01,baseball01a,candle08b,blankImage,craneflower,,,,,,,,,,,,0,135,135,211,,,,,,,,,,,,,,,,,,,,,,,,,,,,,,,,,,,895.7599796999712,896.7597864000127,896.7430655999924,897.3268508000183,897.3268508000183,None,899.2775556999841,None,right,2.9013244000379927,899.2775556999841,None,902.1982063999749,None,right,0.3406436999794096,902.1982063999749,None,,,,,,,,,,,,,,,,,,,,,,,PPT33,001,2022-07-05_15h31.02.716,ABstudy,2022.1.4,59.97202904909842,
AB,Lag1_T1A_T2P,1,A,P,5,6,4,3,9,chimney,Did you see the chimney?,0.12,0.016,JPG\,cucumber,sponge01,alligator,pear01,ashtray01,stapler06,clock04,battery02b,fork03c,blankImage,blankImage,blankImage,blankImage,blankImage,blankImage,blankImage,blankImage,trophy01,,,,,,,,,,,,0,136,136,246,,,,,,,,,,,,,,,,,,,,,,,,,,,,,,,,,,,902.5674360999838,903.5829116000095,903.5495355000021,904.1540936999954,904.1540936999954,None,905.2633322000038,None,right,1.3634237999795005,905.2633322000038,None,906.6537360000075,None,left,0.30902709998190403,906.6537360000075,None,,,,,,,,,,,,,,,,,,,,,,,PPT33,001,2022-07-05_15h31.02.716,ABstudy,2022.1.4,59.97202904909842,
AB,Lag1_T1A_T2P,1,A,P,5,6,4,5,11,rake,Did you see the rake?,0.12,0.016,JPG\,candy,brownsugar,dice05a,cd,sock01a,stapler01,button01,potato02b,feather03a,grape01,dandelion,blankImage,blankImage,blankImage,blankImage,blankImage,blankImage,greatwhiteshark,,,,,,,,,,,,0,137,137,256,,,,,,,,,,,,,,,,,,,,,,,,,,,,,,,,,,,906.992739600013,908.0044223999721,907.987634500023,908.5758776000002,908.5758776000002,None,909.8755300000194,None,right,1.4633494000299834,909.8755300000194,None,911.3576553000021,None,left,0.26909660000819713,911.3576553000021,None,,,,,,,,,,,,,,,,,,,,,,,PPT33,001,2022-07-05_15h31.02.716,ABstudy,2022.1.4,59.97202904909842,
