TrialType,CondType,Lag,T1_PA,T2_PA,T1Loc,T2Loc,PreDistractor,PostDistractor,TotalImg,cueWord,T1cue,StimLength,isi,PicFolder,Img1,Img2,Img3,Img4,Img5,Img6,Img7,Img8,Img9,Img10,Img11,Img12,Img13,Img14,Img15,Img16,Img17,T1_Identity,ImageType,T1PA,T2PA,Picture,Image,FullPathName,FilePath,Practice_Trials.thisRepN,Practice_Trials.thisTrialN,Practice_Trials.thisN,Practice_Trials.thisIndex,trials.thisRepN,trials.thisTrialN,trials.thisN,trials.thisIndex,trials_2.thisRepN,trials_2.thisTrialN,trials_2.thisN,trials_2.thisIndex,Practice_Ins.started,Practice_Ins.stopped,End_Prac_Ins.keys,End_Prac_Ins.rt,End_Prac_Ins.started,End_Prac_Ins.stopped,text_2.started,text_2.stopped,Fixation_Cross_2.started,Fixation_Cross_2.stopped,Rapid_Image_Present_2.started,Rapid_Image_Present_2.stopped,key_resp.keys,key_resp.rt,key_resp.started,key_resp.stopped,T1Response_2.started,T1Response_2.stopped,T2Response_2.started,T2Response_2.stopped,key_resp_4.keys,key_resp_4.rt,key_resp_4.started,key_resp_4.stopped,text.started,text.stopped,End_Instructions.keys,End_Instructions.rt,End_Instructions.started,End_Instructions.stopped,text_5.started,text_5.stopped,FC.started,FC.stopped,Rapid_Image_Present.started,Rapid_Image_Present.stopped,T1Response.started,T1Response.stopped,key_resp_2.keys,key_resp_2.rt,key_resp_2.started,key_resp_2.stopped,T2Response.started,T2Response.stopped,key_resp_3.keys,key_resp_3.rt,key_resp_3.started,key_resp_3.stopped,text_6.started,text_6.stopped,Fin_ins.keys,Fin_ins.rt,Fin_ins.started,Fin_ins.stopped,MemTest.started,MemTest.stopped,MemResponse.keys,MemResponse.rt,MemResponse.started,MemResponse.stopped,Display.started,Display.stopped,text_7.started,text_7.stopped,endOfExperiment.started,endOfExperiment.stopped,key_resp_5.keys,key_resp_5.rt,key_resp_5.started,key_resp_5.stopped,participant,session,date,expName,psychopyVersion,frameRate,
,,,,,,,,,,,,,,,,,,,,,,,,,,,,,,,,,,,,,,,,,,,,,,,,,,,,12.25630339991767,None,space,19.912786400062032,12.25630339991767,None,,,,,,,,,,,,,,,,,,,,,,,,,,,,,,,,,,,,,,,,,,,,,,,,,,,,,,,,,,,,,,,,,PPT37,001,2022-07-06_12h28.12.803,ABstudy,2022.1.4,59.955632814952125,
AB_Prac,Lag1_T1P_T2A,1,P,A,5,6,4,5,11,Webcam,Did you see the Webcam?,0.5,0.016,JPG\,pictureframe04,binder03b,straw,adjustablewrench01b,webcam,cane,hairdryer02a,icepack,kitchenscale01a,lifejacket,piggybank,blankImage,blankImage,blankImage,blankImage,blankImage,blankImage,webcam,,,,,,,,0,0,0,6,,,,,,,,,,,,,,,32.25284849992022,33.25355629995465,33.23686689999886,33.86716089991387,33.86716089991387,None,left,1.2478757000062615,39.3767292998964,None,39.3767292998964,None,40.64428849995602,None,right,2.092081299982965,40.64428849995602,None,,,,,,,,,,,,,,,,,,,,,,,,,,,,,,,,,,,,,,,,,,,,,,,PPT37,001,2022-07-06_12h28.12.803,ABstudy,2022.1.4,59.955632814952125,
AB_Prac,Lag1_T1P_T2P,1,P,P,6,7,5,5,12,triangle,Did you see the triangle?,0.5,0.016,JPG\,ginger,mousetrap,plum01,slipper01b,dropper01,triangle,stapler04b,pants,raspberry01,rope03,scale01a,vase01,blankImage,blankImage,blankImage,blankImage,blankImage,triangle,,,,,,,,0,1,1,1,,,,,,,,,,,,,,,42.82360849995166,43.831274900003336,43.814491499913856,44.39231339993421,44.39231339993421,None,left,0.7724405999761075,50.36550419998821,None,50.36550419998821,None,51.155012799892575,None,left,0.6531363999238238,51.155012799892575,None,,,,,,,,,,,,,,,,,,,,,,,,,,,,,,,,,,,,,,,,,,,,,,,PPT37,001,2022-07-06_12h28.12.803,ABstudy,2022.1.4,59.955632814952125,
AB_Prac,Lag5_T1P_T2A,5,P,A,6,11,5,5,16,bread,Did you see the bread?,0.5,0.016,JPG\,cleaver01,clipboard,dustpan,hikingshoe01,notebook03a,baguette01,playingcard,pliers02b,styrofoamcup,rollingpin01a,swimgoggles,wineglass01,fryingpan02a,safetypin,syringe01,thimble,blankImage,baguette01,,,,,,,,0,2,2,8,,,,,,,,,,,,,,,51.8416361999698,52.85658909997437,52.82315529999323,53.42317549989093,53.42317549989093,None,left,0.9103885000804439,61.41058299993165,None,61.41058299993165,None,62.349476799950935,None,right,0.3315671000164002,62.349476799950935,None,,,,,,,,,,,,,,,,,,,,,,,,,,,,,,,,,,,,,,,,,,,,,,,PPT37,001,2022-07-06_12h28.12.803,ABstudy,2022.1.4,59.955632814952125,
AB_Prac,Lag5_T1P_T2P,5,P,P,5,10,4,5,15,Vulture,Did you see the Vulture?,0.5,0.016,JPG\,shorts01,toast,ramekin01,bib,vulture,cracker02,date,glasses01a,hat03b,stapler01,measuringtape01,nail,pill,drum01,starfish01,blankImage,blankImage,vulture,,,,,,,,0,3,3,3,,,,,,,,,,,,,,,62.71409489994403,63.7171701999614,63.70051019999664,64.29213239997625,64.29213239997625,None,left,0.8689571999711916,71.89183029998094,None,71.89183029998094,None,72.79062220000196,None,right,0.41015420004259795,72.79062220000196,None,,,,,,,,,,,,,,,,,,,,,,,,,,,,,,,,,,,,,,,,,,,,,,,PPT37,001,2022-07-06_12h28.12.803,ABstudy,2022.1.4,59.955632814952125,
AB_Prac,Lag1_T1P_T2P,1,P,P,8,9,7,5,14,Tennis racket,Did you see the Tennis racket?,0.5,0.016,JPG\,coconut,computermouse06,croissant01,deodorant02a,pillow01a,peanut01,boot02b,tennisracket,stapler03b,crayon,eggplant,marker01a,plant01,radish01,blankImage,blankImage,blankImage,tennisracket,,,,,,,,0,4,4,0,,,,,,,,,,,,,,,73.2421817999566,74.2448983999202,74.22913689992856,74.82581149996258,74.82581149996258,None,left,0.5624563000164926,81.80604549997952,None,81.80604549997952,None,82.38581619993784,None,left,0.34384180000051856,82.38581619993784,None,,,,,,,,,,,,,,,,,,,,,,,,,,,,,,,,,,,,,,,,,,,,,,,PPT37,001,2022-07-06_12h28.12.803,ABstudy,2022.1.4,59.955632814952125,
AB_Prac,Lag5_T1A_T2P,5,A,P,6,11,5,3,14,dog,Did you see the dog?,0.5,0.016,JPG\,bucket01a,doorlock,cookiecutter,fireextinguisher01,gluestick,highlighter02b,sportbag,spraybottle01,suitcase,thread02,stapler05,walnut01c,icecubetray01a,vikingmask01b,blankImage,blankImage,blankImage,None,,,,,,,,0,5,5,9,,,,,,,,,,,,,,,82.75508019991685,83.75435979990289,83.73855809995439,84.3451307999203,84.3451307999203,None,right,1.3128976000007242,91.33518829999957,None,91.33518829999957,None,92.67935559991747,None,left,1.0092771999770775,92.67935559991747,None,,,,,,,,,,,,,,,,,,,,,,,,,,,,,,,,,,,,,,,,,,,,,,,PPT37,001,2022-07-06_12h28.12.803,ABstudy,2022.1.4,59.955632814952125,
AB_Prac,Lag5_T1A_T2A,5,A,A,6,11,5,5,16,castle,Did you see the castle?,0.5,0.016,JPG\,tape02a,englishmuffin,flask,ladle02a,monitor,peach01,keychain,squeegee01b,telephone01b,whisk,walkman,syringe02,baguette01,coaster,box01a,coffeepot03a,blankImage,None,,,,,,,,0,6,6,11,,,,,,,,,,,,,,,93.71589969994966,94.73141989996657,94.69809859991074,95.34432959998958,95.34432959998958,None,right,1.0714472000254318,103.34575569990557,None,103.34575569990557,None,104.44139619998168,None,right,0.4145921999588609,104.44139619998168,None,,,,,,,,,,,,,,,,,,,,,,,,,,,,,,,,,,,,,,,,,,,,,,,PPT37,001,2022-07-06_12h28.12.803,ABstudy,2022.1.4,59.955632814952125,
AB_Prac,Lag5_T1P_T2A,5,P,A,6,11,5,5,16,Wheat,Did you see the Wheat?,0.5,0.016,JPG\,bottleopener01,dentalfloss03b,cooler01,icecreamcone01a,paperclip01b,wheat,pencilsharpener02a,plasticbasket01a,toycar04,apricot,hairclip02,rock01a,honeydewmelon,antenna,blackberry,cardboardbox,blankImage,wheat,,,,,,,,0,7,7,7,,,,,,,,,,,,,,,104.87488159991335,105.87610279989894,105.85930219991133,106.47887499991339,106.47887499991339,None,left,1.206475800019689,114.57040109997615,None,114.57040109997615,None,115.80271009996068,None,right,0.3660529999760911,115.80271009996068,None,,,,,,,,,,,,,,,,,,,,,,,,,,,,,,,,,,,,,,,,,,,,,,,PPT37,001,2022-07-06_12h28.12.803,ABstudy,2022.1.4,59.955632814952125,
AB_Prac,Lag1_T1A_T2A,1,A,A,8,9,7,3,12,Moose,Did you see the Moose?,0.5,0.016,JPG\,clothespin03b,corkscrew03a,drillbit03a,fusilli03a,needlenosepliers01,perfume01a,pistachio,scrubbingbrush05b,spatula03,toothpastetube,hinge,toydinosaur,blankImage,blankImage,blankImage,blankImage,blankImage,None,,,,,,,,0,8,8,10,,,,,,,,,,,,,,,116.19823479990009,117.20413279999048,117.17059519991744,117.73725179990288,117.73725179990288,None,right,1.3957414000760764,123.78082869993523,None,123.78082869993523,None,125.19507539994083,None,right,0.8613058000337332,125.19507539994083,None,,,,,,,,,,,,,,,,,,,,,,,,,,,,,,,,,,,,,,,,,,,,,,,PPT37,001,2022-07-06_12h28.12.803,ABstudy,2022.1.4,59.955632814952125,
AB_Prac,Lag5_T1P_T2P,5,P,P,5,10,4,5,15,washing machine,Did you see the washing machine?,0.5,0.016,JPG\,waterbottle03,wheel01,flashlight02b,zucchini01,washingmachine,headphones02b,nutcracker01,paintroller01,paperclip03,stapler06,ribbon04,electricrazor,bottleofredwine01,pitabread,pot02a,blankImage,blankImage,washingmachine,,,,,,,,0,9,9,4,,,,,,,,,,,,,,,126.08541969989892,127.09722329990473,127.08046059997287,127.73951359989587,127.73951359989587,None,right,0.9670492999721318,135.16222339996602,None,135.16222339996602,None,136.15617799991742,None,left,0.37245709996204823,136.15617799991742,None,,,,,,,,,,,,,,,,,,,,,,,,,,,,,,,,,,,,,,,,,,,,,,,PPT37,001,2022-07-06_12h28.12.803,ABstudy,2022.1.4,59.955632814952125,
AB_Prac,Lag1_T1P_T2A,1,P,A,8,9,7,5,14,flower,Did you see the flower?,0.5,0.016,JPG\,razor01,axe01,binder03b,bowl01,kettle01,lettuce,lime,plasticflower01b,mitten04,pencilcase01,plunger02,strawbasket01,toothpick02,wallet02a,blankImage,blankImage,blankImage,plasticflower01b,,,,,,,,0,10,10,5,,,,,,,,,,,,,,,136.55898139998317,137.5742981999647,137.5409737000009,138.12616829993203,138.12616829993203,None,left,1.828296999912709,145.18817409989424,None,145.18817409989424,None,147.0338436999591,None,right,0.6939717000350356,147.0338436999591,None,,,,,,,,,,,,,,,,,,,,,,,,,,,,,,,,,,,,,,,,,,,,,,,PPT37,001,2022-07-06_12h28.12.803,ABstudy,2022.1.4,59.955632814952125,
AB_Prac,Lag5_T1P_T2P,5,P,P,7,12,6,3,15,vacuum,Did you see the vacuum?,0.5,0.016,JPG\,fork07b,lightbulb01,manshoe,saw02b,shoelace,soap03a,vacuumcleaner01,floortile01,necklace,doll,cabbage,stapler03a,hanger02a,laptop01a,nailpolish03b,blankImage,blankImage,vacuumcleaner01,,,,,,,,0,11,11,2,,,,,,,,,,,,,,,147.7587725999765,148.76876309991349,148.75213609996717,149.32320679991972,149.32320679991972,None,left,1.0433218999532983,156.89293329999782,None,156.89293329999782,None,157.96409569995012,None,left,0.3329128000186756,157.96409569995012,None,,,,,,,,,,,,,,,,,,,,,,,,,,,,,,,,,,,,,,,,,,,,,,,PPT37,001,2022-07-06_12h28.12.803,ABstudy,2022.1.4,59.955632814952125,
,,,,,,,,,,,,,,,,,,,,,,,,,,,,,,,,,,,,,,,,,,,,,,,,,,,,,,,,,,,,,,,,,,,,,,,,,,,,158.33179259998724,None,space,29.036430799984373,158.33179259998724,None,,,,,,,,,,,,,,,,,,,,,,,,,,,,,,,,,,,,,,,,,PPT37,001,2022-07-06_12h28.12.803,ABstudy,2022.1.4,59.955632814952125,
AB,Lag1_T1A_T2P,1,A,P,5,6,4,4,10,Bull,Did you see the Bull?,0.12,0.016,JPG\,celery,pencil01,fan,foosballtable,iron01b,stapler01,potato02b,fork03c,button01,pineapple01a,blankImage,blankImage,blankImage,blankImage,blankImage,blankImage,blankImage,spiderweb,,,,,,,,,,,,0,0,0,244,,,,,,,,,,,,,,,,,,,,,,,,,,,,,,,,,,,188.07050669996534,189.07532770000398,189.05862209992483,189.6822141999146,189.6822141999146,None,190.85035039996728,None,right,1.366025700001046,190.85035039996728,None,192.24757499992847,None,left,0.8485293000703678,192.24757499992847,None,,,,,,,,,,,,,,,,,,,,,,,PPT37,001,2022-07-06_12h28.12.803,ABstudy,2022.1.4,59.955632814952125,
AB,Lag1_T1P_T2P,1,P,P,6,7,5,4,11,bowling pin,Did you see the bowling pin?,0.12,0.016,JPG\,strawberry,leaf02a,clock04,candle01,avocado01,bowlingpin,stapler03a,brownsugar,ring01,lemon02,fork03c,blankImage,blankImage,blankImage,blankImage,blankImage,blankImage,bowlingpin,,,,,,,,,,,,0,1,1,8,,,,,,,,,,,,,,,,,,,,,,,,,,,,,,,,,,,193.12342799990438,194.13038779993076,194.1137352999067,194.70239190000575,194.70239190000575,None,196.01189989992417,None,left,0.8847346999682486,196.01189989992417,None,196.91687859990634,None,right,0.5954665000317618,196.91687859990634,None,,,,,,,,,,,,,,,,,,,,,,,PPT37,001,2022-07-06_12h28.12.803,ABstudy,2022.1.4,59.955632814952125,
AB,Lag1_T1A_T2P,1,A,P,6,7,5,5,12,Ostrich,Did you see the Ostrich?,0.12,0.016,JPG\,thermometer02b,candle08b,comb02a,toothbrush03b,brick,computerkeyboard02,stapler05,pineapple01a,candy,birthdaycandle,clock04,hairclip03,blankImage,blankImage,blankImage,blankImage,blankImage,discoball,,,,,,,,,,,,0,2,2,232,,,,,,,,,,,,,,,,,,,,,,,,,,,,,,,,,,,197.5419943999732,198.5520251999842,198.53617039998062,199.11343919998035,199.11343919998035,None,200.56128979998175,None,right,1.5904828999191523,200.56128979998175,None,202.17298919998575,None,left,0.3946439999854192,202.17298919998575,None,,,,,,,,,,,,,,,,,,,,,,,PPT37,001,2022-07-06_12h28.12.803,ABstudy,2022.1.4,59.955632814952125,
AB,Lag1_T1P_T2A,1,P,A,8,9,7,5,14,Ceiling fan,Did you see the Ceiling fan?,0.12,0.016,JPG\,cucumber,sponge01,alligator,pear01,ashtray01,hammer01,clock04,ceilingfan01,fork03c,binoculars01b,mushroom01,broccoli01a,leaf02a,acorn,blankImage,blankImage,blankImage,ceilingfan01,,,,,,,,,,,,0,3,3,183,,,,,,,,,,,,,,,,,,,,,,,,,,,,,,,,,,,202.64761969994288,203.65684809989762,203.64016819989774,204.2465857999632,204.2465857999632,None,205.77979989990126,None,left,0.7324604999739677,205.77979989990126,None,206.5429497999139,None,left,0.2812465000897646,206.5429497999139,None,,,,,,,,,,,,,,,,,,,,,,,PPT37,001,2022-07-06_12h28.12.803,ABstudy,2022.1.4,59.955632814952125,
AB,Lag5_T1P_T2P,5,P,P,8,13,7,5,18,sock,Did you see the sock?,0.12,0.016,JPG\,thermometer02b,avocado01,scissors01,tennisball01b,medal02b,banana01,strawberry,athleticsock,potato02b,pineapple01a,microscope,cymbal,stapler03b,celery,garlic01a,sunglasses04,blankImage,athleticsock,,,,,,,,,,,,0,4,4,141,,,,,,,,,,,,,,,,,,,,,,,,,,,,,,,,,,,206.84640599996783,207.86091019993182,207.82745319989044,208.42147099995054,208.42147099995054,None,210.3939226999646,None,left,0.726620199973695,210.3939226999646,None,211.14971669996157,None,left,0.5786027000285685,211.14971669996157,None,,,,,,,,,,,,,,,,,,,,,,,PPT37,001,2022-07-06_12h28.12.803,ABstudy,2022.1.4,59.955632814952125,
AB,Lag1_T1P_T2P,1,P,P,7,8,6,5,13,dream catcher,Did you see the dream catcher?,0.12,0.016,JPG\,clock01a,cellphone,toaster01,toothbrush03b,cauliflower01,microscope,dreamcatcher,stapler05,scarf,clock04,sponge01,iron01b,watch02a,blankImage,blankImage,blankImage,blankImage,dreamcatcher,,,,,,,,,,,,0,5,5,81,,,,,,,,,,,,,,,,,,,,,,,,,,,,,,,,,,,211.75080319994595,212.7494773999788,212.7337987999199,213.3595446998952,213.3595446998952,None,214.88366279995535,None,left,0.6607191000366583,214.88366279995535,None,215.56953869992867,None,left,0.27804460003972054,215.56953869992867,None,,,,,,,,,,,,,,,,,,,,,,,PPT37,001,2022-07-06_12h28.12.803,ABstudy,2022.1.4,59.955632814952125,
AB,Lag1_T1P_T2P,1,P,P,5,6,4,5,11,candy cane,Did you see the candy cane?,0.12,0.016,JPG\,shirt02,match,screw02,foosballtable,candycane01a,stapler04b,sewingmachine01a,watch02a,button01,comb02a,dice05a,blankImage,blankImage,blankImage,blankImage,blankImage,blankImage,candycane01a,,,,,,,,,,,,0,6,6,9,,,,,,,,,,,,,,,,,,,,,,,,,,,,,,,,,,,215.8751564999111,216.88696339994203,216.87136819993611,217.5398970999522,217.45646289992146,None,218.79172489990015,None,left,0.6172700000461191,218.79172489990015,None,219.4415148999542,None,left,0.2793227001093328,219.4415148999542,None,,,,,,,,,,,,,,,,,,,,,,,PPT37,001,2022-07-06_12h28.12.803,ABstudy,2022.1.4,59.955632814952125,
AB,Lag5_T1A_T2P,5,A,P,5,10,4,4,14,Chefs hat,Did you see the Chefs hat?,0.12,0.016,JPG\,candle01,fork03c,plate01b,violin,computerkeyboard02,candy,calculator01,paintbrush01,cherry01,stapler06,teabag,banana01,cd,lighter01,blankImage,blankImage,blankImage,horseshoe,,,,,,,,,,,,0,7,7,278,,,,,,,,,,,,,,,,,,,,,,,,,,,,,,,,,,,219.74904639995657,220.75684209994506,220.74012919992674,221.30980029993225,221.30980029993225,None,223.00322439998854,None,right,1.4687090999213979,223.00322439998854,None,224.49389519996475,None,left,0.5937568000517786,224.49389519996475,None,,,,,,,,,,,,,,,,,,,,,,,PPT37,001,2022-07-06_12h28.12.803,ABstudy,2022.1.4,59.955632814952125,
AB,Lag5_T1P_T2P,5,P,P,8,13,7,4,17,lamp,Did you see the lamp?,0.12,0.016,JPG\,globe,broccoli01a,binoculars01b,iron01b,avocado01,dandelion,pineapple01a,floorlamp,fan,pizza,celery,blueberry01,stapler01,dice05a,watermelon01,candy,blankImage,floorlamp,,,,,,,,,,,,0,8,8,99,,,,,,,,,,,,,,,,,,,,,,,,,,,,,,,,,,,225.11347849993035,226.12892129993998,226.0957372999983,226.68211469997186,226.68211469997186,None,228.6400774999056,None,left,0.4803627000655979,228.6400774999056,None,229.14981199998874,None,left,0.22575290000531822,229.14981199998874,None,,,,,,,,,,,,,,,,,,,,,,,PPT37,001,2022-07-06_12h28.12.803,ABstudy,2022.1.4,59.955632814952125,
AB,Lag5_T1P_T2A,5,P,A,8,13,7,3,16,Shelves,Did you see the Shelves?,0.12,0.016,JPG\,pineapple01a,leaf02a,grape01,toiletpaper01a,match,tennisball01b,spoon01,shelves,pig,measuringcup01,ring01,lemon02,dice05a,pizza,potato02b,eraser,blankImage,shelves,,,,,,,,,,,,0,9,9,222,,,,,,,,,,,,,,,,,,,,,,,,,,,,,,,,,,,229.40743769996334,230.41682139993645,230.40010359999724,230.97403249994386,230.97403249994386,None,232.9001047000056,None,left,0.8363563000457361,232.9001047000056,None,233.75349999999162,None,right,0.3660543999867514,233.75349999999162,None,,,,,,,,,,,,,,,,,,,,,,,PPT37,001,2022-07-06_12h28.12.803,ABstudy,2022.1.4,59.955632814952125,
AB,Lag1_T1P_T2P,1,P,P,5,6,4,5,11,Guitar case,Did you see the Guitar case?,0.12,0.016,JPG\,broccoli01a,scissors01,toothbrush03b,foosballtable,guitarcase,stapler05,hammer01,toiletpaper01a,cd,garlic01a,carrot01,blankImage,blankImage,blankImage,blankImage,blankImage,blankImage,guitarcase,,,,,,,,,,,,0,10,10,14,,,,,,,,,,,,,,,,,,,,,,,,,,,,,,,,,,,234.1988269999856,235.2042206999613,235.1881744998973,235.78358569997363,235.78358569997363,None,237.04040649998933,None,left,1.0639195999829099,237.04040649998933,None,238.12415569997393,None,right,0.42008650000207126,238.12415569997393,None,,,,,,,,,,,,,,,,,,,,,,,PPT37,001,2022-07-06_12h28.12.803,ABstudy,2022.1.4,59.955632814952125,
AB,Lag5_T1P_T2A,5,P,A,6,11,5,4,15,Spear,Did you see the Spear?,0.12,0.016,JPG\,belt02a,measuringcup01,spoon01,chain01,greenolive,spear02,computerkeyboard02,onion,fan,strawberry,candle01,broom01,binoculars01b,ashtray01,pingpongpaddle01c,blankImage,blankImage,spear02,,,,,,,,,,,,0,11,11,227,,,,,,,,,,,,,,,,,,,,,,,,,,,,,,,,,,,238.5768201999599,239.5922462999588,239.55888129991945,240.1886556999525,240.1886556999525,None,242.05801119992975,None,left,1.0536396000534296,242.05801119992975,None,243.13254969997797,None,right,0.4917191000422463,243.13254969997797,None,,,,,,,,,,,,,,,,,,,,,,,PPT37,001,2022-07-06_12h28.12.803,ABstudy,2022.1.4,59.955632814952125,
AB,Lag5_T1A_T2P,5,A,P,7,12,6,5,17,funnel,Did you see the funnel?,0.12,0.016,JPG\,iron01b,orange,birthdaycandle,potato02b,cauliflower01,pencil01,key01,candle08b,celery,tableknife02,pen04b,stapler04b,ring01,rice,lemon02,tomato01,blankImage,englishcucumber,,,,,,,,,,,,0,12,12,259,,,,,,,,,,,,,,,,,,,,,,,,,,,,,,,,,,,243.64857269998174,244.66398189996835,244.63055969995912,245.2122230998939,245.2122230998939,None,247.22235539997928,None,right,0.9939677999354899,247.22235539997928,None,248.234543700004,None,left,0.25358589994721115,248.234543700004,None,,,,,,,,,,,,,,,,,,,,,,,PPT37,001,2022-07-06_12h28.12.803,ABstudy,2022.1.4,59.955632814952125,
AB,Lag5_T1A_T2A,5,A,A,7,12,6,4,16,Eye,Did you see the Eye?,0.12,0.016,JPG\,rice,watermelon01,tableknife02,scarf,computerkeyboard02,cauliflower01,battery02b,binoculars01b,book01b,sandal,sponge01,microscope,tomato01,fork03c,thermometer02b,apple07,blankImage,scooter,,,,,,,,,,,,0,13,13,302,,,,,,,,,,,,,,,,,,,,,,,,,,,,,,,,,,,248.52594159997534,249.53576919995248,249.51891689992044,250.1142431999324,250.1142431999324,None,252.0235515999375,None,right,2.016361500020139,252.0235515999375,None,254.05810689995997,None,left,1.2378121999790892,254.05810689995997,None,,,,,,,,,,,,,,,,,,,,,,,PPT37,001,2022-07-06_12h28.12.803,ABstudy,2022.1.4,59.955632814952125,
AB,Lag1_T1A_T2P,1,A,P,6,7,5,3,10,Jellyfish,Did you see the Jellyfish?,0.12,0.016,JPG\,thermometer02b,avocado01,scissors01,tennisball01b,medal02b,banana01,stapler01,cigarette,potato02b,pineapple01a,blankImage,blankImage,blankImage,blankImage,blankImage,blankImage,blankImage,firehydrant,,,,,,,,,,,,0,14,14,255,,,,,,,,,,,,,,,,,,,,,,,,,,,,,,,,,,,255.33509720000438,256.3421026999131,256.32540979993064,256.9046445999993,256.9046445999993,None,258.1550840999698,None,right,1.0524767999304458,258.1550840999698,None,259.2288296999177,None,left,0.9712750000180677,259.2288296999177,None,,,,,,,,,,,,,,,,,,,,,,,PPT37,001,2022-07-06_12h28.12.803,ABstudy,2022.1.4,59.955632814952125,
AB,Lag5_T1P_T2P,5,P,P,6,11,5,5,16,motorcycle,Did you see the motorcycle?,0.12,0.016,JPG\,cucumber,ring01,lipstick02a,microscope,violin,motorcycle,celery,lighter01,cherry01,sewingmachine01a,stapler04b,key01,binoculars01b,medal02b,watermelon01,dice05a,blankImage,motorcycle,,,,,,,,,,,,0,15,15,93,,,,,,,,,,,,,,,,,,,,,,,,,,,,,,,,,,,260.233841399895,261.2477835000027,261.2320712999208,261.84517049998976,261.84517049998976,None,263.73624719993677,None,left,0.8564307000488043,263.73624719993677,None,264.6175149999326,None,left,0.2946633000392467,264.6175149999326,None,,,,,,,,,,,,,,,,,,,,,,,PPT37,001,2022-07-06_12h28.12.803,ABstudy,2022.1.4,59.955632814952125,
AB,Lag5_T1A_T2A,5,A,A,5,10,4,5,15,flower,Did you see the flower?,0.12,0.016,JPG\,clock01a,cellphone,toaster01,toothbrush03b,cauliflower01,microscope,comb02a,paintbrush01,scarf,clock04,sponge01,iron01b,watch02a,celery,ring01,blankImage,blankImage,stepladder,,,,,,,,,,,,0,16,16,303,,,,,,,,,,,,,,,,,,,,,,,,,,,,,,,,,,,264.93976039998233,265.95216389989946,265.9355043999385,266.5155508999014,266.5155508999014,None,268.3288751998916,None,right,1.2386509999632835,268.3288751998916,None,269.5887973998906,None,left,0.7150779999792576,269.5887973998906,None,,,,,,,,,,,,,,,,,,,,,,,PPT37,001,2022-07-06_12h28.12.803,ABstudy,2022.1.4,59.955632814952125,
AB,Lag5_T1P_T2P,5,P,P,8,13,7,3,16,church,Did you see the church?,0.12,0.016,JPG\,clock01a,cellphone,toaster01,toothbrush03b,cauliflower01,microscope,comb02a,church,scarf,clock04,sponge01,iron01b,stapler06,celery,ring01,ashtray01,blankImage,church,,,,,,,,,,,,0,17,17,129,,,,,,,,,,,,,,,,,,,,,,,,,,,,,,,,,,,270.3256137999706,271.34057999996,271.30721099989023,271.9133338999236,271.9133338999236,None,273.82122719998006,None,left,0.8349661999382079,273.82122719998006,None,274.6776023999555,None,left,0.3298768999520689,274.6776023999555,None,,,,,,,,,,,,,,,,,,,,,,,PPT37,001,2022-07-06_12h28.12.803,ABstudy,2022.1.4,59.955632814952125,
AB,Lag5_T1A_T2P,5,A,P,5,10,4,4,14,duck,Did you see the duck?,0.12,0.016,JPG\,brick,eraser,cucumber,ashtray01,thermometer02b,binoculars01b,lipstick02a,screwdriver04b,grape01,stapler04b,battery02b,iron01b,dice05a,avocado01,blankImage,blankImage,blankImage,barrel01,,,,,,,,,,,,0,18,18,280,,,,,,,,,,,,,,,,,,,,,,,,,,,,,,,,,,,275.0305368999252,276.0454607999418,276.01200039999094,276.62250159995165,276.62250159995165,None,278.28789369994774,None,right,1.0479250999633223,278.28789369994774,None,279.3651426999131,None,left,0.40265780000481755,279.3651426999131,None,,,,,,,,,,,,,,,,,,,,,,,PPT37,001,2022-07-06_12h28.12.803,ABstudy,2022.1.4,59.955632814952125,
AB,Lag5_T1P_T2P,5,P,P,6,11,5,4,15,boxing glove,Did you see the boxing glove?,0.12,0.016,JPG\,button01,celery,birthdaycandle,apple07,avocado01,boxingglove01,dice05a,teabag,clock01a,feather03a,stapler06,scarf,orange,battery02b,thermometer02b,blankImage,blankImage,boxingglove01,,,,,,,,,,,,0,19,19,165,,,,,,,,,,,,,,,,,,,,,,,,,,,,,,,,,,,279.8047774999868,280.8166648999322,280.8003395999549,281.37848409998696,281.37848409998696,None,283.25301969994325,None,left,0.4598557000281289,283.25301969994325,None,283.736603599973,None,left,0.23106999997980893,283.736603599973,None,,,,,,,,,,,,,,,,,,,,,,,PPT37,001,2022-07-06_12h28.12.803,ABstudy,2022.1.4,59.955632814952125,
AB,Lag1_T1P_T2P,1,P,P,8,9,7,3,12,apron,Did you see the apron?,0.12,0.016,JPG\,avocado01,tambourine02,match,cauliflower01,paintbrush01,clock01a,pig,apron,stapler03a,cellphone,watch02a,pear01,blankImage,blankImage,blankImage,blankImage,blankImage,apron,,,,,,,,,,,,0,20,20,32,,,,,,,,,,,,,,,,,,,,,,,,,,,,,,,,,,,283.99234359990805,285.00385749991983,284.9877634999575,285.5667448999593,285.5667448999593,None,287.0493434999371,None,left,0.7104876000666991,287.0493434999371,None,287.7929991999408,None,right,0.20666339993476868,287.7929991999408,None,,,,,,,,,,,,,,,,,,,,,,,PPT37,001,2022-07-06_12h28.12.803,ABstudy,2022.1.4,59.955632814952125,
AB,Lag5_T1P_T2P,5,P,P,5,10,4,4,14,duck,Did you see the duck?,0.12,0.016,JPG\,celery,pencil01,fan,foosballtable,duck01,shirt02,potato02b,fork03c,button01,stapler03a,baseball01a,printer02,cauliflower01,dandelion,blankImage,blankImage,blankImage,duck01,,,,,,,,,,,,0,21,21,130,,,,,,,,,,,,,,,,,,,,,,,,,,,,,,,,,,,288.103515899973,289.10820979997516,289.09159029996954,289.6793226998998,289.6793226998998,None,291.2158974999329,None,left,0.4236966000171378,291.2158974999329,None,291.6617274999153,None,left,0.1941910000750795,291.6617274999153,None,,,,,,,,,,,,,,,,,,,,,,,PPT37,001,2022-07-06_12h28.12.803,ABstudy,2022.1.4,59.955632814952125,
AB,Lag1_T1P_T2A,1,P,A,7,8,6,5,13,Well,Did you see the Well?,0.12,0.016,JPG\,leaf02a,apple07,cd,pineapple01a,envelope03a,paintbrush01,well,acorn,rice,feather03a,lemon02,balloon01b,avocado01,blankImage,blankImage,blankImage,blankImage,well,,,,,,,,,,,,0,22,22,178,,,,,,,,,,,,,,,,,,,,,,,,,,,,,,,,,,,291.8827149999561,292.8952501999447,292.87882379989605,293.4481441999087,293.4481441999087,None,295.1245391999837,None,left,0.9235342999454588,295.1245391999837,None,296.0664234999567,None,right,0.16561040002852678,296.0664234999567,None,,,,,,,,,,,,,,,,,,,,,,,PPT37,001,2022-07-06_12h28.12.803,ABstudy,2022.1.4,59.955632814952125,
AB,Lag1_T1A_T2P,1,A,P,6,7,5,5,12,Piano,Did you see the Piano?,0.12,0.016,JPG\,toiletpaper01a,mushroom01,medal02b,sandal,rice,cd,stapler01,pizza,candle08b,garlic01a,toaster01,belt02a,blankImage,blankImage,blankImage,blankImage,blankImage,moose,,,,,,,,,,,,0,23,23,239,,,,,,,,,,,,,,,,,,,,,,,,,,,,,,,,,,,296.2594837999204,297.26616769994143,297.2495116000064,297.8364354999503,297.8364354999503,None,299.2725828998955,None,right,0.9994695999193937,299.2725828998955,None,300.30270759994164,None,left,0.17721279989928007,300.30270759994164,None,,,,,,,,,,,,,,,,,,,,,,,PPT37,001,2022-07-06_12h28.12.803,ABstudy,2022.1.4,59.955632814952125,
AB,Lag5_T1P_T2A,5,P,A,8,13,7,4,17,Drum set,Did you see the Drum set?,0.12,0.016,JPG\,pencil01,microscope,banana01,computerkeyboard02,celery,cellphone,scissors01,drumset,book01b,onion,dice05a,binoculars01b,baseball01a,iron01b,screw02,fork03c,blankImage,drumset,,,,,,,,,,,,0,24,24,212,,,,,,,,,,,,,,,,,,,,,,,,,,,,,,,,,,,300.5053896999452,301.52062649989966,301.48721279995516,302.08206399995834,302.08206399995834,None,304.05079659994226,None,left,1.0210901000536978,304.05079659994226,None,305.09130979992915,None,right,0.24447180004790425,305.09130979992915,None,,,,,,,,,,,,,,,,,,,,,,,PPT37,001,2022-07-06_12h28.12.803,ABstudy,2022.1.4,59.955632814952125,
AB,Lag5_T1A_T2A,5,A,A,5,10,4,5,15,window,Did you see the window?,0.12,0.016,JPG\,leaf02a,apple07,cd,pineapple01a,envelope03a,paintbrush01,pig,canoftennisballs,rice,feather03a,lemon02,balloon01b,avocado01,calculator01,watermelon01,blankImage,blankImage,saxophone,,,,,,,,,,,,0,25,25,301,,,,,,,,,,,,,,,,,,,,,,,,,,,,,,,,,,,305.3629732999252,306.37558180000633,306.3588471999392,306.93696069996804,306.93696069996804,None,308.74223729991354,None,right,0.8570198999950662,308.74223729991354,None,309.6291540999664,None,right,0.15422339993529022,309.6291540999664,None,,,,,,,,,,,,,,,,,,,,,,,PPT37,001,2022-07-06_12h28.12.803,ABstudy,2022.1.4,59.955632814952125,
AB,Lag1_T1P_T2P,1,P,P,8,9,7,4,13,crab,Did you see the crab?,0.12,0.016,JPG\,candle01,fork03c,plate01b,violin,computerkeyboard02,candy,calculator01,crab01,stapler04b,sock01a,teabag,banana01,cd,blankImage,blankImage,blankImage,blankImage,crab01,,,,,,,,,,,,0,26,26,37,,,,,,,,,,,,,,,,,,,,,,,,,,,,,,,,,,,309.81699859991204,310.8301800999325,310.81350219994783,311.3978043999523,311.3978043999523,None,312.95467639993876,None,left,0.4849915000377223,312.95467639993876,None,313.4656840999378,None,left,0.30995650007389486,313.4656840999378,None,,,,,,,,,,,,,,,,,,,,,,,PPT37,001,2022-07-06_12h28.12.803,ABstudy,2022.1.4,59.955632814952125,
AB,Lag5_T1P_T2P,5,P,P,5,10,4,4,14,bell,Did you see the bell?,0.12,0.016,JPG\,teabag,envelope03a,cellphone,apple07,callbell,orange,brownsugar,book01b,hammer01,stapler03b,toaster01,calculator01,globe,battery02b,blankImage,blankImage,blankImage,callbell,,,,,,,,,,,,0,27,27,147,,,,,,,,,,,,,,,,,,,,,,,,,,,,,,,,,,,313.80171899998095,314.8172876999015,314.78380989993457,315.3569848999614,315.3569848999614,None,317.08759449992795,None,left,1.272487899987027,317.08759449992795,None,318.3902146999026,None,left,0.35372409992851317,318.3902146999026,None,,,,,,,,,,,,,,,,,,,,,,,PPT37,001,2022-07-06_12h28.12.803,ABstudy,2022.1.4,59.955632814952125,
AB,Lag5_T1A_T2P,5,A,P,7,12,6,4,16,flower,Did you see the flower?,0.12,0.016,JPG\,printer02,envelope03a,potato02b,calculator01,tableknife02,cigarette,ashtray01,pig,broom01,greenolive,candle08b,stapler03a,strawberry,candle01,foosballtable,tennisball01b,blankImage,calendar,,,,,,,,,,,,0,28,28,282,,,,,,,,,,,,,,,,,,,,,,,,,,,,,,,,,,,318.78339569992386,319.78942019992974,319.7737054999452,320.41826279996894,320.41826279996894,None,322.29570249991957,None,right,0.767643200000748,322.29570249991957,None,323.0925636999309,None,left,0.41861619998235255,323.0925636999309,None,,,,,,,,,,,,,,,,,,,,,,,PPT37,001,2022-07-06_12h28.12.803,ABstudy,2022.1.4,59.955632814952125,
AB,Lag1_T1P_T2P,1,P,P,5,6,4,3,9,kangaroo,Did you see the kangaroo?,0.12,0.016,JPG\,candle01,shirt02,brick,orange,kangaroo,stapler03a,pizza,thermometer02b,book01b,blankImage,blankImage,blankImage,blankImage,blankImage,blankImage,blankImage,blankImage,kangaroo,,,,,,,,,,,,0,29,29,16,,,,,,,,,,,,,,,,,,,,,,,,,,,,,,,,,,,323.5462350999005,324.56043799989857,324.54359989997465,325.1289753000019,325.1289753000019,None,326.2302989999298,None,left,1.1853830999461934,326.2302989999298,None,327.4464715999784,None,left,0.17736390000209212,327.4464715999784,None,,,,,,,,,,,,,,,,,,,,,,,PPT37,001,2022-07-06_12h28.12.803,ABstudy,2022.1.4,59.955632814952125,
AB,Lag1_T1A_T2P,1,A,P,8,9,7,5,14,clock,Did you see the clock?,0.12,0.016,JPG\,speaker04,sewingmachine01a,eraser,violin,globe,belt02a,sunglasses04,cymbal,stapler01,greenolive,alligator,pear01,watch02a,screwdriver04b,blankImage,blankImage,blankImage,peacock,,,,,,,,,,,,0,30,30,240,,,,,,,,,,,,,,,,,,,,,,,,,,,,,,,,,,,327.6488169999793,328.66430369997397,328.63086909998674,329.2732821999816,329.2732821999816,None,330.90463199990336,None,right,1.5593232000246644,330.90463199990336,None,332.48511999996845,None,left,0.15422939998097718,332.48511999996845,None,,,,,,,,,,,,,,,,,,,,,,,PPT37,001,2022-07-06_12h28.12.803,ABstudy,2022.1.4,59.955632814952125,
AB,Lag1_T1P_T2P,1,P,P,5,6,4,4,10,skateboard,Did you see the skateboard?,0.12,0.016,JPG\,binoculars01b,cymbal,pizza,candy,skateboard,stapler05,grape01,thermometer02b,speaker04,lemon02,blankImage,blankImage,blankImage,blankImage,blankImage,blankImage,blankImage,skateboard,,,,,,,,,,,,0,31,31,25,,,,,,,,,,,,,,,,,,,,,,,,,,,,,,,,,,,332.6723059999058,333.6861807999667,333.669389699935,334.2627061998937,334.2627061998937,None,335.47540529991966,None,left,0.46076769998762757,335.47540529991966,None,335.95525989995804,None,left,0.14891809993423522,335.95525989995804,None,,,,,,,,,,,,,,,,,,,,,,,PPT37,001,2022-07-06_12h28.12.803,ABstudy,2022.1.4,59.955632814952125,
AB,Lag5_T1P_T2P,5,P,P,7,12,6,3,15,lips,Did you see the lips?,0.12,0.016,JPG\,cigarette,fork03c,greenolive,broccoli01a,avocado01,tennisball01b,lip,leaf02a,pig,fan,clock01a,stapler03a,envelope03a,birthdaycandle,teabag,blankImage,blankImage,lip,,,,,,,,,,,,0,32,32,95,,,,,,,,,,,,,,,,,,,,,,,,,,,,,,,,,,,336.1260581999086,337.1396337999031,337.1062047999585,337.6858256999403,337.6858256999403,None,339.517634299933,None,left,0.4434900999767706,339.517634299933,None,339.9951017999556,None,left,0.12487310008145869,339.9951017999556,None,,,,,,,,,,,,,,,,,,,,,,,PPT37,001,2022-07-06_12h28.12.803,ABstudy,2022.1.4,59.955632814952125,
AB,Lag5_T1P_T2P,5,P,P,6,11,5,4,15,fish,Did you see the fish?,0.12,0.016,JPG\,sock01a,spoon01,alligator,comb02a,printer02,rockbass,lamp04a,cymbal,greenolive,computerkeyboard02,stapler03a,scarf,teabag,watermelon01,battery02b,blankImage,blankImage,rockbass,,,,,,,,,,,,0,33,33,115,,,,,,,,,,,,,,,,,,,,,,,,,,,,,,,,,,,340.14654059999157,341.1602166999364,341.1268654000014,341.7253215999808,341.7253215999808,None,343.58250509994105,None,left,0.5928528000367805,343.58250509994105,None,344.1982226999244,None,right,0.1613074999768287,344.1982226999244,None,,,,,,,,,,,,,,,,,,,,,,,PPT37,001,2022-07-06_12h28.12.803,ABstudy,2022.1.4,59.955632814952125,
AB,Lag5_T1P_T2P,5,P,P,5,10,4,5,15,ear,Did you see the ear?,0.12,0.016,JPG\,fork03c,plate01b,toiletpaper01a,greenolive,ear,blueberry01,onion,calculator01,envelope03a,stapler06,book01b,pencil01,sewingmachine01a,brick,watermelon01,blankImage,blankImage,ear,,,,,,,,,,,,0,34,34,107,,,,,,,,,,,,,,,,,,,,,,,,,,,,,,,,,,,344.382855999982,345.3979646998923,345.3646744999569,345.9385834999848,345.9385834999848,None,347.81450569990557,None,left,0.4731464000651613,347.81450569990557,None,348.31816649995744,None,left,0.15365440002642572,348.31816649995744,None,,,,,,,,,,,,,,,,,,,,,,,PPT37,001,2022-07-06_12h28.12.803,ABstudy,2022.1.4,59.955632814952125,
AB,Lag1_T1P_T2P,1,P,P,6,7,5,3,10,drum sticks,Did you see the drum sticks?,0.12,0.016,JPG\,pineapple01a,tennisball01b,computerkeyboard02,feather03a,belt02a,drumstick,stapler03b,blueberry01,medal02b,alligator,blankImage,blankImage,blankImage,blankImage,blankImage,blankImage,blankImage,drumstick,,,,,,,,,,,,0,35,35,61,,,,,,,,,,,,,,,,,,,,,,,,,,,,,,,,,,,348.50615879998077,349.5182165999431,349.5015308998991,350.08474259998184,350.08474259998184,None,351.2601738999365,None,left,0.46750769997015595,351.2601738999365,None,351.7542570999358,None,left,0.12654700002167374,351.7542570999358,None,,,,,,,,,,,,,,,,,,,,,,,PPT37,001,2022-07-06_12h28.12.803,ABstudy,2022.1.4,59.955632814952125,
AB,Lag1_T1A_T2P,1,A,P,8,9,7,3,12,porcupine,Did you see the porcupine?,0.12,0.016,JPG\,celery,orange,scissors01,balloon01b,avocado01,printer02,mushroom01,sewingmachine01a,stapler01,dice05a,ashtray01,fan,blankImage,blankImage,blankImage,blankImage,blankImage,drumstick,,,,,,,,,,,,0,36,36,233,,,,,,,,,,,,,,,,,,,,,,,,,,,,,,,,,,,351.91039049997926,352.9222410999937,352.90545329998713,353.4742850000039,353.4742850000039,None,354.9872382999165,None,right,0.8608170000370592,354.9872382999165,None,355.8750780998962,None,left,0.32502009999006987,355.8750780998962,None,,,,,,,,,,,,,,,,,,,,,,,PPT37,001,2022-07-06_12h28.12.803,ABstudy,2022.1.4,59.955632814952125,
AB,Lag1_T1P_T2P,1,P,P,7,8,6,3,11,tree,Did you see the tree?,0.12,0.016,JPG\,pear01,clock01a,cymbal,match,ashtray01,globe,tree,stapler03b,lemon02,pen04b,dice05a,blankImage,blankImage,blankImage,blankImage,blankImage,blankImage,tree,,,,,,,,,,,,0,37,37,51,,,,,,,,,,,,,,,,,,,,,,,,,,,,,,,,,,,356.22841379989404,357.2429291999433,357.20967579993885,357.79517989989836,357.79517989989836,None,359.1733061999548,None,left,0.47450440004467964,359.1733061999548,None,359.67872879991774,None,left,0.1369383999845013,359.67872879991774,None,,,,,,,,,,,,,,,,,,,,,,,PPT37,001,2022-07-06_12h28.12.803,ABstudy,2022.1.4,59.955632814952125,
AB,Lag5_T1P_T2P,5,P,P,7,12,6,5,17,Badminton Racket,Did you see the Badminton Racket?,0.12,0.016,JPG\,paintbrush01,dice05a,watermelon01,broccoli01a,hammer01,leaf02a,badmintonracket,tennisball01b,lemon02,fan,lipstick02a,stapler04b,envelope03a,sponge01,foosballtable,orange,blankImage,badmintonracket,,,,,,,,,,,,0,38,38,163,,,,,,,,,,,,,,,,,,,,,,,,,,,,,,,,,,,359.85556279995944,360.8632364999503,360.8464332999429,361.4271386999171,361.4271386999171,None,363.4185366999591,None,left,0.4046562999719754,363.4185366999591,None,363.85015670000575,None,left,0.14201790001243353,363.85015670000575,None,,,,,,,,,,,,,,,,,,,,,,,PPT37,001,2022-07-06_12h28.12.803,ABstudy,2022.1.4,59.955632814952125,
AB,Lag5_T1P_T2P,5,P,P,8,13,7,3,16,Chefs hat,Did you see the Chefs hat?,0.12,0.016,JPG\,rice,watermelon01,tableknife02,scarf,computerkeyboard02,cauliflower01,battery02b,chefshat,book01b,sandal,sponge01,microscope,stapler01,fork03c,thermometer02b,apple07,blankImage,chefshat,,,,,,,,,,,,0,39,39,128,,,,,,,,,,,,,,,,,,,,,,,,,,,,,,,,,,,364.0174264999805,365.0173575999215,365.00058150000405,365.58901459991466,365.58901459991466,None,367.5398539999733,None,left,0.42822080000769347,367.5398539999733,None,367.98708789993543,None,left,0.15695119998417795,367.98708789993543,None,,,,,,,,,,,,,,,,,,,,,,,PPT37,001,2022-07-06_12h28.12.803,ABstudy,2022.1.4,59.955632814952125,
AB,Lag1_T1P_T2P,1,P,P,6,7,5,3,10,fortune cookie,Did you see the fortune cookie?,0.12,0.016,JPG\,scissors01,grape01,mushroom01,toiletpaper01a,greenolive,fortunecookie,stapler03b,ashtray01,carrot01,pineapple01a,blankImage,blankImage,blankImage,blankImage,blankImage,blankImage,blankImage,fortunecookie,,,,,,,,,,,,0,40,40,42,,,,,,,,,,,,,,,,,,,,,,,,,,,,,,,,,,,368.1745522998972,369.18797099997755,369.15464189997874,369.73737869993784,369.73737869993784,None,370.9548773999559,None,left,1.0848999000154436,370.9548773999559,None,372.0578641999746,None,left,0.17403110000304878,372.0578641999746,None,,,,,,,,,,,,,,,,,,,,,,,PPT37,001,2022-07-06_12h28.12.803,ABstudy,2022.1.4,59.955632814952125,
AB,Lag1_T1A_T2A,1,A,A,8,9,7,5,14,Ping pong Table,Did you see the Ping pong Table?,0.12,0.016,JPG\,pineapple01a,tennisball01b,computerkeyboard02,feather03a,belt02a,acorn,violin,blueberry01,medal02b,alligator,greenolive,screwdriver04b,potato02b,fork03c,blankImage,blankImage,blankImage,statue,,,,,,,,,,,,0,41,41,287,,,,,,,,,,,,,,,,,,,,,,,,,,,,,,,,,,,372.3113765999442,373.32558750000317,373.3088974999264,373.92665409995243,373.92665409995243,None,375.52222369995434,None,right,0.8614498999668285,375.52222369995434,None,376.4121610999573,None,left,0.14744420000351965,376.4121610999573,None,,,,,,,,,,,,,,,,,,,,,,,PPT37,001,2022-07-06_12h28.12.803,ABstudy,2022.1.4,59.955632814952125,
AB,Lag1_T1P_T2A,1,P,A,5,6,4,4,10,paper airplane,Did you see the paper airplane?,0.12,0.016,JPG\,thermometer02b,avocado01,scissors01,tennisball01b,paperairplane,banana01,strawberry,cigarette,potato02b,pineapple01a,blankImage,blankImage,blankImage,blankImage,blankImage,blankImage,blankImage,paperairplane,,,,,,,,,,,,0,42,42,191,,,,,,,,,,,,,,,,,,,,,,,,,,,,,,,,,,,376.5861482999753,377.5965656999033,377.57988269999623,378.15767469990533,378.15767469990533,None,379.39653829997405,None,left,1.2027464000275359,379.39653829997405,None,380.618846999947,None,right,0.1644617998972535,380.618846999947,None,,,,,,,,,,,,,,,,,,,,,,,PPT37,001,2022-07-06_12h28.12.803,ABstudy,2022.1.4,59.955632814952125,
AB,Lag5_T1P_T2P,5,P,P,6,11,5,5,16,Car,Did you see the Car?,0.12,0.016,JPG\,leaf02a,apple07,cd,pineapple01a,envelope03a,car,pig,canoftennisballs,rice,feather03a,stapler03a,balloon01b,avocado01,calculator01,watermelon01,teabag,blankImage,car,,,,,,,,,,,,0,43,43,127,,,,,,,,,,,,,,,,,,,,,,,,,,,,,,,,,,,380.8112451999914,381.8170491999481,381.8003139999928,382.3882495999569,382.3882495999569,None,384.34306240000296,None,left,0.4641489000059664,384.34306240000296,None,384.83714739989955,None,left,0.14620009995996952,384.83714739989955,None,,,,,,,,,,,,,,,,,,,,,,,PPT37,001,2022-07-06_12h28.12.803,ABstudy,2022.1.4,59.955632814952125,
AB,Lag1_T1P_T2A,1,P,A,7,8,6,4,12,Steering wheel,Did you see the Steering wheel?,0.12,0.016,JPG\,alligator,banana01,apple07,tomato01,button01,spoon01,steeringwheel,fork03c,canoftennisballs,potato02b,grape01,leaf02a,blankImage,blankImage,blankImage,blankImage,blankImage,steeringwheel,,,,,,,,,,,,0,44,44,198,,,,,,,,,,,,,,,,,,,,,,,,,,,,,,,,,,,385.01111729990225,386.02162289991975,386.00478479999583,386.5057121999562,386.5057121999562,None,388.03017899999395,None,left,0.8258441999787465,388.03017899999395,None,388.87467019993346,None,right,0.14036710001528263,388.87467019993346,None,,,,,,,,,,,,,,,,,,,,,,,PPT37,001,2022-07-06_12h28.12.803,ABstudy,2022.1.4,59.955632814952125,
AB,Lag1_T1A_T2P,1,A,P,5,6,4,5,11,rake,Did you see the rake?,0.12,0.016,JPG\,candy,brownsugar,dice05a,cd,sock01a,stapler01,button01,potato02b,feather03a,grape01,dandelion,blankImage,blankImage,blankImage,blankImage,blankImage,blankImage,greatwhiteshark,,,,,,,,,,,,0,45,45,256,,,,,,,,,,,,,,,,,,,,,,,,,,,,,,,,,,,389.0442953999154,390.05898479989264,390.0254855999956,390.6038617999293,390.6038617999293,None,391.87798939994536,None,right,1.4977569000329822,391.87798939994536,None,393.4098097999813,None,left,0.17401339998468757,393.4098097999813,None,,,,,,,,,,,,,,,,,,,,,,,PPT37,001,2022-07-06_12h28.12.803,ABstudy,2022.1.4,59.955632814952125,
AB,Lag5_T1P_T2A,5,P,A,6,11,5,3,14,Balcony,Did you see the Balcony?,0.12,0.016,JPG\,tomato01,pen04b,shirt02,carrot01,lamp04a,balcony02,pizza,avocado01,sewingmachine01a,apple07,iron01b,book01b,chain01,sock01a,blankImage,blankImage,blankImage,balcony02,,,,,,,,,,,,0,46,46,207,,,,,,,,,,,,,,,,,,,,,,,,,,,,,,,,,,,393.62403919990174,394.6297570999013,394.61330539989285,395.1877801999217,395.1877801999217,None,396.92668069992214,None,left,0.6571789999725297,396.92668069992214,None,397.61653199989814,None,left,0.160068100085482,397.61653199989814,None,,,,,,,,,,,,,,,,,,,,,,,PPT37,001,2022-07-06_12h28.12.803,ABstudy,2022.1.4,59.955632814952125,
AB,Lag5_T1P_T2P,5,P,P,8,13,7,4,17,Accordion,Did you see the Accordion?,0.12,0.016,JPG\,toiletpaper01a,lipstick02a,potato02b,speaker04,globe,strawberry,carrot01,accordion01,sock01a,candle08b,pen04b,calculator01,stapler01,brick,pear01,fork03c,blankImage,accordion01,,,,,,,,,,,,0,47,47,162,,,,,,,,,,,,,,,,,,,,,,,,,,,,,,,,,,,397.8096529999748,398.81767069990747,398.80113169993274,399.4103352999082,399.4103352999082,None,401.2932330999756,None,left,0.4340146000031382,401.2932330999756,None,401.75405999994837,None,left,0.17348309990484267,401.75405999994837,None,,,,,,,,,,,,,,,,,,,,,,,PPT37,001,2022-07-06_12h28.12.803,ABstudy,2022.1.4,59.955632814952125,
AB,Lag5_T1A_T2P,5,A,P,5,10,4,5,15,Eye patch,Did you see the Eye patch?,0.12,0.016,JPG\,scissors01,balloon01b,eraser,feather03a,banana01,candle01,measuringcup01,calculator01,thermometer02b,stapler03b,pear01,carrot01,globe,baseball01a,leaf02a,blankImage,blankImage,cross01,,,,,,,,,,,,0,48,48,258,,,,,,,,,,,,,,,,,,,,,,,,,,,,,,,,,,,402.01678809989244,403.02234599995427,403.006866099895,403.60654539999086,403.60654539999086,None,405.3569614998996,None,right,1.0589043000945821,405.3569614998996,None,406.4421412999509,None,left,0.261098499991931,406.4421412999509,None,,,,,,,,,,,,,,,,,,,,,,,PPT37,001,2022-07-06_12h28.12.803,ABstudy,2022.1.4,59.955632814952125,
AB,Lag5_T1P_T2P,5,P,P,7,12,6,3,15,Rollerblade,Did you see the Rollerblade?,0.12,0.016,JPG\,hammer01,sponge01,toaster01,cherry01,feather03a,mushroom01,rollerblade,pencil01,tennisball01b,brick,clock04,stapler06,teabag,garlic01a,envelope03a,blankImage,blankImage,rollerblade,,,,,,,,,,,,0,49,49,116,,,,,,,,,,,,,,,,,,,,,,,,,,,,,,,,,,,406.7311886999523,407.7435680999188,407.7277621999383,408.3152885999298,408.3152885999298,None,410.22062559996266,None,left,0.4583577999146655,410.22062559996266,None,410.6963344999822,None,left,0.17558199993800372,410.6963344999822,None,,,,,,,,,,,,,,,,,,,,,,,PPT37,001,2022-07-06_12h28.12.803,ABstudy,2022.1.4,59.955632814952125,
AB,Lag1_T1P_T2A,1,P,A,5,6,4,4,10,flower,Did you see the flower?,0.12,0.016,JPG\,broom01,globe,cellphone,tableknife02,daffodil,scissors01,ring01,alligator,rice,toaster01,blankImage,blankImage,blankImage,blankImage,blankImage,blankImage,blankImage,daffodil,,,,,,,,,,,,0,50,50,184,,,,,,,,,,,,,,,,,,,,,,,,,,,,,,,,,,,410.9026787999319,411.9140797998989,411.8974706999725,412.4699620999163,412.4699620999163,None,413.7319524999475,None,right,0.9954435999970883,413.7319524999475,None,414.75035249989014,None,right,0.9606109999585897,414.75035249989014,None,,,,,,,,,,,,,,,,,,,,,,,PPT37,001,2022-07-06_12h28.12.803,ABstudy,2022.1.4,59.955632814952125,
AB,Lag5_T1P_T2A,5,P,A,6,11,5,5,16,World map,Did you see the World map?,0.12,0.016,JPG\,cigarette,pig,banana01,strawberry,clock01a,worldmap,spoon01,blueberry01,battery02b,pineapple01a,chain01,paintbrush01,candy,pen04b,teabag,birthdaycandle,blankImage,worldmap,,,,,,,,,,,,0,51,51,205,,,,,,,,,,,,,,,,,,,,,,,,,,,,,,,,,,,415.740420899936,416.75219259993173,416.7354232999496,417.3230531999143,417.3230531999143,None,419.17620699992403,None,left,0.8554407999617979,419.17620699992403,None,420.05814649991225,None,right,0.16566719999536872,420.05814649991225,None,,,,,,,,,,,,,,,,,,,,,,,PPT37,001,2022-07-06_12h28.12.803,ABstudy,2022.1.4,59.955632814952125,
AB,Lag1_T1P_T2A,1,P,A,5,6,4,5,11,Moon,Did you see the Moon?,0.12,0.016,JPG\,lamp04a,broccoli01a,alligator,garlic01a,moon,brownsugar,avocado01,ring01,leaf02a,cellphone,medal02b,blankImage,blankImage,blankImage,blankImage,blankImage,blankImage,moon,,,,,,,,,,,,0,52,52,190,,,,,,,,,,,,,,,,,,,,,,,,,,,,,,,,,,,420.2652947999304,421.2729616999859,421.25633289990947,421.826052099932,421.826052099932,None,423.2210055999458,None,right,1.0179852000437677,423.2210055999458,None,424.25987159996293,None,right,0.21997019997797906,424.25987159996293,None,,,,,,,,,,,,,,,,,,,,,,,PPT37,001,2022-07-06_12h28.12.803,ABstudy,2022.1.4,59.955632814952125,
AB,Lag5_T1P_T2P,5,P,P,5,10,4,3,13,lollipop,Did you see the lollipop?,0.12,0.016,JPG\,brownsugar,candle01,match,printer02,lollipop04,balloon01b,belt02a,potato02b,computerkeyboard02,stapler03a,rice,mushroom01,pencil01,blankImage,blankImage,blankImage,blankImage,lollipop04,,,,,,,,,,,,0,53,53,112,,,,,,,,,,,,,,,,,,,,,,,,,,,,,,,,,,,424.54684869991615,425.56070399994496,425.5440701999469,426.04487829993013,426.04487829993013,None,427.65556139999535,None,left,0.46361839992459863,427.65556139999535,None,428.1477769999765,None,left,0.1477605999680236,428.1477769999765,None,,,,,,,,,,,,,,,,,,,,,,,PPT37,001,2022-07-06_12h28.12.803,ABstudy,2022.1.4,59.955632814952125,
AB,Lag5_T1A_T2P,5,A,P,6,11,5,4,15,butterfly,Did you see the butterfly?,0.12,0.016,JPG\,comb02a,key01,medal02b,battery02b,lighter01,microscope,watermelon01,sandal,pig,cellphone,stapler06,calculator01,cymbal,clock04,cucumber,blankImage,blankImage,uprightpiano01,,,,,,,,,,,,0,54,54,276,,,,,,,,,,,,,,,,,,,,,,,,,,,,,,,,,,,428.3195007999893,429.33134809997864,429.314588899957,429.89609589998145,429.89609589998145,None,431.7397797999438,None,right,0.4600463999668136,431.7397797999438,None,432.21967039990705,None,left,0.18090339994523674,432.21967039990705,None,,,,,,,,,,,,,,,,,,,,,,,PPT37,001,2022-07-06_12h28.12.803,ABstudy,2022.1.4,59.955632814952125,
AB,Lag5_T1P_T2P,5,P,P,5,10,4,3,13,Sushi,Did you see the Sushi?,0.12,0.016,JPG\,carrot01,greenolive,fork03c,chain01,makiroll,watermelon01,tableknife02,printer02,comb02a,stapler03b,orange,rice,fan,blankImage,blankImage,blankImage,blankImage,makiroll,,,,,,,,,,,,0,55,55,135,,,,,,,,,,,,,,,,,,,,,,,,,,,,,,,,,,,432.42235429992434,433.4354686998995,433.41889849992003,434.00758799992036,434.00758799992036,None,435.5680557999294,None,left,0.4228578000329435,435.5680557999294,None,436.0211665999377,None,left,0.12967420008499175,436.0211665999377,None,,,,,,,,,,,,,,,,,,,,,,,PPT37,001,2022-07-06_12h28.12.803,ABstudy,2022.1.4,59.955632814952125,
AB,Lag5_T1P_T2P,5,P,P,6,11,5,4,15,shovel,Did you see the shovel?,0.12,0.016,JPG\,carrot01,watch02a,clock04,microscope,toiletpaper01a,shovel01,alligator,ring01,brick,watermelon01,stapler03b,pencil01,measuringcup01,balloon01b,computerkeyboard02,blankImage,blankImage,shovel01,,,,,,,,,,,,0,56,56,139,,,,,,,,,,,,,,,,,,,,,,,,,,,,,,,,,,,436.17506519996095,437.18897669995204,437.15573679993395,437.7341155000031,437.7341155000031,None,439.55895299999975,None,left,0.36045209993608296,439.55895299999975,None,439.94452039990574,None,left,0.1586573999375105,439.94452039990574,None,,,,,,,,,,,,,,,,,,,,,,,PPT37,001,2022-07-06_12h28.12.803,ABstudy,2022.1.4,59.955632814952125,
AB,Lag1_T1P_T2P,1,P,P,8,9,7,3,12,Sheep,Did you see the Sheep?,0.12,0.016,JPG\,celery,orange,scissors01,balloon01b,avocado01,printer02,mushroom01,sheep,stapler03b,dice05a,ashtray01,fan,blankImage,blankImage,blankImage,blankImage,blankImage,sheep,,,,,,,,,,,,0,57,57,71,,,,,,,,,,,,,,,,,,,,,,,,,,,,,,,,,,,440.1286011999473,441.14304469991475,441.10968969995156,441.7029265000019,441.7029265000019,None,443.2269757000031,None,left,0.732507000095211,443.2269757000031,None,443.97900709998794,None,left,0.17252639995422214,443.97900709998794,None,,,,,,,,,,,,,,,,,,,,,,,PPT37,001,2022-07-06_12h28.12.803,ABstudy,2022.1.4,59.955632814952125,
AB,Lag1_T1P_T2P,1,P,P,5,6,4,5,11,Light switch,Did you see the Light switch?,0.12,0.016,JPG\,iron01b,orange,birthdaycandle,potato02b,lightswitch01,stapler03b,key01,candle08b,celery,tableknife02,pen04b,blankImage,blankImage,blankImage,blankImage,blankImage,blankImage,lightswitch01,,,,,,,,,,,,0,58,58,18,,,,,,,,,,,,,,,,,,,,,,,,,,,,,,,,,,,444.23193379992153,445.2324111999478,445.2324111999478,445.9172872999916,445.8333255999023,None,447.12088219996076,None,left,0.8147734999656677,447.12088219996076,None,447.96639929991215,None,right,0.14514469995629042,447.96639929991215,None,,,,,,,,,,,,,,,,,,,,,,,PPT37,001,2022-07-06_12h28.12.803,ABstudy,2022.1.4,59.955632814952125,
AB,Lag1_T1P_T2A,1,P,A,7,8,6,3,11,Seagull,Did you see the Seagull?,0.12,0.016,JPG\,toiletpaper01a,mushroom01,medal02b,sandal,rice,cd,seagull,pizza,candle08b,garlic01a,toaster01,blankImage,blankImage,blankImage,blankImage,blankImage,blankImage,seagull,,,,,,,,,,,,0,59,59,176,,,,,,,,,,,,,,,,,,,,,,,,,,,,,,,,,,,448.13657729991246,449.15093089989386,449.11757000000216,449.70343479991425,449.70343479991425,None,451.1104574999772,None,left,1.0175031999824569,451.1104574999772,None,452.1549829998985,None,right,0.20423570007551461,452.1549829998985,None,,,,,,,,,,,,,,,,,,,,,,,PPT37,001,2022-07-06_12h28.12.803,ABstudy,2022.1.4,59.955632814952125,
AB,Lag1_T1A_T2A,1,A,A,6,7,5,5,12,flamingo,Did you see the flamingo?,0.12,0.016,JPG\,chain01,pen04b,birthdaycandle,watermelon01,broom01,scissors01,measuringcup01,candle01,hammer01,calculator01,ashtray01,feather03a,blankImage,blankImage,blankImage,blankImage,blankImage,witchhat,,,,,,,,,,,,0,60,60,288,,,,,,,,,,,,,,,,,,,,,,,,,,,,,,,,,,,452.394818999921,453.4049532999052,453.3882847999921,453.9565605999669,453.9565605999669,None,455.40619209990837,None,right,1.3935124001000077,455.40619209990837,None,456.828118299949,None,left,0.17942900001071393,456.828118299949,None,,,,,,,,,,,,,,,,,,,,,,,PPT37,001,2022-07-06_12h28.12.803,ABstudy,2022.1.4,59.955632814952125,
AB,Lag5_T1P_T2P,5,P,P,8,13,7,4,17,butterfly,Did you see the butterfly?,0.12,0.016,JPG\,speaker04,sewingmachine01a,eraser,violin,globe,belt02a,sunglasses04,butterfly,cd,greenolive,alligator,pear01,stapler01,screwdriver04b,banana01,cigarette,blankImage,butterfly,,,,,,,,,,,,0,61,61,126,,,,,,,,,,,,,,,,,,,,,,,,,,,,,,,,,,,457.03799719992094,458.0437458999222,458.02814979990944,458.6292844999116,458.6292844999116,None,460.5606807000004,None,left,1.6382236999925226,460.5606807000004,None,462.2308425999945,None,right,0.2163052000105381,462.2308425999945,None,,,,,,,,,,,,,,,,,,,,,,,PPT37,001,2022-07-06_12h28.12.803,ABstudy,2022.1.4,59.955632814952125,
AB,Lag5_T1P_T2P,5,P,P,8,13,7,3,16,shrimp,Did you see the shrimp?,0.12,0.016,JPG\,globe,belt02a,sponge01,violin,fork03c,tomato01,clock01a,cocktailshrimp02,balloon01b,scarf,teabag,pen04b,stapler03a,brownsugar,speaker04,screwdriver04b,blankImage,cocktailshrimp02,,,,,,,,,,,,0,62,62,169,,,,,,,,,,,,,,,,,,,,,,,,,,,,,,,,,,,462.47067499998957,463.48247559997253,463.46683169994503,464.1403059998993,464.05518619995564,None,466.02105729992036,None,left,0.4499520000535995,466.02105729992036,None,466.5015020999126,None,left,0.1613904999103397,466.5015020999126,None,,,,,,,,,,,,,,,,,,,,,,,PPT37,001,2022-07-06_12h28.12.803,ABstudy,2022.1.4,59.955632814952125,
AB,Lag1_T1P_T2P,1,P,P,7,8,6,4,12,skunk,Did you see the skunk?,0.12,0.016,JPG\,fan,tomato01,candy,screwdriver04b,alligator,cd,skunk,stapler03b,button01,plate01b,brownsugar,lighter01,blankImage,blankImage,blankImage,blankImage,blankImage,skunk,,,,,,,,,,,,0,63,63,48,,,,,,,,,,,,,,,,,,,,,,,,,,,,,,,,,,,466.6872233999893,467.70271609991323,467.66933159995824,468.2544073999161,468.2544073999161,None,469.749141599983,None,left,0.40981230000033975,469.749141599983,None,470.1891218998935,None,left,0.14646039996296167,470.1891218998935,None,,,,,,,,,,,,,,,,,,,,,,,PPT37,001,2022-07-06_12h28.12.803,ABstudy,2022.1.4,59.955632814952125,
AB,Lag5_T1P_T2P,5,P,P,5,10,4,5,15,Eye,Did you see the Eye?,0.12,0.016,JPG\,apple07,toiletpaper01a,pizza,dandelion,eye,eraser,microscope,violin,orange,stapler01,balloon01b,sandal,lighter01,fan,book01b,blankImage,blankImage,eye,,,,,,,,,,,,0,64,64,171,,,,,,,,,,,,,,,,,,,,,,,,,,,,,,,,,,,470.3602129999781,471.373237999971,471.35645329998806,472.02135429996997,471.9383498999523,None,473.77399079990573,None,left,0.39339410001412034,473.77399079990573,None,474.19490749994293,None,left,0.13222649996168911,474.19490749994293,None,,,,,,,,,,,,,,,,,,,,,,,PPT37,001,2022-07-06_12h28.12.803,ABstudy,2022.1.4,59.955632814952125,
AB,Lag1_T1P_T2P,1,P,P,8,9,7,4,13,bowling ball,Did you see the bowling ball?,0.12,0.016,JPG\,dandelion,pineapple01a,broom01,pen04b,sock01a,sandal,foosballtable,bowlingball,stapler01,toothbrush03b,celery,candle08b,tennisball01b,blankImage,blankImage,blankImage,blankImage,bowlingball,,,,,,,,,,,,0,65,65,7,,,,,,,,,,,,,,,,,,,,,,,,,,,,,,,,,,,474.34748050000053,475.3612220999785,475.3286129999906,475.8308937998954,475.8308937998954,None,477.54701709991787,None,left,2.3723780000582337,477.54701709991787,None,479.9482443999732,None,left,0.21899079997092485,479.9482443999732,None,,,,,,,,,,,,,,,,,,,,,,,PPT37,001,2022-07-06_12h28.12.803,ABstudy,2022.1.4,59.955632814952125,
AB,Lag5_T1A_T2A,5,A,A,5,10,4,5,15,truck,Did you see the truck?,0.12,0.016,JPG\,pizza,printer02,medal02b,spoon01,grape01,lighter01,belt02a,watermelon01,celery,battery02b,screw02,comb02a,cauliflower01,lipstick02a,potato02b,blankImage,blankImage,postalmailbox01,,,,,,,,,,,,0,66,66,297,,,,,,,,,,,,,,,,,,,,,,,,,,,,,,,,,,,480.2007014999399,481.21627559990156,481.1830133999465,481.780260099913,481.780260099913,None,483.592204399989,None,right,1.4146529999561608,483.592204399989,None,485.0371201999951,None,right,21.770724599948153,485.0371201999951,None,,,,,,,,,,,,,,,,,,,,,,,PPT37,001,2022-07-06_12h28.12.803,ABstudy,2022.1.4,59.955632814952125,
AB,Lag5_T1P_T2P,5,P,P,7,12,6,5,17,truck,Did you see the truck?,0.12,0.016,JPG\,binoculars01b,speaker04,sandal,envelope03a,plate01b,comb02a,boxtruck,chain01,measuringcup01,key01,medal02b,stapler05,tennisball01b,pizza,cigarette,sunglasses04,blankImage,boxtruck,,,,,,,,,,,,0,67,67,166,,,,,,,,,,,,,,,,,,,,,,,,,,,,,,,,,,,506.82535469997674,507.82682429999113,507.81066799990367,508.4189882999053,508.4189882999053,None,510.35611439996865,None,left,0.42655979993287474,510.35611439996865,None,510.81550289993174,None,left,0.13511079992167652,510.81550289993174,None,,,,,,,,,,,,,,,,,,,,,,,PPT37,001,2022-07-06_12h28.12.803,ABstudy,2022.1.4,59.955632814952125,
AB,Lag5_T1P_T2A,5,P,A,7,12,6,3,15,Toy soldier,Did you see the Toy soldier?,0.12,0.016,JPG\,binoculars01b,cymbal,pizza,candy,paintbrush01,sponge01,toysoldier01b,thermometer02b,speaker04,lemon02,lipstick02a,strawberry,candle01,acorn,plate01b,blankImage,blankImage,toysoldier01b,,,,,,,,,,,,0,68,68,203,,,,,,,,,,,,,,,,,,,,,,,,,,,,,,,,,,,510.98732849990483,511.99740219989326,511.98165479989257,512.5807686999906,512.5807686999906,None,514.4536750999978,None,left,0.6257796999998391,514.4536750999978,None,515.1027810999658,None,right,0.11973550007678568,515.1027810999658,None,,,,,,,,,,,,,,,,,,,,,,,PPT37,001,2022-07-06_12h28.12.803,ABstudy,2022.1.4,59.955632814952125,
AB,Lag5_T1P_T2A,5,P,A,7,12,6,4,16,Bear,Did you see the Bear?,0.12,0.016,JPG\,comb02a,key01,medal02b,battery02b,lighter01,microscope,grizzly,sandal,pig,cellphone,computerkeyboard02,calculator01,cymbal,clock04,cucumber,avocado01,blankImage,grizzly,,,,,,,,,,,,0,69,69,213,,,,,,,,,,,,,,,,,,,,,,,,,,,,,,,,,,,515.2550198999234,516.2679821999045,516.2349580998998,516.821037299931,516.821037299931,None,518.8016957999207,None,left,0.8374578000511974,518.8016957999207,None,519.6711621999275,None,right,0.16895690001547337,519.6711621999275,None,,,,,,,,,,,,,,,,,,,,,,,PPT37,001,2022-07-06_12h28.12.803,ABstudy,2022.1.4,59.955632814952125,
AB,Lag5_T1A_T2P,5,A,P,5,10,4,5,15,parachute,Did you see the parachute?,0.12,0.016,JPG\,binoculars01b,speaker04,sandal,envelope03a,plate01b,comb02a,battery02b,chain01,measuringcup01,stapler03b,medal02b,lamp04a,tennisball01b,pizza,cigarette,blankImage,blankImage,knee,,,,,,,,,,,,0,70,70,264,,,,,,,,,,,,,,,,,,,,,,,,,,,,,,,,,,,519.8741101999767,520.8890326999826,520.8556737999897,521.4645122999791,521.4645122999791,None,523.2908173999749,None,left,0.9482364999130368,523.2908173999749,None,524.2594177999999,None,left,0.163436200004071,524.2594177999999,None,,,,,,,,,,,,,,,,,,,,,,,PPT37,001,2022-07-06_12h28.12.803,ABstudy,2022.1.4,59.955632814952125,
AB,Lag1_T1P_T2P,1,P,P,8,9,7,5,14,finger print,Did you see the finger print?,0.12,0.016,JPG\,chain01,pen04b,birthdaycandle,watermelon01,broom01,scissors01,measuringcup01,fingerprint,stapler01,calculator01,ashtray01,feather03a,sewingmachine01a,thermometer02b,blankImage,blankImage,blankImage,fingerprint,,,,,,,,,,,,0,71,71,62,,,,,,,,,,,,,,,,,,,,,,,,,,,,,,,,,,,524.4487952999771,525.4606023998931,525.4438116999809,526.0052709999727,526.0052709999727,None,527.721222299966,None,left,0.3898891999851912,527.721222299966,None,528.1294700999279,None,left,0.1659096999792382,528.1294700999279,None,,,,,,,,,,,,,,,,,,,,,,,PPT37,001,2022-07-06_12h28.12.803,ABstudy,2022.1.4,59.955632814952125,
AB,Lag1_T1P_T2A,1,P,A,7,8,6,4,12,bird,Did you see the bird?,0.12,0.016,JPG\,speaker04,sewingmachine01a,eraser,violin,globe,belt02a,tern,cymbal,cd,greenolive,alligator,pear01,blankImage,blankImage,blankImage,blankImage,blankImage,tern,,,,,,,,,,,,0,72,72,177,,,,,,,,,,,,,,,,,,,,,,,,,,,,,,,,,,,528.3129851999693,529.3140539999586,529.2973834999138,529.9178312999429,529.9178312999429,None,531.3619295998942,None,left,0.589850899996236,531.3619295998942,None,531.9838038999587,None,right,0.1108393999747932,531.9838038999587,None,,,,,,,,,,,,,,,,,,,,,,,PPT37,001,2022-07-06_12h28.12.803,ABstudy,2022.1.4,59.955632814952125,
AB,Lag5_T1P_T2A,5,P,A,5,10,4,3,13,fan,Did you see the fan?,0.12,0.016,JPG\,scissors01,grape01,mushroom01,toiletpaper01a,fanheater,pizza,cigarette,ashtray01,carrot01,pineapple01a,foosballtable,lipstick02a,teabag,blankImage,blankImage,blankImage,blankImage,fanheater,,,,,,,,,,,,0,73,73,220,,,,,,,,,,,,,,,,,,,,,,,,,,,,,,,,,,,532.1231632999843,533.1347690999974,533.118055799976,533.6810681999195,533.6810681999195,None,535.2581371999113,None,right,0.974068499985151,535.2581371999113,None,536.2572175998939,None,right,0.26971869997214526,536.2572175998939,None,,,,,,,,,,,,,,,,,,,,,,,PPT37,001,2022-07-06_12h28.12.803,ABstudy,2022.1.4,59.955632814952125,
AB,Lag5_T1P_T2P,5,P,P,5,10,4,5,15,sword fish,Did you see the sword fish?,0.12,0.016,JPG\,scissors01,balloon01b,eraser,feather03a,swordfish,candle01,measuringcup01,calculator01,thermometer02b,stapler04b,pear01,carrot01,globe,baseball01a,leaf02a,blankImage,blankImage,swordfish,,,,,,,,,,,,0,74,74,160,,,,,,,,,,,,,,,,,,,,,,,,,,,,,,,,,,,536.5987270999467,537.6058223999571,537.589099099976,538.168008599896,538.168008599896,None,539.92410319997,None,left,0.7471844999818131,539.92410319997,None,540.6930109999375,None,left,0.16235310002230108,540.6930109999375,None,,,,,,,,,,,,,,,,,,,,,,,PPT37,001,2022-07-06_12h28.12.803,ABstudy,2022.1.4,59.955632814952125,
AB,Lag5_T1P_T2P,5,P,P,6,11,5,4,15,shower,Did you see the shower?,0.12,0.016,JPG\,dice05a,watch02a,pig,lighter01,button01,shower,paintbrush01,microscope,plate01b,pen04b,stapler05,weight04a,carrot01,shirt02,globe,blankImage,blankImage,shower,,,,,,,,,,,,0,75,75,121,,,,,,,,,,,,,,,,,,,,,,,,,,,,,,,,,,,540.8819817999611,541.8934429999208,541.87691979995,542.4468667999608,542.4468667999608,None,544.3383587999269,None,left,0.5177073000231758,544.3383587999269,None,544.8794760999735,None,left,0.16047460003755987,544.8794760999735,None,,,,,,,,,,,,,,,,,,,,,,,PPT37,001,2022-07-06_12h28.12.803,ABstudy,2022.1.4,59.955632814952125,
AB,Lag1_T1A_T2P,1,A,P,5,6,4,3,9,microphone,Did you see the microphone?,0.12,0.016,JPG\,hammer01,sponge01,toaster01,cherry01,feather03a,stapler06,measuringcup01,pencil01,tennisball01b,blankImage,blankImage,blankImage,blankImage,blankImage,blankImage,blankImage,blankImage,cactus,,,,,,,,,,,,0,76,76,230,,,,,,,,,,,,,,,,,,,,,,,,,,,,,,,,,,,545.0659751999192,546.0806927999947,546.0473439999623,546.617391299922,546.617391299922,None,547.7175173999276,None,right,1.9211790000554174,547.7175173999276,None,549.6676157999318,None,left,0.18694819998927414,549.6676157999318,None,,,,,,,,,,,,,,,,,,,,,,,PPT37,001,2022-07-06_12h28.12.803,ABstudy,2022.1.4,59.955632814952125,
AB,Lag5_T1P_T2P,5,P,P,7,12,6,3,15,Eye patch,Did you see the Eye patch?,0.12,0.016,JPG\,candle01,paintbrush01,scissors01,fan,microscope,toothbrush03b,eyepatch,watermelon01,teabag,pencil01,lemon02,stapler05,shirt02,cauliflower01,cd,blankImage,blankImage,eyepatch,,,,,,,,,,,,0,77,77,108,,,,,,,,,,,,,,,,,,,,,,,,,,,,,,,,,,,549.8869598999154,550.9021011999575,550.8687710999511,551.441490199999,551.441490199999,None,553.3508310999023,None,left,1.7917607000563294,553.3508310999023,None,555.173097299994,None,left,0.14551249996293336,555.173097299994,None,,,,,,,,,,,,,,,,,,,,,,,PPT37,001,2022-07-06_12h28.12.803,ABstudy,2022.1.4,59.955632814952125,
AB,Lag1_T1P_T2P,1,P,P,5,6,4,3,9,Pumpkin,Did you see the Pumpkin?,0.12,0.016,JPG\,binoculars01b,speaker04,sandal,envelope03a,pumpkin,stapler03b,battery02b,chain01,measuringcup01,blankImage,blankImage,blankImage,blankImage,blankImage,blankImage,blankImage,blankImage,pumpkin,,,,,,,,,,,,0,78,78,23,,,,,,,,,,,,,,,,,,,,,,,,,,,,,,,,,,,555.3439717999427,556.3582319999114,556.3426699999254,557.0243757999269,556.9416672999505,None,557.996499999892,None,left,0.9626581999473274,557.996499999892,None,558.9796955999918,None,left,0.16431729996111244,558.9796955999918,None,,,,,,,,,,,,,,,,,,,,,,,PPT37,001,2022-07-06_12h28.12.803,ABstudy,2022.1.4,59.955632814952125,
AB,Lag5_T1A_T2P,5,A,P,5,10,4,3,13,flower,Did you see the flower?,0.12,0.016,JPG\,cucumber,ring01,lipstick02a,microscope,violin,garlic01a,celery,lighter01,cherry01,stapler03a,belt02a,key01,binoculars01b,blankImage,blankImage,blankImage,blankImage,christmastree,,,,,,,,,,,,0,79,79,284,,,,,,,,,,,,,,,,,,,,,,,,,,,,,,,,,,,559.1719883999322,560.1787227999885,560.1630951999687,560.7637411999749,560.7637411999749,None,562.3796995999292,None,right,1.1549407000420615,562.3796995999292,None,563.565095399972,None,left,0.1534262999193743,563.565095399972,None,,,,,,,,,,,,,,,,,,,,,,,PPT37,001,2022-07-06_12h28.12.803,ABstudy,2022.1.4,59.955632814952125,
AB,Lag5_T1P_T2P,5,P,P,7,12,6,5,17,flower,Did you see the flower?,0.12,0.016,JPG\,leaf02a,pear01,measuringcup01,cigarette,fan,lemon02,lily,tableknife02,ring01,pencil01,cellphone,stapler01,carrot01,binoculars01b,sock01a,book01b,blankImage,lily,,,,,,,,,,,,0,80,80,134,,,,,,,,,,,,,,,,,,,,,,,,,,,,,,,,,,,563.7507194998907,564.7663553999737,564.732949999976,565.3234850999434,565.3234850999434,None,567.2484023999423,None,left,0.9584328000200912,567.2484023999423,None,568.2392578999279,None,left,0.351347399991937,568.2392578999279,None,,,,,,,,,,,,,,,,,,,,,,,PPT37,001,2022-07-06_12h28.12.803,ABstudy,2022.1.4,59.955632814952125,
AB,Lag1_T1A_T2A,1,A,A,8,9,7,4,13,Recycling bin,Did you see the Recycling bin?,0.12,0.016,JPG\,brick,plate01b,pen04b,toaster01,screwdriver04b,candle01,envelope03a,feather03a,pig,ring01,orange,clock01a,lighter01,blankImage,blankImage,blankImage,blankImage,bumpercar,,,,,,,,,,,,0,81,81,292,,,,,,,,,,,,,,,,,,,,,,,,,,,,,,,,,,,568.6228575999849,569.6374909000006,569.6040867998963,570.1859977999702,570.1859977999702,None,571.8119647999993,None,right,0.8192634999286383,571.8119647999993,None,572.6574184999336,None,right,0.2936304999748245,572.6574184999336,None,,,,,,,,,,,,,,,,,,,,,,,PPT37,001,2022-07-06_12h28.12.803,ABstudy,2022.1.4,59.955632814952125,
AB,Lag5_T1P_T2A,5,P,A,8,13,7,4,17,knife,Did you see the knife?,0.12,0.016,JPG\,lighter01,hammer01,spoon01,chain01,cymbal,sponge01,lipstick02a,knife03,pig,watermelon01,cauliflower01,lemon02,broccoli01a,tableknife02,tennisball01b,toothbrush03b,blankImage,knife03,,,,,,,,,,,,0,82,82,214,,,,,,,,,,,,,,,,,,,,,,,,,,,,,,,,,,,572.979605600005,573.9921177999349,573.9753684999887,574.5623420999618,574.5623420999618,None,576.455867099925,None,left,0.8069782999809831,576.455867099925,None,577.2782852998935,None,right,0.17656219995114952,577.2782852998935,None,,,,,,,,,,,,,,,,,,,,,,,PPT37,001,2022-07-06_12h28.12.803,ABstudy,2022.1.4,59.955632814952125,
AB,Lag1_T1A_T2P,1,A,P,8,9,7,4,13,Toolbox,Did you see the Toolbox?,0.12,0.016,JPG\,pizza,printer02,medal02b,spoon01,grape01,lighter01,belt02a,watermelon01,stapler03b,battery02b,screw02,comb02a,cauliflower01,blankImage,blankImage,blankImage,blankImage,ladybug03,,,,,,,,,,,,0,83,83,237,,,,,,,,,,,,,,,,,,,,,,,,,,,,,,,,,,,577.4843598000007,578.4967272999929,578.4799533999758,579.0596842999803,579.0596842999803,None,580.6462635999778,None,right,0.8487756999675184,580.6462635999778,None,581.5180854999926,None,left,0.2010963000357151,581.5180854999926,None,,,,,,,,,,,,,,,,,,,,,,,PPT37,001,2022-07-06_12h28.12.803,ABstudy,2022.1.4,59.955632814952125,
AB,Lag1_T1P_T2P,1,P,P,6,7,5,5,12,Snowboard,Did you see the Snowboard?,0.12,0.016,JPG\,belt02a,measuringcup01,spoon01,chain01,greenolive,snowboard,stapler01,onion,fan,strawberry,candle01,broom01,blankImage,blankImage,blankImage,blankImage,blankImage,snowboard,,,,,,,,,,,,0,84,84,49,,,,,,,,,,,,,,,,,,,,,,,,,,,,,,,,,,,581.7590062998934,582.7672441999894,582.7505450999597,583.3236351999221,583.3236351999221,None,584.7522104999516,None,left,0.9826164999976754,584.7522104999516,None,585.7535589999752,None,right,0.18141950003337115,585.7535589999752,None,,,,,,,,,,,,,,,,,,,,,,,PPT37,001,2022-07-06_12h28.12.803,ABstudy,2022.1.4,59.955632814952125,
AB,Lag1_T1P_T2P,1,P,P,6,7,5,5,12,snowman,Did you see the snowman?,0.12,0.016,JPG\,comb02a,watch02a,scissors01,dice05a,tableknife02,snowman,stapler03a,printer02,dandelion,spoon01,ashtray01,battery02b,blankImage,blankImage,blankImage,blankImage,blankImage,snowman,,,,,,,,,,,,0,85,85,4,,,,,,,,,,,,,,,,,,,,,,,,,,,,,,,,,,,585.9572594999336,586.9719827999361,586.9382068999112,587.5169576999033,587.5169576999033,None,588.9804998999462,None,left,0.9700360000133514,588.9804998999462,None,589.9777770999353,None,right,0.2766532999230549,589.9777770999353,None,,,,,,,,,,,,,,,,,,,,,,,PPT37,001,2022-07-06_12h28.12.803,ABstudy,2022.1.4,59.955632814952125,
AB,Lag1_T1P_T2P,1,P,P,7,8,6,3,11,trampoline,Did you see the trampoline?,0.12,0.016,JPG\,dice05a,watch02a,pig,lighter01,button01,strawberry,trampoline,stapler03a,plate01b,pen04b,feather03a,blankImage,blankImage,blankImage,blankImage,blankImage,blankImage,trampoline,,,,,,,,,,,,0,86,86,73,,,,,,,,,,,,,,,,,,,,,,,,,,,,,,,,,,,590.2877620999934,591.2923873999389,591.2757232999429,591.8609517998993,591.8609517998993,None,593.2099486999214,None,left,1.6136150000384077,593.2099486999214,None,594.8488077999791,None,left,0.6297974999761209,594.8488077999791,None,,,,,,,,,,,,,,,,,,,,,,,PPT37,001,2022-07-06_12h28.12.803,ABstudy,2022.1.4,59.955632814952125,
AB,Lag5_T1P_T2A,5,P,A,8,13,7,4,17,fountain,Did you see the fountain?,0.12,0.016,JPG\,printer02,envelope03a,potato02b,calculator01,tableknife02,cigarette,ashtray01,parkfountain,broom01,greenolive,candle08b,battery02b,strawberry,candle01,foosballtable,tennisball01b,blankImage,parkfountain,,,,,,,,,,,,0,87,87,219,,,,,,,,,,,,,,,,,,,,,,,,,,,,,,,,,,,595.5086507999804,596.5148264999734,596.4991118999897,597.1646435000002,597.0840572000016,None,599.0553989999462,None,left,1.4311798999551684,599.0553989999462,None,600.5210415999172,None,right,0.17350739997345954,600.5210415999172,None,,,,,,,,,,,,,,,,,,,,,,,PPT37,001,2022-07-06_12h28.12.803,ABstudy,2022.1.4,59.955632814952125,
AB,Lag1_T1P_T2P,1,P,P,5,6,4,5,11,golf ball,Did you see the golf ball?,0.12,0.016,JPG\,foosballtable,cigarette,pen04b,birthdaycandle,golfball,stapler05,binoculars01b,chain01,potato02b,cauliflower01,paintbrush01,blankImage,blankImage,blankImage,blankImage,blankImage,blankImage,golfball,,,,,,,,,,,,0,88,88,13,,,,,,,,,,,,,,,,,,,,,,,,,,,,,,,,,,,600.7322825998999,601.7359882999444,601.7192821999779,602.2198102999246,602.2198102999246,None,603.6528792999452,None,left,0.39386069995816797,603.6528792999452,None,604.0721245999448,None,left,0.15944239997770637,604.0721245999448,None,,,,,,,,,,,,,,,,,,,,,,,PPT37,001,2022-07-06_12h28.12.803,ABstudy,2022.1.4,59.955632814952125,
AB,Lag1_T1P_T2A,1,P,A,5,6,4,4,10,bird,Did you see the bird?,0.12,0.016,JPG\,toaster01,scarf,toiletpaper01a,calculator01,swallow,sewingmachine01a,fan,teabag,strawberry,balloon01b,blankImage,blankImage,blankImage,blankImage,blankImage,blankImage,blankImage,swallow,,,,,,,,,,,,0,89,89,195,,,,,,,,,,,,,,,,,,,,,,,,,,,,,,,,,,,604.2586724999128,605.2729896999663,605.2396260999376,605.828087599948,605.828087599948,None,607.0609230999835,None,left,0.6976677000056952,607.0609230999835,None,607.7758921999484,None,left,0.20662049995735288,607.7758921999484,None,,,,,,,,,,,,,,,,,,,,,,,PPT37,001,2022-07-06_12h28.12.803,ABstudy,2022.1.4,59.955632814952125,
AB,Lag5_T1P_T2P,5,P,P,8,13,7,5,18,skis,Did you see the skis?,0.12,0.016,JPG\,tennisball01b,paintbrush01,medal02b,apple07,speaker04,iron01b,avocado01,downhillski,belt02a,toiletpaper01a,watermelon01,candle01,stapler01,cymbal,ashtray01,screwdriver04b,blankImage,downhillski,,,,,,,,,,,,0,90,90,106,,,,,,,,,,,,,,,,,,,,,,,,,,,,,,,,,,,608.0117194999475,609.0269063999876,608.993456199998,609.5858417999698,609.5858417999698,None,611.5128427000018,None,left,0.710510200005956,611.5128427000018,None,612.2465730999829,None,left,0.4325890999753028,612.2465730999829,None,,,,,,,,,,,,,,,,,,,,,,,PPT37,001,2022-07-06_12h28.12.803,ABstudy,2022.1.4,59.955632814952125,
AB,Lag5_T1P_T2P,5,P,P,7,12,6,5,17,tie,Did you see the tie?,0.12,0.016,JPG\,iron01b,orange,birthdaycandle,potato02b,cauliflower01,pencil01,tie02,candle08b,celery,tableknife02,pen04b,stapler06,ring01,rice,lemon02,tomato01,blankImage,tie02,,,,,,,,,,,,0,91,91,161,,,,,,,,,,,,,,,,,,,,,,,,,,,,,,,,,,,612.7018249999965,613.7149928999133,613.6984071999323,614.2856907999376,614.2856907999376,None,616.2380992999533,None,left,0.40062970004510134,616.2380992999533,None,616.6680004999507,None,left,0.16284310002811253,616.6680004999507,None,,,,,,,,,,,,,,,,,,,,,,,PPT37,001,2022-07-06_12h28.12.803,ABstudy,2022.1.4,59.955632814952125,
AB,Lag1_T1P_T2P,1,P,P,7,8,6,4,12,Christmas Tree,Did you see the Christmas Tree?,0.12,0.016,JPG\,sandal,fan,printer02,cellphone,mushroom01,candle08b,firtree,stapler03a,lamp04a,hammer01,teabag,aceofdiamond,blankImage,blankImage,blankImage,blankImage,blankImage,firtree,,,,,,,,,,,,0,92,92,6,,,,,,,,,,,,,,,,,,,,,,,,,,,,,,,,,,,616.8573069999693,617.869149099919,617.8525647999486,618.4347355999053,618.4347355999053,None,619.8913395999698,None,left,0.6677814999129623,619.8913395999698,None,620.5881972999778,None,right,0.13087740004993975,620.5881972999778,None,,,,,,,,,,,,,,,,,,,,,,,PPT37,001,2022-07-06_12h28.12.803,ABstudy,2022.1.4,59.955632814952125,
AB,Lag1_T1P_T2P,1,P,P,5,6,4,5,11,owl,Did you see the owl?,0.12,0.016,JPG\,cellphone,tomato01,comb02a,candy,barnowl,stapler03a,toaster01,fan,feather03a,pen04b,lemon02,blankImage,blankImage,blankImage,blankImage,blankImage,blankImage,barnowl,,,,,,,,,,,,0,93,93,33,,,,,,,,,,,,,,,,,,,,,,,,,,,,,,,,,,,620.7969108999241,621.8063259999035,621.7895616999594,622.38279589999,622.38279589999,None,623.6349439999321,None,left,0.6913358999881893,623.6349439999321,None,624.3432274999795,None,left,0.77595989999827,624.3432274999795,None,,,,,,,,,,,,,,,,,,,,,,,PPT37,001,2022-07-06_12h28.12.803,ABstudy,2022.1.4,59.955632814952125,
AB,Lag1_T1A_T2P,1,A,P,6,7,5,5,12,Treadmill,Did you see the Treadmill?,0.12,0.016,JPG\,pencil01,broccoli01a,button01,sponge01,watermelon01,lipstick02a,stapler04b,fan,lighter01,sock01a,spoon01,blueberry01,blankImage,blankImage,blankImage,blankImage,blankImage,magneticcompass,,,,,,,,,,,,0,94,94,238,,,,,,,,,,,,,,,,,,,,,,,,,,,,,,,,,,,625.1530993999913,626.1602549999952,626.1435624998994,626.7443626999157,626.7443626999157,None,628.172082999954,None,left,0.4987559999572113,628.172082999954,None,628.6962991999462,None,left,0.17440400004852563,628.6962991999462,None,,,,,,,,,,,,,,,,,,,,,,,PPT37,001,2022-07-06_12h28.12.803,ABstudy,2022.1.4,59.955632814952125,
AB,Lag1_T1P_T2P,1,P,P,6,7,5,4,11,American football,Did you see the American football?,0.12,0.016,JPG\,toaster01,garlic01a,faucet,fan,comb02a,football,stapler06,watch02a,onion,blueberry01,toiletpaper01a,blankImage,blankImage,blankImage,blankImage,blankImage,blankImage,football,,,,,,,,,,,,0,95,95,12,,,,,,,,,,,,,,,,,,,,,,,,,,,,,,,,,,,628.9004128999077,629.9141817999771,629.8974427999929,630.4749630999286,630.4749630999286,None,631.7932287999429,None,left,0.5251968000084162,631.7932287999429,None,632.3509932999732,None,left,0.18314019998069853,632.3509932999732,None,,,,,,,,,,,,,,,,,,,,,,,PPT37,001,2022-07-06_12h28.12.803,ABstudy,2022.1.4,59.955632814952125,
AB,Lag5_T1P_T2A,5,P,A,8,13,7,3,16,leaf blower,Did you see the leaf blower?,0.12,0.016,JPG\,printer02,leaf02a,cauliflower01,sock01a,brownsugar,paintbrush01,pig,leafblower01,belt02a,shirt02,key01,match,cigarette,scissors01,envelope03a,blueberry01,blankImage,leafblower01,,,,,,,,,,,,0,96,96,216,,,,,,,,,,,,,,,,,,,,,,,,,,,,,,,,,,,632.5706980999094,633.5845165998908,633.5679320999188,634.1703298999928,634.1703298999928,None,636.1596162999049,None,left,0.35076230007689446,636.1596162999049,None,636.5376480999403,None,left,0.28532030002679676,636.5376480999403,None,,,,,,,,,,,,,,,,,,,,,,,PPT37,001,2022-07-06_12h28.12.803,ABstudy,2022.1.4,59.955632814952125,
AB,Lag5_T1P_T2A,5,P,A,7,12,6,5,17,flower,Did you see the flower?,0.12,0.016,JPG\,cellphone,tomato01,comb02a,candy,celery,cucumber,craneflower,fan,feather03a,pen04b,lemon02,blueberry01,plate01b,cherry01,baseball01a,candle08b,blankImage,craneflower,,,,,,,,,,,,0,97,97,211,,,,,,,,,,,,,,,,,,,,,,,,,,,,,,,,,,,636.865522399894,637.8727367999963,637.8571659999434,638.4458295999793,638.4458295999793,None,640.40170269995,None,left,0.3885930000105873,640.40170269995,None,640.8087434999179,None,right,0.2057388999965042,640.8087434999179,None,,,,,,,,,,,,,,,,,,,,,,,PPT37,001,2022-07-06_12h28.12.803,ABstudy,2022.1.4,59.955632814952125,
AB,Lag5_T1P_T2P,5,P,P,5,10,4,4,14,Christmas lights,Did you see the Christmas lights?,0.12,0.016,JPG\,binoculars01b,cymbal,pizza,candy,christmaslights,sponge01,grape01,thermometer02b,speaker04,stapler03a,lipstick02a,strawberry,candle01,tambourine02,blankImage,blankImage,blankImage,christmaslights,,,,,,,,,,,,0,98,98,168,,,,,,,,,,,,,,,,,,,,,,,,,,,,,,,,,,,641.0486369999126,642.0598249000032,642.0430254999083,642.6340111999307,642.6340111999307,None,644.3459087999072,None,left,0.4301483000162989,644.3459087999072,None,644.798582599964,None,left,0.18430710001848638,644.798582599964,None,,,,,,,,,,,,,,,,,,,,,,,PPT37,001,2022-07-06_12h28.12.803,ABstudy,2022.1.4,59.955632814952125,
AB,Lag1_T1P_T2P,1,P,P,8,9,7,3,12,Eiffel tower,Did you see the Eiffel tower?,0.12,0.016,JPG\,celery,tennisball01b,calculator01,pear01,screw02,orange,button01,eiffeltower,stapler03b,apple07,iron01b,brownsugar,blankImage,blankImage,blankImage,blankImage,blankImage,eiffeltower,,,,,,,,,,,,0,99,99,40,,,,,,,,,,,,,,,,,,,,,,,,,,,,,,,,,,,645.0261397999711,646.03022039996,646.0135549999541,646.6495444999309,646.5753059999552,None,647.9709121999331,None,left,0.8037722998997197,647.9709121999331,None,648.7999522999162,None,right,0.2068807000759989,648.7999522999162,None,,,,,,,,,,,,,,,,,,,,,,,PPT37,001,2022-07-06_12h28.12.803,ABstudy,2022.1.4,59.955632814952125,
AB,Lag1_T1P_T2P,1,P,P,6,7,5,3,10,jelly beans,Did you see the jelly beans?,0.12,0.016,JPG\,lipstick02a,cucumber,candle08b,printer02,grape01,jellybean,stapler01,lighter01,belt02a,balloon01b,blankImage,blankImage,blankImage,blankImage,blankImage,blankImage,blankImage,jellybean,,,,,,,,,,,,0,100,100,15,,,,,,,,,,,,,,,,,,,,,,,,,,,,,,,,,,,649.0436051998986,650.0512023000047,650.0345112999203,650.595790399937,650.595790399937,None,651.8358739999821,None,left,0.450523899984546,651.8358739999821,None,652.3031310999068,None,left,0.18376559996977448,652.3031310999068,None,,,,,,,,,,,,,,,,,,,,,,,PPT37,001,2022-07-06_12h28.12.803,ABstudy,2022.1.4,59.955632814952125,
AB,Lag1_T1P_T2P,1,P,P,7,8,6,5,13,tiger,Did you see the tiger?,0.12,0.016,JPG\,globe,broccoli01a,binoculars01b,iron01b,avocado01,dandelion,tiger02,stapler03b,fan,pizza,celery,blueberry01,sewingmachine01a,blankImage,blankImage,blankImage,blankImage,tiger02,,,,,,,,,,,,0,101,101,50,,,,,,,,,,,,,,,,,,,,,,,,,,,,,,,,,,,652.5077969999984,653.5212458999595,653.5044513999019,654.1024647000013,654.1024647000013,None,655.705496499897,None,left,0.7568571000592783,655.705496499897,None,656.4908641999355,None,right,0.17996500001754612,656.4908641999355,None,,,,,,,,,,,,,,,,,,,,,,,PPT37,001,2022-07-06_12h28.12.803,ABstudy,2022.1.4,59.955632814952125,
AB,Lag5_T1A_T2A,5,A,A,6,11,5,5,16,shrimp,Did you see the shrimp?,0.12,0.016,JPG\,speaker04,sewingmachine01a,eraser,violin,globe,belt02a,sunglasses04,cymbal,cd,greenolive,alligator,pear01,watch02a,screwdriver04b,banana01,cigarette,blankImage,rollerblade,,,,,,,,,,,,0,102,102,300,,,,,,,,,,,,,,,,,,,,,,,,,,,,,,,,,,,656.6993164999876,657.708539999905,657.6918611999135,658.2823674998945,658.2823674998945,None,660.1852614999516,None,right,0.8450438999570906,660.1852614999516,None,661.0644505999517,None,right,6.333991199964657,661.0644505999517,None,,,,,,,,,,,,,,,,,,,,,,,PPT37,001,2022-07-06_12h28.12.803,ABstudy,2022.1.4,59.955632814952125,
AB,Lag5_T1P_T2P,5,P,P,6,11,5,3,14,shower head,Did you see the shower head?,0.12,0.016,JPG\,belt02a,measuringcup01,spoon01,chain01,greenolive,showerhead01,computerkeyboard02,onion,fan,strawberry,stapler01,broom01,binoculars01b,ashtray01,blankImage,blankImage,blankImage,showerhead01,,,,,,,,,,,,0,103,103,98,,,,,,,,,,,,,,,,,,,,,,,,,,,,,,,,,,,667.4187639999436,668.4192614000058,668.4025765999686,668.9647431999911,668.9647431999911,None,670.7316206999822,None,left,0.6262325999559835,670.7316206999822,None,671.3744485999923,None,left,0.17598429997451603,671.3744485999923,None,,,,,,,,,,,,,,,,,,,,,,,PPT37,001,2022-07-06_12h28.12.803,ABstudy,2022.1.4,59.955632814952125,
AB,Lag1_T1P_T2A,1,P,A,5,6,4,5,11,Electric toothbrush,Did you see the Electric toothbrush?,0.12,0.016,JPG\,carrot01,greenolive,fork03c,chain01,electrictoothbrush01c,watermelon01,tableknife02,printer02,comb02a,toaster01,orange,blankImage,blankImage,blankImage,blankImage,blankImage,blankImage,electrictoothbrush01c,,,,,,,,,,,,0,104,104,186,,,,,,,,,,,,,,,,,,,,,,,,,,,,,,,,,,,671.6111406999407,672.6236204999732,672.6067954999162,673.1971496999031,673.1971496999031,None,674.5610638998915,None,left,0.7012378999497741,674.5610638998915,None,675.2929727999726,None,right,0.2334938000421971,675.2929727999726,None,,,,,,,,,,,,,,,,,,,,,,,PPT37,001,2022-07-06_12h28.12.803,ABstudy,2022.1.4,59.955632814952125,
AB,Lag1_T1P_T2P,1,P,P,6,7,5,3,10,handcuffs,Did you see the handcuffs?,0.12,0.016,JPG\,sewingmachine01a,scarf,carrot01,book01b,eraser,handcuffs,stapler05,lipstick02a,printer02,garlic01a,blankImage,blankImage,blankImage,blankImage,blankImage,blankImage,blankImage,handcuffs,,,,,,,,,,,,0,105,105,2,,,,,,,,,,,,,,,,,,,,,,,,,,,,,,,,,,,675.545493499958,676.5609907999169,676.527634399943,677.1074303999776,677.1074303999776,None,678.4567493998911,None,left,1.1336383000016212,678.4567493998911,None,679.6140251999022,None,left,0.18536289990879595,679.6140251999022,None,,,,,,,,,,,,,,,,,,,,,,,PPT37,001,2022-07-06_12h28.12.803,ABstudy,2022.1.4,59.955632814952125,
AB,Lag5_T1P_T2A,5,P,A,5,10,4,3,13,martini glass,Did you see the martini glass?,0.12,0.016,JPG\,brick,eraser,cucumber,ashtray01,martiniglass01b,binoculars01b,lipstick02a,screwdriver04b,grape01,brownsugar,battery02b,iron01b,dice05a,blankImage,blankImage,blankImage,blankImage,martiniglass01b,,,,,,,,,,,,0,106,106,217,,,,,,,,,,,,,,,,,,,,,,,,,,,,,,,,,,,679.8355516999727,680.8484145998955,680.8316887998953,681.421270999941,681.421270999941,None,683.000482799951,None,left,1.4865232000593096,683.000482799951,None,684.5185398999602,None,right,0.6801536000566557,684.5185398999602,None,,,,,,,,,,,,,,,,,,,,,,,PPT37,001,2022-07-06_12h28.12.803,ABstudy,2022.1.4,59.955632814952125,
AB,Lag1_T1A_T2P,1,A,P,8,9,7,3,12,seal,Did you see the seal?,0.12,0.016,JPG\,dice05a,watch02a,pig,lighter01,button01,strawberry,paintbrush01,microscope,stapler03a,pen04b,feather03a,8ball,blankImage,blankImage,blankImage,blankImage,blankImage,hockeystick,,,,,,,,,,,,0,107,107,235,,,,,,,,,,,,,,,,,,,,,,,,,,,,,,,,,,,685.2215021000011,686.2373824999668,686.2036872999743,686.7926045999629,686.7926045999629,None,688.3233605999267,None,right,0.9393201000057161,688.3233605999267,None,689.2903180998983,None,right,0.37252589990384877,689.2903180998983,None,,,,,,,,,,,,,,,,,,,,,,,PPT37,001,2022-07-06_12h28.12.803,ABstudy,2022.1.4,59.955632814952125,
AB,Lag5_T1P_T2P,5,P,P,6,11,5,5,16,sword,Did you see the sword?,0.12,0.016,JPG\,chain01,speaker04,avocado01,watermelon01,scarf,sword01,lamp04a,fork03c,toaster01,slipper03b,stapler03a,cucumber,teabag,ashtray01,computerkeyboard02,book01b,blankImage,sword01,,,,,,,,,,,,0,108,108,143,,,,,,,,,,,,,,,,,,,,,,,,,,,,,,,,,,,689.695830599987,690.708295499906,690.6914733999874,691.2807269999757,691.2807269999757,None,693.1865078998962,None,left,0.6840441999956965,693.1865078998962,None,693.8956450999249,None,right,0.2069852000568062,693.8956450999249,None,,,,,,,,,,,,,,,,,,,,,,,PPT37,001,2022-07-06_12h28.12.803,ABstudy,2022.1.4,59.955632814952125,
AB,Lag5_T1P_T2P,5,P,P,5,10,4,5,15,rake,Did you see the rake?,0.12,0.016,JPG\,scissors01,grape01,mushroom01,toiletpaper01a,leafrake,pizza,cigarette,ashtray01,carrot01,stapler03b,foosballtable,lipstick02a,teabag,acorn,potato02b,blankImage,blankImage,leafrake,,,,,,,,,,,,0,109,109,92,,,,,,,,,,,,,,,,,,,,,,,,,,,,,,,,,,,694.1331875999458,695.1461706999689,695.129477999988,695.6969500998966,695.6969500998966,None,697.5977146999212,None,left,0.4087693999754265,697.5977146999212,None,698.0323506999994,None,left,0.2542124999454245,698.0323506999994,None,,,,,,,,,,,,,,,,,,,,,,,PPT37,001,2022-07-06_12h28.12.803,ABstudy,2022.1.4,59.955632814952125,
AB,Lag5_T1P_T2A,5,P,A,6,11,5,5,16,hat,Did you see the hat?,0.12,0.016,JPG\,apple07,toiletpaper01a,pizza,dandelion,greenolive,pilgrimhat,microscope,violin,orange,lipstick02a,balloon01b,sandal,lighter01,fan,book01b,sewingmachine01a,blankImage,pilgrimhat,,,,,,,,,,,,0,110,110,206,,,,,,,,,,,,,,,,,,,,,,,,,,,,,,,,,,,698.3186087999493,699.31745089998,699.3013438999187,699.8911063999403,699.8911063999403,None,701.886707299971,None,left,0.7436002999311313,701.886707299971,None,702.6535987999523,None,left,0.22497009998187423,702.6535987999523,None,,,,,,,,,,,,,,,,,,,,,,,PPT37,001,2022-07-06_12h28.12.803,ABstudy,2022.1.4,59.955632814952125,
AB,Lag1_T1P_T2P,1,P,P,6,7,5,5,12,exit sign,Did you see the exit sign?,0.12,0.016,JPG\,printer02,envelope03a,potato02b,calculator01,tableknife02,exitsign,stapler01,pig,broom01,greenolive,candle08b,battery02b,blankImage,blankImage,blankImage,blankImage,blankImage,exitsign,,,,,,,,,,,,0,111,111,41,,,,,,,,,,,,,,,,,,,,,,,,,,,,,,,,,,,702.9100556999911,703.9213547999971,703.9046759000048,704.4987462999998,704.4987462999998,None,705.9831198999891,None,left,0.8229962999466807,705.9831198999891,None,706.8244866000023,None,right,0.24562259996309876,706.8244866000023,None,,,,,,,,,,,,,,,,,,,,,,,PPT37,001,2022-07-06_12h28.12.803,ABstudy,2022.1.4,59.955632814952125,
AB,Lag1_T1P_T2P,1,P,P,8,9,7,4,13,peacock,Did you see the peacock?,0.12,0.016,JPG\,hammer01,sponge01,toaster01,cherry01,feather03a,mushroom01,measuringcup01,peacock,stapler03a,brick,clock04,medal02b,teabag,blankImage,blankImage,blankImage,blankImage,peacock,,,,,,,,,,,,0,112,112,68,,,,,,,,,,,,,,,,,,,,,,,,,,,,,,,,,,,707.0960496999323,708.1089973999187,708.09220059996,708.661206599907,708.661206599907,None,710.2522163999965,None,left,0.6745577999390662,710.2522163999965,None,710.9461257999064,None,right,0.22046820004470646,710.9461257999064,None,,,,,,,,,,,,,,,,,,,,,,,PPT37,001,2022-07-06_12h28.12.803,ABstudy,2022.1.4,59.955632814952125,
AB,Lag5_T1P_T2P,5,P,P,7,12,6,5,17,American football helmet,Did you see the American football helmet?,0.12,0.016,JPG\,alligator,banana01,apple07,tomato01,button01,spoon01,footballhelmet,fork03c,slipper03b,potato02b,grape01,stapler03b,teabag,screwdriver04b,hammer01,tennisball01b,blankImage,footballhelmet,,,,,,,,,,,,0,113,113,148,,,,,,,,,,,,,,,,,,,,,,,,,,,,,,,,,,,711.2056659999071,712.2130718999542,712.1965307999635,712.6979116000002,712.6979116000002,None,714.69755729998,None,left,1.5814664999488741,714.69755729998,None,716.3002433999209,None,right,0.40205859998241067,716.3002433999209,None,,,,,,,,,,,,,,,,,,,,,,,PPT37,001,2022-07-06_12h28.12.803,ABstudy,2022.1.4,59.955632814952125,
AB,Lag1_T1P_T2P,1,P,P,6,7,5,5,12,bat,Did you see the bat?,0.12,0.016,JPG\,comb02a,key01,medal02b,battery02b,lighter01,bat,stapler05,sandal,pig,cellphone,computerkeyboard02,calculator01,blankImage,blankImage,blankImage,blankImage,blankImage,bat,,,,,,,,,,,,0,114,114,35,,,,,,,,,,,,,,,,,,,,,,,,,,,,,,,,,,,716.7361923999852,717.7355567999184,717.7187773999758,718.3027225999394,718.3027225999394,None,719.8173356999177,None,left,0.6772048000711948,719.8173356999177,None,720.522678499925,None,right,34.16339030000381,720.522678499925,None,,,,,,,,,,,,,,,,,,,,,,,PPT37,001,2022-07-06_12h28.12.803,ABstudy,2022.1.4,59.955632814952125,
AB,Lag1_T1P_T2P,1,P,P,7,8,6,3,11,harmonica,Did you see the harmonica?,0.12,0.016,JPG\,cucumber,ring01,lipstick02a,microscope,violin,garlic01a,harmonica,stapler03b,cherry01,sewingmachine01a,belt02a,blankImage,blankImage,blankImage,blankImage,blankImage,blankImage,harmonica,,,,,,,,,,,,0,115,115,43,,,,,,,,,,,,,,,,,,,,,,,,,,,,,,,,,,,754.7115512999007,755.7231304999441,755.7063824998913,756.2849160999758,756.2849160999758,None,757.6301385998959,None,left,0.42430689989123493,757.6301385998959,None,758.0754927999806,None,left,0.16383949993178248,758.0754927999806,None,,,,,,,,,,,,,,,,,,,,,,,PPT37,001,2022-07-06_12h28.12.803,ABstudy,2022.1.4,59.955632814952125,
AB,Lag1_T1P_T2P,1,P,P,7,8,6,3,11,locker,Did you see the locker?,0.12,0.016,JPG\,toiletpaper01a,lipstick02a,potato02b,speaker04,globe,strawberry,locker,stapler04b,sock01a,candle08b,pen04b,blankImage,blankImage,blankImage,blankImage,blankImage,blankImage,locker,,,,,,,,,,,,0,116,116,19,,,,,,,,,,,,,,,,,,,,,,,,,,,,,,,,,,,758.2625407999149,759.2766543999314,759.2599828999955,759.8351288998965,759.8351288998965,None,761.2441473999061,None,left,0.36152820009738207,761.2441473999061,None,761.6304518999532,None,left,0.15140770003199577,761.6304518999532,None,,,,,,,,,,,,,,,,,,,,,,,PPT37,001,2022-07-06_12h28.12.803,ABstudy,2022.1.4,59.955632814952125,
AB,Lag5_T1A_T2A,5,A,A,7,12,6,4,16,boxing glove,Did you see the boxing glove?,0.12,0.016,JPG\,cherry01,cymbal,envelope03a,foosballtable,shirt02,cellphone,sewingmachine01a,candle08b,battery02b,apple07,pencil01,screwdriver04b,strawberry,sunglasses04,feather03a,rice,blankImage,lollipop04,,,,,,,,,,,,0,117,117,296,,,,,,,,,,,,,,,,,,,,,,,,,,,,,,,,,,,761.8188722999766,762.8300007999642,762.8132908999687,763.4096289000008,763.4096289000008,None,765.3040963999229,None,right,0.6469001000514254,765.3040963999229,None,765.9829992000014,None,left,0.35100749996490777,765.9829992000014,None,,,,,,,,,,,,,,,,,,,,,,,PPT37,001,2022-07-06_12h28.12.803,ABstudy,2022.1.4,59.955632814952125,
AB,Lag5_T1P_T2A,5,P,A,5,10,4,4,14,rocket,Did you see the rocket?,0.12,0.016,JPG\,fan,tomato01,candy,screwdriver04b,spacerocket,cd,thermometer02b,apple07,button01,plate01b,brownsugar,lighter01,clock01a,envelope03a,blankImage,blankImage,blankImage,spacerocket,,,,,,,,,,,,0,118,118,226,,,,,,,,,,,,,,,,,,,,,,,,,,,,,,,,,,,766.3689874999691,767.384377899929,767.3510657999432,767.9446382999886,767.9446382999886,None,769.6348539999453,None,left,0.6120606999611482,769.6348539999453,None,770.2705611999845,None,left,0.4792230000020936,770.2705611999845,None,,,,,,,,,,,,,,,,,,,,,,,PPT37,001,2022-07-06_12h28.12.803,ABstudy,2022.1.4,59.955632814952125,
AB,Lag5_T1P_T2P,5,P,P,6,11,5,3,14,fish,Did you see the fish?,0.12,0.016,JPG\,broom01,globe,cellphone,tableknife02,cauliflower01,holdfast,ring01,alligator,rice,toaster01,stapler03b,grape01,microscope,cucumber,blankImage,blankImage,blankImage,holdfast,,,,,,,,,,,,0,119,119,133,,,,,,,,,,,,,,,,,,,,,,,,,,,,,,,,,,,770.773655799916,771.7892212999286,771.7557222999167,772.3467451999895,772.3467451999895,None,774.0374497999437,None,left,0.416507099987939,774.0374497999437,None,774.4771386999637,None,left,0.2004728999454528,774.4771386999637,None,,,,,,,,,,,,,,,,,,,,,,,PPT37,001,2022-07-06_12h28.12.803,ABstudy,2022.1.4,59.955632814952125,
AB,Lag1_T1P_T2P,1,P,P,8,9,7,5,14,lawn mower,Did you see the lawn mower?,0.12,0.016,JPG\,battery02b,sunglasses04,pear01,tennisball01b,clock01a,speaker04,binoculars01b,lawnmower,stapler05,pineapple01a,avocado01,grape01,blueberry01,violin,blankImage,blankImage,blankImage,lawnmower,,,,,,,,,,,,0,120,120,46,,,,,,,,,,,,,,,,,,,,,,,,,,,,,,,,,,,774.7093917999882,775.7096261999104,775.6927283999976,776.281072499929,776.281072499929,None,777.991916299914,None,left,0.4380618000868708,777.991916299914,None,778.4626669998979,None,left,0.17611110000871122,778.4626669998979,None,,,,,,,,,,,,,,,,,,,,,,,PPT37,001,2022-07-06_12h28.12.803,ABstudy,2022.1.4,59.955632814952125,
AB,Lag5_T1A_T2A,5,A,A,5,10,4,4,14,music sheet,Did you see the music sheet?,0.12,0.016,JPG\,celery,pencil01,fan,foosballtable,iron01b,shirt02,potato02b,fork03c,button01,pineapple01a,baseball01a,printer02,cauliflower01,dandelion,blankImage,blankImage,blankImage,licenseplate,,,,,,,,,,,,0,121,121,304,,,,,,,,,,,,,,,,,,,,,,,,,,,,,,,,,,,778.673234899994,779.6798193999566,779.6630545998923,780.2338411998935,780.2338411998935,None,781.8556546999607,None,right,0.9105845999438316,781.8556546999607,None,782.7834298999514,None,left,0.3027643000241369,782.7834298999514,None,,,,,,,,,,,,,,,,,,,,,,,PPT37,001,2022-07-06_12h28.12.803,ABstudy,2022.1.4,59.955632814952125,
AB,Lag1_T1P_T2P,1,P,P,5,6,4,5,11,Basketball,Did you see the Basketball?,0.12,0.016,JPG\,pencil01,microscope,banana01,computerkeyboard02,basketball01,stapler04b,scissors01,sock01a,book01b,onion,dice05a,blankImage,blankImage,blankImage,blankImage,blankImage,blankImage,basketball01,,,,,,,,,,,,0,122,122,34,,,,,,,,,,,,,,,,,,,,,,,,,,,,,,,,,,,783.1221647999482,784.1345632999437,784.1177723999135,784.7139653000049,784.7139653000049,None,786.0327292999718,None,left,0.4531014999374747,786.0327292999718,None,786.5046688999282,None,left,0.15769949997775257,786.5046688999282,None,,,,,,,,,,,,,,,,,,,,,,,PPT37,001,2022-07-06_12h28.12.803,ABstudy,2022.1.4,59.955632814952125,
AB,Lag1_T1P_T2P,1,P,P,8,9,7,4,13,kite,Did you see the kite?,0.12,0.016,JPG\,scissors01,balloon01b,eraser,feather03a,banana01,candle01,measuringcup01,kite,stapler04b,strawberry,pear01,carrot01,globe,blankImage,blankImage,blankImage,blankImage,kite,,,,,,,,,,,,0,123,123,17,,,,,,,,,,,,,,,,,,,,,,,,,,,,,,,,,,,786.6953922999091,787.7046491999645,787.6878829000052,788.2643586999038,788.2643586999038,None,789.9027331999969,None,left,1.1994636999443173,789.9027331999969,None,791.1246685999213,None,left,0.16131699993275106,791.1246685999213,None,,,,,,,,,,,,,,,,,,,,,,,PPT37,001,2022-07-06_12h28.12.803,ABstudy,2022.1.4,59.955632814952125,
AB,Lag1_T1P_T2P,1,P,P,8,9,7,4,13,Hula hoop,Did you see the Hula hoop?,0.12,0.016,JPG\,brownsugar,candle01,match,printer02,broom01,balloon01b,belt02a,hulahoop,stapler04b,feather03a,rice,mushroom01,pencil01,blankImage,blankImage,blankImage,blankImage,hulahoop,,,,,,,,,,,,0,124,124,64,,,,,,,,,,,,,,,,,,,,,,,,,,,,,,,,,,,791.3140776999062,792.3258800999029,792.3091993998969,792.8096653999528,792.8096653999528,None,794.4600295999553,None,left,0.3866897999541834,794.4600295999553,None,794.8802064999472,None,left,0.1584898999426514,794.8802064999472,None,,,,,,,,,,,,,,,,,,,,,,,PPT37,001,2022-07-06_12h28.12.803,ABstudy,2022.1.4,59.955632814952125,
AB,Lag5_T1P_T2P,5,P,P,8,13,7,5,18,popcorn,Did you see the popcorn?,0.12,0.016,JPG\,toaster01,garlic01a,hairclip03,fan,comb02a,apple07,orange,popcorn,onion,blueberry01,toiletpaper01a,fork03c,stapler06,pineapple01a,scarf,eraser,blankImage,popcorn,,,,,,,,,,,,0,125,125,155,,,,,,,,,,,,,,,,,,,,,,,,,,,,,,,,,,,795.0653442000039,796.0796836999943,796.0463316999376,796.6499360000016,796.6499360000016,None,798.6504742999095,None,left,0.3793980000773445,798.6504742999095,None,799.0497894999571,None,left,0.25234530004672706,799.0497894999571,None,,,,,,,,,,,,,,,,,,,,,,,PPT37,001,2022-07-06_12h28.12.803,ABstudy,2022.1.4,59.955632814952125,
AB,Lag5_T1P_T2P,5,P,P,6,11,5,5,16,table,Did you see the table?,0.12,0.016,JPG\,birthdaycandle,mushroom01,strawberry,match,cherry01,table01,hammer01,thermometer02b,sock01a,ring01,stapler06,banana01,toiletpaper01a,key01,sponge01,teabag,blankImage,table01,,,,,,,,,,,,0,126,126,144,,,,,,,,,,,,,,,,,,,,,,,,,,,,,,,,,,,799.336378499982,800.3506961999228,800.3339234999148,800.8347992999479,800.8347992999479,None,802.8848509999225,None,left,5.842734300065786,802.8848509999225,None,808.7619444999145,None,right,1.3333530999952927,808.7619444999145,None,,,,,,,,,,,,,,,,,,,,,,,PPT37,001,2022-07-06_12h28.12.803,ABstudy,2022.1.4,59.955632814952125,
AB,Lag5_T1A_T2P,5,A,P,7,12,6,4,16,hand,Did you see the hand?,0.12,0.016,JPG\,celery,tennisball01b,calculator01,pear01,screw02,orange,button01,cellphone,onion,apple07,iron01b,stapler05,banana01,paintbrush01,dandelion,toothbrush03b,blankImage,bull,,,,,,,,,,,,0,127,127,281,,,,,,,,,,,,,,,,,,,,,,,,,,,,,,,,,,,810.130100099952,811.1285170000046,811.1128935999004,811.698761699954,811.698761699954,None,813.6690597999841,None,right,0.5451968999113888,813.6690597999841,None,814.2313993999269,None,left,0.22289710002951324,814.2313993999269,None,,,,,,,,,,,,,,,,,,,,,,,PPT37,001,2022-07-06_12h28.12.803,ABstudy,2022.1.4,59.955632814952125,
AB,Lag1_T1P_T2P,1,P,P,8,9,7,5,14,giraffe,Did you see the giraffe?,0.12,0.016,JPG\,pencil01,foosballtable,banana01,lipstick02a,toaster01,grape01,key01,giraffe,stapler03b,pineapple01a,strawberry,teabag,dandelion,paintbrush01,blankImage,blankImage,blankImage,giraffe,,,,,,,,,,,,0,128,128,0,,,,,,,,,,,,,,,,,,,,,,,,,,,,,,,,,,,814.488173199934,815.4989746999927,815.4822930999799,816.0535590999061,816.0535590999061,None,817.7596709999489,None,left,0.3582890999969095,817.7596709999489,None,818.1353705999209,None,left,0.1745060000102967,818.1353705999209,None,,,,,,,,,,,,,,,,,,,,,,,PPT37,001,2022-07-06_12h28.12.803,ABstudy,2022.1.4,59.955632814952125,
AB,Lag1_T1P_T2P,1,P,P,5,6,4,3,9,camel,Did you see the camel?,0.12,0.016,JPG\,iron01b,brick,broccoli01a,balloon01b,dromedary,stapler05,sandal,teabag,scissors01,blankImage,blankImage,blankImage,blankImage,blankImage,blankImage,blankImage,blankImage,dromedary,,,,,,,,,,,,0,129,129,11,,,,,,,,,,,,,,,,,,,,,,,,,,,,,,,,,,,818.3383525999961,819.352828299976,819.3194463999243,819.9026209999574,819.9026209999574,None,821.0405717999674,None,left,0.39080930000636727,821.0405717999674,None,821.4552879999392,None,left,0.1907040000660345,821.4552879999392,None,,,,,,,,,,,,,,,,,,,,,,,PPT37,001,2022-07-06_12h28.12.803,ABstudy,2022.1.4,59.955632814952125,
AB,Lag1_T1A_T2P,1,A,P,7,8,6,3,11,lion,Did you see the lion?,0.12,0.016,JPG\,sock01a,spoon01,alligator,comb02a,printer02,medal02b,lamp04a,stapler01,greenolive,computerkeyboard02,cauliflower01,blankImage,blankImage,blankImage,blankImage,blankImage,blankImage,bullet,,,,,,,,,,,,0,130,130,229,,,,,,,,,,,,,,,,,,,,,,,,,,,,,,,,,,,821.6718925999012,822.6727430999745,822.656049799989,823.2367592999944,823.2367592999944,None,824.645805099979,None,right,0.848546399967745,824.645805099979,None,825.525341099943,None,left,0.8568812999874353,825.525341099943,None,,,,,,,,,,,,,,,,,,,,,,,PPT37,001,2022-07-06_12h28.12.803,ABstudy,2022.1.4,59.955632814952125,
AB,Lag1_T1P_T2P,1,P,P,5,6,4,3,9,mail box,Did you see the mail box?,0.12,0.016,JPG\,watermelon01,banana01,ring01,pencil01,mailbox02,stapler04b,cucumber,thermometer02b,key01,blankImage,blankImage,blankImage,blankImage,blankImage,blankImage,blankImage,blankImage,mailbox02,,,,,,,,,,,,0,131,131,21,,,,,,,,,,,,,,,,,,,,,,,,,,,,,,,,,,,826.4127457999857,827.4274995999876,827.3940975998994,828.0595473999856,828.0595473999856,None,829.1870463999221,None,left,0.8669321000343189,829.1870463999221,None,830.0829998999834,None,right,0.6427882000571117,830.0829998999834,None,,,,,,,,,,,,,,,,,,,,,,,PPT37,001,2022-07-06_12h28.12.803,ABstudy,2022.1.4,59.955632814952125,
AB,Lag1_T1A_T2P,1,A,P,8,9,7,4,13,Christmas tree,Did you see the Christmas tree?,0.12,0.016,JPG\,broom01,globe,cellphone,tableknife02,cauliflower01,scissors01,ring01,alligator,stapler03a,toaster01,cigarette,grape01,microscope,blankImage,blankImage,blankImage,blankImage,windmill,,,,,,,,,,,,0,132,132,247,,,,,,,,,,,,,,,,,,,,,,,,,,,,,,,,,,,830.7585980999283,831.7657333998941,831.7501682000002,832.3321418999694,832.3321418999694,None,833.9162710999371,None,right,0.7062054000562057,833.9162710999371,None,834.651665299898,None,left,0.5461182999424636,834.651665299898,None,,,,,,,,,,,,,,,,,,,,,,,PPT37,001,2022-07-06_12h28.12.803,ABstudy,2022.1.4,59.955632814952125,
AB,Lag5_T1P_T2P,5,P,P,5,10,4,5,15,funnel,Did you see the funnel?,0.12,0.016,JPG\,pineapple01a,tennisball01b,computerkeyboard02,feather03a,funnel,acorn,violin,blueberry01,medal02b,stapler01,greenolive,screwdriver04b,potato02b,fork03c,cymbal,blankImage,blankImage,funnel,,,,,,,,,,,,0,133,133,109,,,,,,,,,,,,,,,,,,,,,,,,,,,,,,,,,,,835.225132899941,836.2365282999817,836.2199674999574,836.7933993999613,836.7933993999613,None,838.5424823999638,None,right,0.863742999965325,838.5424823999638,None,839.4233773999149,None,left,0.6469929000595585,839.4233773999149,None,,,,,,,,,,,,,,,,,,,,,,,PPT37,001,2022-07-06_12h28.12.803,ABstudy,2022.1.4,59.955632814952125,
AB,Lag1_T1A_T2P,1,A,P,5,6,4,3,9,barrel,Did you see the barrel?,0.12,0.016,JPG\,clock01a,cellphone,toaster01,toothbrush03b,cauliflower01,stapler01,comb02a,paintbrush01,scarf,blankImage,blankImage,blankImage,blankImage,blankImage,blankImage,blankImage,blankImage,sheep,,,,,,,,,,,,0,134,134,243,,,,,,,,,,,,,,,,,,,,,,,,,,,,,,,,,,,840.0941677999217,841.108022499946,841.0912239999743,841.6950406999094,841.6950406999094,None,842.8142228999641,None,right,0.9672996000153944,842.8142228999641,None,843.8114263999742,None,left,0.218155000009574,843.8114263999742,None,,,,,,,,,,,,,,,,,,,,,,,PPT37,001,2022-07-06_12h28.12.803,ABstudy,2022.1.4,59.955632814952125,
AB,Lag5_T1P_T2P,5,P,P,8,13,7,5,18,Ping pong Table,Did you see the Ping pong Table?,0.12,0.016,JPG\,shirt02,match,screw02,foosballtable,blueberry01,pineapple01a,sewingmachine01a,pingpongtable,button01,comb02a,dice05a,measuringcup01,stapler04b,printer02,carrot01,watermelon01,blankImage,pingpongtable,,,,,,,,,,,,0,135,135,152,,,,,,,,,,,,,,,,,,,,,,,,,,,,,,,,,,,844.0693090999266,845.0786914000055,845.0619458999718,845.636803500005,845.636803500005,None,847.5900051998906,None,left,0.46430979995056987,847.5900051998906,None,848.0844503999688,None,left,0.19373339996673167,848.0844503999688,None,,,,,,,,,,,,,,,,,,,,,,,PPT37,001,2022-07-06_12h28.12.803,ABstudy,2022.1.4,59.955632814952125,
AB,Lag5_T1P_T2A,5,P,A,5,10,4,3,13,Totem Pole,Did you see the Totem Pole?,0.12,0.016,JPG\,canoftennisballs,banana01,scissors01,pig,totempole,leaf02a,pear01,sponge01,fork03c,tableknife02,balloon01b,match,toothbrush03b,blankImage,blankImage,blankImage,blankImage,totempole,,,,,,,,,,,,0,136,136,202,,,,,,,,,,,,,,,,,,,,,,,,,,,,,,,,,,,848.3082866999321,849.3157792999409,849.2990423999727,849.8786307999399,849.8786307999399,None,851.4946249999339,None,right,0.8154019999783486,851.4946249999339,None,852.3500216999091,None,right,1.3519085999578238,852.3500216999091,None,,,,,,,,,,,,,,,,,,,,,,,PPT37,001,2022-07-06_12h28.12.803,ABstudy,2022.1.4,59.955632814952125,
