TrialType,CondType,Lag,T1_PA,T2_PA,T1Loc,T2Loc,PreDistractor,PostDistractor,TotalImg,cueWord,T1cue,StimLength,isi,PicFolder,Img1,Img2,Img3,Img4,Img5,Img6,Img7,Img8,Img9,Img10,Img11,Img12,Img13,Img14,Img15,Img16,Img17,T1_Identity,ImageType,T1PA,T2PA,Picture,Image,FullPathName,FilePath,Practice_Trials.thisRepN,Practice_Trials.thisTrialN,Practice_Trials.thisN,Practice_Trials.thisIndex,trials.thisRepN,trials.thisTrialN,trials.thisN,trials.thisIndex,trials_2.thisRepN,trials_2.thisTrialN,trials_2.thisN,trials_2.thisIndex,Practice_Ins.started,Practice_Ins.stopped,End_Prac_Ins.keys,End_Prac_Ins.rt,End_Prac_Ins.started,End_Prac_Ins.stopped,text_2.started,text_2.stopped,Fixation_Cross_2.started,Fixation_Cross_2.stopped,Rapid_Image_Present_2.started,Rapid_Image_Present_2.stopped,key_resp.keys,key_resp.rt,key_resp.started,key_resp.stopped,T1Response_2.started,T1Response_2.stopped,T2Response_2.started,T2Response_2.stopped,key_resp_4.keys,key_resp_4.rt,key_resp_4.started,key_resp_4.stopped,text.started,text.stopped,End_Instructions.keys,End_Instructions.rt,End_Instructions.started,End_Instructions.stopped,text_5.started,text_5.stopped,FC.started,FC.stopped,Rapid_Image_Present.started,Rapid_Image_Present.stopped,T1Response.started,T1Response.stopped,key_resp_2.keys,key_resp_2.rt,key_resp_2.started,key_resp_2.stopped,T2Response.started,T2Response.stopped,key_resp_3.keys,key_resp_3.rt,key_resp_3.started,key_resp_3.stopped,text_6.started,text_6.stopped,Fin_ins.keys,Fin_ins.rt,Fin_ins.started,Fin_ins.stopped,MemTest.started,MemTest.stopped,MemResponse.keys,MemResponse.rt,MemResponse.started,MemResponse.stopped,Display.started,Display.stopped,text_7.started,text_7.stopped,endOfExperiment.started,endOfExperiment.stopped,key_resp_5.keys,key_resp_5.rt,key_resp_5.started,key_resp_5.stopped,participant,session,date,expName,psychopyVersion,frameRate,
,,,,,,,,,,,,,,,,,,,,,,,,,,,,,,,,,,,,,,,,,,,,,,,,,,,,15.13217200001236,None,space,64.28440539998701,15.13217200001236,None,,,,,,,,,,,,,,,,,,,,,,,,,,,,,,,,,,,,,,,,,,,,,,,,,,,,,,,,,,,,,,,,,PPT31,001,2022-07-05_13h30.03.579,ABstudy,2022.1.4,59.95394339292472,
AB_Prac,Lag1_T1P_T2P,1,P,P,6,7,5,5,12,triangle,Did you see the triangle?,0.5,0.016,JPG\,ginger,mousetrap,plum01,slipper01b,dropper01,triangle,stapler04b,pants,raspberry01,rope03,scale01a,vase01,blankImage,blankImage,blankImage,blankImage,blankImage,triangle,,,,,,,,0,0,0,1,,,,,,,,,,,,,,,79.49583830003394,80.50260680000065,80.48605840001255,81.0849326000316,81.0849326000316,None,left,1.486874700000044,87.20112759998301,None,87.20112759998301,None,88.71233379998012,None,left,2.4555152999819256,88.71233379998012,None,,,,,,,,,,,,,,,,,,,,,,,,,,,,,,,,,,,,,,,,,,,,,,,PPT31,001,2022-07-05_13h30.03.579,ABstudy,2022.1.4,59.95394339292472,
AB_Prac,Lag5_T1P_T2A,5,P,A,6,11,5,5,16,bread,Did you see the bread?,0.5,0.016,JPG\,cleaver01,clipboard,dustpan,hikingshoe01,notebook03a,baguette01,playingcard,pliers02b,styrofoamcup,rollingpin01a,swimgoggles,wineglass01,fryingpan02a,safetypin,syringe01,thimble,blankImage,baguette01,,,,,,,,0,1,1,8,,,,,,,,,,,,,,,91.20364500000142,92.21438950003358,92.1975836000056,92.783174399985,92.783174399985,None,left,1.5470033999881707,100.76445700001204,None,100.76445700001204,None,102.34114949998911,None,right,0.5464699000003748,102.34114949998911,None,,,,,,,,,,,,,,,,,,,,,,,,,,,,,,,,,,,,,,,,,,,,,,,PPT31,001,2022-07-05_13h30.03.579,ABstudy,2022.1.4,59.95394339292472,
AB_Prac,Lag5_T1P_T2P,5,P,P,5,10,4,5,15,washing machine,Did you see the washing machine?,0.5,0.016,JPG\,waterbottle03,wheel01,flashlight02b,zucchini01,washingmachine,headphones02b,nutcracker01,paintroller01,paperclip03,stapler06,ribbon04,electricrazor,bottleofredwine01,pitabread,pot02a,blankImage,blankImage,washingmachine,,,,,,,,0,2,2,4,,,,,,,,,,,,,,,102.92629839997971,103.92645199998515,103.91079540003557,104.52461050002603,104.52461050002603,None,left,0.8673082999885082,112.01288320001913,None,112.01288320001913,None,112.90148100000806,None,left,0.7147070000064559,112.90148100000806,None,,,,,,,,,,,,,,,,,,,,,,,,,,,,,,,,,,,,,,,,,,,,,,,PPT31,001,2022-07-05_13h30.03.579,ABstudy,2022.1.4,59.95394339292472,
AB_Prac,Lag5_T1A_T2P,5,A,P,6,11,5,3,14,dog,Did you see the dog?,0.5,0.016,JPG\,bucket01a,doorlock,cookiecutter,fireextinguisher01,gluestick,highlighter02b,sportbag,spraybottle01,suitcase,thread02,stapler05,walnut01c,icecubetray01a,vikingmask01b,blankImage,blankImage,blankImage,None,,,,,,,,0,3,3,9,,,,,,,,,,,,,,,113.63503230002243,114.63671990000876,114.61948589998065,115.22191570000723,115.22191570000723,None,right,1.4068147000507452,122.22444409999298,None,122.22444409999298,None,123.66215610003565,None,right,1.4814910999848507,123.66215610003565,None,,,,,,,,,,,,,,,,,,,,,,,,,,,,,,,,,,,,,,,,,,,,,,,PPT31,001,2022-07-05_13h30.03.579,ABstudy,2022.1.4,59.95394339292472,
AB_Prac,Lag1_T1P_T2P,1,P,P,8,9,7,5,14,Tennis racket,Did you see the Tennis racket?,0.5,0.016,JPG\,coconut,computermouse06,croissant01,deodorant02a,pillow01a,peanut01,boot02b,tennisracket,stapler03b,crayon,eggplant,marker01a,plant01,radish01,blankImage,blankImage,blankImage,tennisracket,,,,,,,,0,4,4,0,,,,,,,,,,,,,,,125.25310830003582,126.26490050001303,126.24814849998802,126.85310690000188,126.85310690000188,None,left,0.6137966999667697,133.8021305000293,None,133.8021305000293,None,134.43984700000146,None,left,0.48797080002259463,134.43984700000146,None,,,,,,,,,,,,,,,,,,,,,,,,,,,,,,,,,,,,,,,,,,,,,,,PPT31,001,2022-07-05_13h30.03.579,ABstudy,2022.1.4,59.95394339292472,
AB_Prac,Lag5_T1A_T2A,5,A,A,6,11,5,5,16,castle,Did you see the castle?,0.5,0.016,JPG\,tape02a,englishmuffin,flask,ladle02a,monitor,peach01,keychain,squeegee01b,telephone01b,whisk,walkman,syringe02,baguette01,coaster,box01a,coffeepot03a,blankImage,None,,,,,,,,0,5,5,11,,,,,,,,,,,,,,,134.96037430001888,135.97451100003673,135.95777500001714,136.63245249999454,136.54532720003044,None,right,0.9952466999529861,144.5883353999816,None,144.5883353999816,None,145.6005920000025,None,right,0.5438637000042945,145.6005920000025,None,,,,,,,,,,,,,,,,,,,,,,,,,,,,,,,,,,,,,,,,,,,,,,,PPT31,001,2022-07-05_13h30.03.579,ABstudy,2022.1.4,59.95394339292472,
AB_Prac,Lag1_T1P_T2A,1,P,A,8,9,7,5,14,flower,Did you see the flower?,0.5,0.016,JPG\,razor01,axe01,binder03b,bowl01,kettle01,lettuce,lime,plasticflower01b,mitten04,pencilcase01,plunger02,strawbasket01,toothpick02,wallet02a,blankImage,blankImage,blankImage,plasticflower01b,,,,,,,,0,6,6,5,,,,,,,,,,,,,,,146.17047310003545,147.16957540001022,147.15383309999015,147.73892269999487,147.73892269999487,None,left,0.9147216000128537,154.80540120002115,None,154.80540120002115,None,155.74442220001947,None,right,0.3514677999773994,155.74442220001947,None,,,,,,,,,,,,,,,,,,,,,,,,,,,,,,,,,,,,,,,,,,,,,,,PPT31,001,2022-07-05_13h30.03.579,ABstudy,2022.1.4,59.95394339292472,
AB_Prac,Lag5_T1P_T2P,5,P,P,7,12,6,3,15,vacuum,Did you see the vacuum?,0.5,0.016,JPG\,fork07b,lightbulb01,manshoe,saw02b,shoelace,soap03a,vacuumcleaner01,floortile01,necklace,doll,cabbage,stapler03a,hanger02a,laptop01a,nailpolish03b,blankImage,blankImage,vacuumcleaner01,,,,,,,,0,7,7,2,,,,,,,,,,,,,,,156.13399090000894,157.1461180000333,157.13025590003235,157.7988589000306,157.73000470001716,None,left,0.5196506999782287,165.24809509998886,None,165.24809509998886,None,165.7872888999991,None,left,0.43657489999895915,165.7872888999991,None,,,,,,,,,,,,,,,,,,,,,,,,,,,,,,,,,,,,,,,,,,,,,,,PPT31,001,2022-07-05_13h30.03.579,ABstudy,2022.1.4,59.95394339292472,
AB_Prac,Lag1_T1P_T2A,1,P,A,5,6,4,5,11,Webcam,Did you see the Webcam?,0.5,0.016,JPG\,pictureframe04,binder03b,straw,adjustablewrench01b,webcam,cane,hairdryer02a,icepack,kitchenscale01a,lifejacket,piggybank,blankImage,blankImage,blankImage,blankImage,blankImage,blankImage,webcam,,,,,,,,0,8,8,6,,,,,,,,,,,,,,,166.25988120003603,167.27249380003195,167.25588670000434,167.84661380003672,167.84661380003672,None,left,0.763535000034608,173.33969870000146,None,173.33969870000146,None,174.12949209997896,None,right,0.5829225999768823,174.12949209997896,None,,,,,,,,,,,,,,,,,,,,,,,,,,,,,,,,,,,,,,,,,,,,,,,PPT31,001,2022-07-05_13h30.03.579,ABstudy,2022.1.4,59.95394339292472,
AB_Prac,Lag5_T1P_T2A,5,P,A,6,11,5,5,16,Wheat,Did you see the Wheat?,0.5,0.016,JPG\,bottleopener01,dentalfloss03b,cooler01,icecreamcone01a,paperclip01b,wheat,pencilsharpener02a,plasticbasket01a,toycar04,apricot,hairclip02,rock01a,honeydewmelon,antenna,blackberry,cardboardbox,blankImage,wheat,,,,,,,,0,9,9,7,,,,,,,,,,,,,,,174.73236640001414,175.747323699994,175.71391460002633,176.29732070001774,176.29732070001774,None,left,0.8037429000250995,184.37176710000494,None,184.37176710000494,None,185.20957910001744,None,right,0.2542040999978781,185.20957910001744,None,,,,,,,,,,,,,,,,,,,,,,,,,,,,,,,,,,,,,,,,,,,,,,,PPT31,001,2022-07-05_13h30.03.579,ABstudy,2022.1.4,59.95394339292472,
AB_Prac,Lag1_T1A_T2A,1,A,A,8,9,7,3,12,Moose,Did you see the Moose?,0.5,0.016,JPG\,clothespin03b,corkscrew03a,drillbit03a,fusilli03a,needlenosepliers01,perfume01a,pistachio,scrubbingbrush05b,spatula03,toothpastetube,hinge,toydinosaur,blankImage,blankImage,blankImage,blankImage,blankImage,None,,,,,,,,0,10,10,10,,,,,,,,,,,,,,,185.49692850001156,186.50802920002025,186.4913169000065,187.06508820003364,187.06508820003364,None,right,1.402637000021059,193.10932280000998,None,193.10932280000998,None,194.53307210002095,None,right,0.7063379000173882,194.53307210002095,None,,,,,,,,,,,,,,,,,,,,,,,,,,,,,,,,,,,,,,,,,,,,,,,PPT31,001,2022-07-05_13h30.03.579,ABstudy,2022.1.4,59.95394339292472,
AB_Prac,Lag5_T1P_T2P,5,P,P,5,10,4,5,15,Vulture,Did you see the Vulture?,0.5,0.016,JPG\,shorts01,toast,ramekin01,bib,vulture,cracker02,date,glasses01a,hat03b,stapler01,measuringtape01,nail,pill,drum01,starfish01,blankImage,blankImage,vulture,,,,,,,,0,11,11,3,,,,,,,,,,,,,,,195.27656880003633,196.28462849999778,196.2678847000352,196.86887659999775,196.86887659999775,None,left,2.045623700018041,204.50623679999262,None,204.50623679999262,None,206.57916580000892,None,right,0.14859529997920617,206.57916580000892,None,,,,,,,,,,,,,,,,,,,,,,,,,,,,,,,,,,,,,,,,,,,,,,,PPT31,001,2022-07-05_13h30.03.579,ABstudy,2022.1.4,59.95394339292472,
,,,,,,,,,,,,,,,,,,,,,,,,,,,,,,,,,,,,,,,,,,,,,,,,,,,,,,,,,,,,,,,,,,,,,,,,,,,,206.74709540000185,None,space,14.620571499981452,206.74709540000185,None,,,,,,,,,,,,,,,,,,,,,,,,,,,,,,,,,,,,,,,,,PPT31,001,2022-07-05_13h30.03.579,ABstudy,2022.1.4,59.95394339292472,
AB,Lag1_T1P_T2A,1,P,A,7,8,6,4,12,gate,Did you see the gate?,0.12,0.016,JPG\,pen04b,speaker04,lighter01,cherry01,pintofbeer,onion,entrancegate,toothbrush03b,broom01,sewingmachine01a,book01b,iron01b,blankImage,blankImage,blankImage,blankImage,blankImage,entrancegate,,,,,,,,,,,,0,0,0,187,,,,,,,,,,,,,,,,,,,,,,,,,,,,,,,,,,,222.0358656999888,223.04457070003264,223.02792010002304,223.6388447000063,223.6388447000063,None,225.0585337000084,None,left,3.2926365999737754,225.0585337000084,None,228.3853787999833,None,right,0.4458067999803461,228.3853787999833,None,,,,,,,,,,,,,,,,,,,,,,,PPT31,001,2022-07-05_13h30.03.579,ABstudy,2022.1.4,59.95394339292472,
AB,Lag1_T1P_T2P,1,P,P,8,9,7,5,14,Waterfall,Did you see the Waterfall?,0.12,0.016,JPG\,pizza,watch02a,greenolive,cucumber,match,violin,scissors01,waterfall,stapler03a,cherry01,ring01,cigarette,microscope,cellphone,blankImage,blankImage,blankImage,waterfall,,,,,,,,,,,,0,1,1,52,,,,,,,,,,,,,,,,,,,,,,,,,,,,,,,,,,,228.85877390002133,229.86810479999986,229.85133059998043,230.43210129998624,230.43210129998624,None,232.17722429998685,None,left,0.6622668000054546,232.17722429998685,None,232.87085310003022,None,left,0.2969662999967113,232.87085310003022,None,,,,,,,,,,,,,,,,,,,,,,,PPT31,001,2022-07-05_13h30.03.579,ABstudy,2022.1.4,59.95394339292472,
AB,Lag1_T1P_T2P,1,P,P,6,7,5,4,11,cash register,Did you see the cash register?,0.12,0.016,JPG\,leaf02a,apple07,cd,pineapple01a,envelope03a,cashregister01,stapler03b,8ball,rice,feather03a,lemon02,blankImage,blankImage,blankImage,blankImage,blankImage,blankImage,cashregister01,,,,,,,,,,,,0,2,2,79,,,,,,,,,,,,,,,,,,,,,,,,,,,,,,,,,,,233.19118750002235,234.2057552000042,234.18894120003097,234.75909720000345,234.75909720000345,None,236.13968409999507,None,left,0.9554236000403762,236.13968409999507,None,237.12536240002373,None,right,1.0577249999623746,237.12536240002373,None,,,,,,,,,,,,,,,,,,,,,,,PPT31,001,2022-07-05_13h30.03.579,ABstudy,2022.1.4,59.95394339292472,
AB,Lag1_T1P_T2P,1,P,P,5,6,4,5,11,Light switch,Did you see the Light switch?,0.12,0.016,JPG\,iron01b,orange,birthdaycandle,potato02b,lightswitch01,stapler03b,key01,candle08b,celery,tableknife02,pen04b,blankImage,blankImage,blankImage,blankImage,blankImage,blankImage,lightswitch01,,,,,,,,,,,,0,3,3,18,,,,,,,,,,,,,,,,,,,,,,,,,,,,,,,,,,,238.22056129999692,239.22748880001018,239.21083769999677,239.79939800000284,239.79939800000284,None,241.12359480001032,None,left,0.8672781999921426,241.12359480001032,None,242.01375480002025,None,left,0.497924699971918,242.01375480002025,None,,,,,,,,,,,,,,,,,,,,,,,PPT31,001,2022-07-05_13h30.03.579,ABstudy,2022.1.4,59.95394339292472,
AB,Lag5_T1P_T2P,5,P,P,7,12,6,5,17,truck,Did you see the truck?,0.12,0.016,JPG\,binoculars01b,speaker04,sandal,envelope03a,plate01b,comb02a,boxtruck,chain01,measuringcup01,key01,medal02b,stapler05,tennisball01b,pizza,cigarette,sunglasses04,blankImage,boxtruck,,,,,,,,,,,,0,4,4,166,,,,,,,,,,,,,,,,,,,,,,,,,,,,,,,,,,,242.53422309999587,243.54829080001218,243.53160490002483,244.22721039998578,244.1348994,None,246.08750890003284,None,left,0.8318843999877572,246.08750890003284,None,246.9519662000239,None,left,0.27143589995102957,246.9519662000239,None,,,,,,,,,,,,,,,,,,,,,,,PPT31,001,2022-07-05_13h30.03.579,ABstudy,2022.1.4,59.95394339292472,
AB,Lag1_T1P_T2P,1,P,P,6,7,5,5,12,Snowboard,Did you see the Snowboard?,0.12,0.016,JPG\,belt02a,measuringcup01,spoon01,chain01,greenolive,snowboard,stapler01,onion,fan,strawberry,candle01,broom01,blankImage,blankImage,blankImage,blankImage,blankImage,snowboard,,,,,,,,,,,,0,5,5,49,,,,,,,,,,,,,,,,,,,,,,,,,,,,,,,,,,,247.26038589997916,248.2701393000316,248.25465339998482,248.86020850000205,248.86020850000205,None,250.27921940002125,None,right,1.8321941000176594,250.27921940002125,None,252.13997359998757,None,left,0.8201196999871172,252.13997359998757,None,,,,,,,,,,,,,,,,,,,,,,,PPT31,001,2022-07-05_13h30.03.579,ABstudy,2022.1.4,59.95394339292472,
AB,Lag1_T1P_T2P,1,P,P,5,6,4,3,9,dolphin,Did you see the dolphin?,0.12,0.016,JPG\,pig,belt02a,rice,screwdriver04b,dolphin01,stapler05,candle08b,pear01,feather03a,blankImage,blankImage,blankImage,blankImage,blankImage,blankImage,blankImage,blankImage,dolphin01,,,,,,,,,,,,0,6,6,10,,,,,,,,,,,,,,,,,,,,,,,,,,,,,,,,,,,252.99483799998416,254.00920380000025,253.99359040003037,254.4958454000298,254.4958454000298,None,255.68816120002884,None,left,0.7994073000154458,255.68816120002884,None,256.5114386000205,None,right,0.7514788000262342,256.5114386000205,None,,,,,,,,,,,,,,,,,,,,,,,PPT31,001,2022-07-05_13h30.03.579,ABstudy,2022.1.4,59.95394339292472,
AB,Lag5_T1P_T2A,5,P,A,7,12,6,5,17,shoulder,Did you see the shoulder?,0.12,0.016,JPG\,battery02b,sunglasses04,pear01,tennisball01b,clock01a,speaker04,shoulder,spoon01,alligator,pineapple01a,avocado01,grape01,blueberry01,violin,strawberry,sock01a,blankImage,shoulder,,,,,,,,,,,,0,7,7,224,,,,,,,,,,,,,,,,,,,,,,,,,,,,,,,,,,,257.29903340002056,258.31342999998014,258.29773619998014,258.91987099999096,258.91987099999096,None,260.86182140000165,None,left,0.7377124999766238,260.86182140000165,None,261.61628359998576,None,right,0.6628891000291333,261.61628359998576,None,,,,,,,,,,,,,,,,,,,,,,,PPT31,001,2022-07-05_13h30.03.579,ABstudy,2022.1.4,59.95394339292472,
AB,Lag1_T1P_T2P,1,P,P,5,6,4,5,11,owl,Did you see the owl?,0.12,0.016,JPG\,cellphone,tomato01,comb02a,candy,barnowl,stapler03a,toaster01,fan,feather03a,pen04b,lemon02,blankImage,blankImage,blankImage,blankImage,blankImage,blankImage,barnowl,,,,,,,,,,,,0,8,8,33,,,,,,,,,,,,,,,,,,,,,,,,,,,,,,,,,,,262.3022963000112,263.30161550000776,263.28457920002984,263.9088295000256,263.9088295000256,None,265.19924420001917,None,left,0.6083842999651097,265.19924420001917,None,265.8372392000165,None,left,0.4503464000299573,265.8372392000165,None,,,,,,,,,,,,,,,,,,,,,,,PPT31,001,2022-07-05_13h30.03.579,ABstudy,2022.1.4,59.95394339292472,
AB,Lag5_T1P_T2P,5,P,P,6,11,5,5,16,Car,Did you see the Car?,0.12,0.016,JPG\,leaf02a,apple07,cd,pineapple01a,envelope03a,car,pig,canoftennisballs,rice,feather03a,stapler03a,balloon01b,avocado01,calculator01,watermelon01,teabag,blankImage,car,,,,,,,,,,,,0,9,9,127,,,,,,,,,,,,,,,,,,,,,,,,,,,,,,,,,,,266.3133157999837,267.3220105000073,267.3052339000278,267.94050680001965,267.94050680001965,None,269.80931829998735,None,left,0.5023034000187181,269.80931829998735,None,270.3420063999947,None,left,1.4732784000225365,270.3420063999947,None,,,,,,,,,,,,,,,,,,,,,,,PPT31,001,2022-07-05_13h30.03.579,ABstudy,2022.1.4,59.95394339292472,
AB,Lag5_T1P_T2A,5,P,A,8,13,7,5,18,telescope,Did you see the telescope?,0.12,0.016,JPG\,globe,broccoli01a,binoculars01b,iron01b,avocado01,dandelion,pineapple01a,handheldtelescope,fan,pizza,celery,blueberry01,sewingmachine01a,dice05a,watermelon01,candy,blankImage,handheldtelescope,,,,,,,,,,,,0,10,10,228,,,,,,,,,,,,,,,,,,,,,,,,,,,,,,,,,,,271.8457217999967,272.86080670001684,272.827512399992,273.4164166999981,273.4164166999981,None,275.38156300003175,None,left,0.8494575000368059,275.38156300003175,None,276.2473732000217,None,right,0.35166049998952076,276.2473732000217,None,,,,,,,,,,,,,,,,,,,,,,,PPT31,001,2022-07-05_13h30.03.579,ABstudy,2022.1.4,59.95394339292472,
AB,Lag5_T1P_T2P,5,P,P,7,12,6,5,17,statue,Did you see the statue?,0.12,0.016,JPG\,pear01,clock01a,cymbal,match,ashtray01,globe,statue,button01,lemon02,pen04b,dice05a,stapler06,toothbrush03b,screwdriver04b,feather03a,key01,blankImage,statue,,,,,,,,,,,,0,11,11,100,,,,,,,,,,,,,,,,,,,,,,,,,,,,,,,,,,,276.6943293000222,277.69979789998615,277.66645170003176,278.25652520003496,278.25652520003496,None,280.11583989998326,None,left,0.691206100047566,280.11583989998326,None,280.8382062999881,None,left,0.6245770999812521,280.8382062999881,None,,,,,,,,,,,,,,,,,,,,,,,PPT31,001,2022-07-05_13h30.03.579,ABstudy,2022.1.4,59.95394339292472,
AB,Lag1_T1A_T2P,1,A,P,7,8,6,3,11,Fox,Did you see the Fox?,0.12,0.016,JPG\,toaster01,chain01,sponge01,baseball01a,carrot01,belt02a,book01b,stapler03b,grape01,brick,celery,blankImage,blankImage,blankImage,blankImage,blankImage,blankImage,fingerprint,,,,,,,,,,,,0,12,12,234,,,,,,,,,,,,,,,,,,,,,,,,,,,,,,,,,,,281.49415699997917,282.50334549997933,282.4867030000314,283.0746183000156,283.0746183000156,None,284.4910016999929,None,right,1.9322533000377007,284.4910016999929,None,286.44086460000835,None,left,0.8867872999981046,286.44086460000835,None,,,,,,,,,,,,,,,,,,,,,,,PPT31,001,2022-07-05_13h30.03.579,ABstudy,2022.1.4,59.95394339292472,
AB,Lag5_T1P_T2P,5,P,P,5,10,4,5,15,Safe,Did you see the Safe?,0.12,0.016,JPG\,candle01,shirt02,brick,orange,safe,toothbrush03b,pizza,thermometer02b,book01b,stapler01,sewingmachine01a,toaster01,candy,cymbal,potato02b,blankImage,blankImage,safe,,,,,,,,,,,,0,13,13,159,,,,,,,,,,,,,,,,,,,,,,,,,,,,,,,,,,,287.3607323000324,288.3761425000266,288.3427763999789,288.9156327000237,288.9156327000237,None,290.74761050002417,None,right,0.9233404999831691,290.74761050002417,None,291.6962938000215,None,right,0.782753900042735,291.6962938000215,None,,,,,,,,,,,,,,,,,,,,,,,PPT31,001,2022-07-05_13h30.03.579,ABstudy,2022.1.4,59.95394339292472,
AB,Lag5_T1P_T2P,5,P,P,5,10,4,3,13,Sushi,Did you see the Sushi?,0.12,0.016,JPG\,carrot01,greenolive,fork03c,chain01,makiroll,watermelon01,tableknife02,printer02,comb02a,stapler03b,orange,rice,fan,blankImage,blankImage,blankImage,blankImage,makiroll,,,,,,,,,,,,0,14,14,135,,,,,,,,,,,,,,,,,,,,,,,,,,,,,,,,,,,292.5087108000298,293.5146208999795,293.4976766000036,294.0776741000009,294.0776741000009,None,295.6548644999857,None,left,0.5119973000255413,295.6548644999857,None,296.1838339000242,None,left,0.4400117000332102,296.1838339000242,None,,,,,,,,,,,,,,,,,,,,,,,PPT31,001,2022-07-05_13h30.03.579,ABstudy,2022.1.4,59.95394339292472,
AB,Lag1_T1A_T2A,1,A,A,6,7,5,5,12,flamingo,Did you see the flamingo?,0.12,0.016,JPG\,chain01,pen04b,birthdaycandle,watermelon01,broom01,scissors01,measuringcup01,candle01,hammer01,calculator01,ashtray01,feather03a,blankImage,blankImage,blankImage,blankImage,blankImage,witchhat,,,,,,,,,,,,0,15,15,288,,,,,,,,,,,,,,,,,,,,,,,,,,,,,,,,,,,296.6571636000299,297.6684761000215,297.65180370002054,298.2498202000279,298.2498202000279,None,299.6870498000062,None,right,1.136574100004509,299.6870498000062,None,300.8551114000147,None,right,0.423545700032264,300.8551114000147,None,,,,,,,,,,,,,,,,,,,,,,,PPT31,001,2022-07-05_13h30.03.579,ABstudy,2022.1.4,59.95394339292472,
AB,Lag5_T1P_T2A,5,P,A,7,12,6,5,17,corn,Did you see the corn?,0.12,0.016,JPG\,avocado01,pingpongpaddle01c,match,cauliflower01,paintbrush01,clock01a,corn02,cd,balloon01b,cellphone,watch02a,pear01,toaster01,sponge01,orange,blueberry01,blankImage,corn02,,,,,,,,,,,,0,16,16,210,,,,,,,,,,,,,,,,,,,,,,,,,,,,,,,,,,,301.3079765000148,302.32325820002006,302.28993630001787,302.89150450000307,302.89150450000307,None,304.8782204000163,None,left,0.7611615000059828,304.8782204000163,None,305.66187609999906,None,right,0.2745347000309266,305.66187609999906,None,,,,,,,,,,,,,,,,,,,,,,,PPT31,001,2022-07-05_13h30.03.579,ABstudy,2022.1.4,59.95394339292472,
AB,Lag5_T1P_T2A,5,P,A,6,11,5,5,16,hat,Did you see the hat?,0.12,0.016,JPG\,apple07,toiletpaper01a,pizza,dandelion,greenolive,pilgrimhat,microscope,violin,orange,lipstick02a,balloon01b,sandal,lighter01,fan,book01b,sewingmachine01a,blankImage,pilgrimhat,,,,,,,,,,,,0,17,17,206,,,,,,,,,,,,,,,,,,,,,,,,,,,,,,,,,,,305.96245450002607,306.96191429998726,306.9461910999962,307.5494253000361,307.5494253000361,None,309.53580170002533,None,left,1.1433137999847531,309.53580170002533,None,310.6986831999966,None,right,0.2604618000332266,310.6986831999966,None,,,,,,,,,,,,,,,,,,,,,,,PPT31,001,2022-07-05_13h30.03.579,ABstudy,2022.1.4,59.95394339292472,
AB,Lag5_T1P_T2P,5,P,P,6,11,5,4,15,fish,Did you see the fish?,0.12,0.016,JPG\,sock01a,spoon01,alligator,comb02a,printer02,rockbass,lamp04a,cymbal,greenolive,computerkeyboard02,stapler03a,scarf,teabag,watermelon01,battery02b,blankImage,blankImage,rockbass,,,,,,,,,,,,0,18,18,115,,,,,,,,,,,,,,,,,,,,,,,,,,,,,,,,,,,310.9852713000146,311.9996851999895,311.9663399999845,312.55635620001704,312.55635620001704,None,314.49562900001183,None,left,0.567377100000158,314.49562900001183,None,315.08644290000666,None,left,0.28082200000062585,315.08644290000666,None,,,,,,,,,,,,,,,,,,,,,,,PPT31,001,2022-07-05_13h30.03.579,ABstudy,2022.1.4,59.95394339292472,
AB,Lag1_T1P_T2P,1,P,P,7,8,6,5,13,dream catcher,Did you see the dream catcher?,0.12,0.016,JPG\,clock01a,cellphone,toaster01,toothbrush03b,cauliflower01,microscope,dreamcatcher,stapler05,scarf,clock04,sponge01,iron01b,watch02a,blankImage,blankImage,blankImage,blankImage,dreamcatcher,,,,,,,,,,,,0,19,19,81,,,,,,,,,,,,,,,,,,,,,,,,,,,,,,,,,,,315.39211800001794,316.4042824000353,316.3876367000048,316.98912640003255,316.98912640003255,None,318.51149920001626,None,left,1.0391226999927312,318.51149920001626,None,319.57382430002326,None,right,0.22572950000176206,319.57382430002326,None,,,,,,,,,,,,,,,,,,,,,,,PPT31,001,2022-07-05_13h30.03.579,ABstudy,2022.1.4,59.95394339292472,
AB,Lag1_T1P_T2A,1,P,A,5,6,4,5,11,Sailboat,Did you see the Sailboat?,0.12,0.016,JPG\,chain01,speaker04,avocado01,watermelon01,sailboat,comb02a,lamp04a,fork03c,toaster01,slipper03b,scissors01,blankImage,blankImage,blankImage,blankImage,blankImage,blankImage,sailboat,,,,,,,,,,,,0,20,20,193,,,,,,,,,,,,,,,,,,,,,,,,,,,,,,,,,,,319.82643329998245,320.8417042000219,320.808344900026,321.3868717000005,321.3868717000005,None,322.77451630000724,None,left,0.7290228999918327,322.77451630000724,None,323.5281324000098,None,right,0.6391119000036269,323.5281324000098,None,,,,,,,,,,,,,,,,,,,,,,,PPT31,001,2022-07-05_13h30.03.579,ABstudy,2022.1.4,59.95394339292472,
AB,Lag5_T1P_T2A,5,P,A,8,13,7,4,17,knife,Did you see the knife?,0.12,0.016,JPG\,lighter01,hammer01,spoon01,chain01,cymbal,sponge01,lipstick02a,knife03,pig,watermelon01,cauliflower01,lemon02,broccoli01a,tableknife02,tennisball01b,toothbrush03b,blankImage,knife03,,,,,,,,,,,,0,21,21,214,,,,,,,,,,,,,,,,,,,,,,,,,,,,,,,,,,,324.1989565999829,325.2129757999792,325.1963119999855,325.83238430001074,325.7574282999849,None,327.73386410000967,None,left,0.8013027000124566,327.73386410000967,None,328.5661113000242,None,right,0.2652599000139162,328.5661113000242,None,,,,,,,,,,,,,,,,,,,,,,,PPT31,001,2022-07-05_13h30.03.579,ABstudy,2022.1.4,59.95394339292472,
AB,Lag1_T1P_T2A,1,P,A,6,7,5,5,12,Barn,Did you see the Barn?,0.12,0.016,JPG\,celery,pencil01,fan,foosballtable,iron01b,barn,potato02b,fork03c,button01,pineapple01a,baseball01a,printer02,blankImage,blankImage,blankImage,blankImage,blankImage,barn,,,,,,,,,,,,0,22,22,181,,,,,,,,,,,,,,,,,,,,,,,,,,,,,,,,,,,328.8558524000109,329.8674253000063,329.85071889997926,330.42754479998257,330.42754479998257,None,331.8948295000009,None,right,1.2399237000499852,331.8948295000009,None,333.15422120003495,None,right,0.9487771000131033,333.15422120003495,None,,,,,,,,,,,,,,,,,,,,,,,PPT31,001,2022-07-05_13h30.03.579,ABstudy,2022.1.4,59.95394339292472,
AB,Lag1_T1P_T2P,1,P,P,7,8,6,3,11,tree,Did you see the tree?,0.12,0.016,JPG\,pear01,clock01a,cymbal,match,ashtray01,globe,tree,stapler03b,lemon02,pen04b,dice05a,blankImage,blankImage,blankImage,blankImage,blankImage,blankImage,tree,,,,,,,,,,,,0,23,23,51,,,,,,,,,,,,,,,,,,,,,,,,,,,,,,,,,,,334.12385319999885,335.13932870002463,335.10590409999713,335.6862814000342,335.6862814000342,None,337.00933909998275,None,left,0.9740596999763511,337.00933909998275,None,338.00924990000203,None,right,3.237833800027147,338.00924990000203,None,,,,,,,,,,,,,,,,,,,,,,,PPT31,001,2022-07-05_13h30.03.579,ABstudy,2022.1.4,59.95394339292472,
AB,Lag1_T1P_T2P,1,P,P,7,8,6,3,11,harmonica,Did you see the harmonica?,0.12,0.016,JPG\,cucumber,ring01,lipstick02a,microscope,violin,garlic01a,harmonica,stapler03b,cherry01,sewingmachine01a,belt02a,blankImage,blankImage,blankImage,blankImage,blankImage,blankImage,harmonica,,,,,,,,,,,,0,24,24,43,,,,,,,,,,,,,,,,,,,,,,,,,,,,,,,,,,,341.2836546000326,342.2969875999843,342.281077200023,342.8669344999944,342.8669344999944,None,344.22489150002366,None,right,0.7982626999728382,344.22489150002366,None,345.05208150000544,None,left,0.7953851000056602,345.05208150000544,None,,,,,,,,,,,,,,,,,,,,,,,PPT31,001,2022-07-05_13h30.03.579,ABstudy,2022.1.4,59.95394339292472,
AB,Lag1_T1A_T2A,1,A,A,7,8,6,5,13,Poker chips,Did you see the Poker chips?,0.12,0.016,JPG\,violin,pizza,toothbrush03b,pineapple01a,banana01,ashtray01,candy,dandelion,clock04,sock01a,microscope,speaker04,calculator01,blankImage,blankImage,blankImage,blankImage,cigar,,,,,,,,,,,,0,25,25,289,,,,,,,,,,,,,,,,,,,,,,,,,,,,,,,,,,,345.8745464999811,346.88432409998495,346.8676353000337,347.45492950000335,347.45492950000335,None,349.0632399999886,None,right,0.8079758000094444,349.0632399999886,None,349.9039810000104,None,right,0.7990399999544024,349.9039810000104,None,,,,,,,,,,,,,,,,,,,,,,,PPT31,001,2022-07-05_13h30.03.579,ABstudy,2022.1.4,59.95394339292472,
AB,Lag5_T1P_T2A,5,P,A,5,10,4,4,14,Ship in a bottle,Did you see the Ship in a bottle?,0.12,0.016,JPG\,sewingmachine01a,thermometer02b,sponge01,eraser,shipinabottle,fork03c,pizza,violin,belt02a,medal02b,pineapple01a,tennisball01b,dandelion,cauliflower01,blankImage,blankImage,blankImage,shipinabottle,,,,,,,,,,,,0,26,26,208,,,,,,,,,,,,,,,,,,,,,,,,,,,,,,,,,,,350.7257112999796,351.7391317000147,351.72241420001956,352.409709700034,352.3258236999973,None,354.02344439999433,None,right,0.7210720000439323,354.02344439999433,None,354.7779821000295,None,right,0.9415661999955773,354.7779821000295,None,,,,,,,,,,,,,,,,,,,,,,,PPT31,001,2022-07-05_13h30.03.579,ABstudy,2022.1.4,59.95394339292472,
AB,Lag5_T1P_T2P,5,P,P,8,13,7,5,18,popcorn,Did you see the popcorn?,0.12,0.016,JPG\,toaster01,garlic01a,hairclip03,fan,comb02a,apple07,orange,popcorn,onion,blueberry01,toiletpaper01a,fork03c,stapler06,pineapple01a,scarf,eraser,blankImage,popcorn,,,,,,,,,,,,0,27,27,155,,,,,,,,,,,,,,,,,,,,,,,,,,,,,,,,,,,355.74772879999364,356.76083660003496,356.7441864000284,357.33726850000676,357.33726850000676,None,359.2655358000193,None,right,0.8855709999916144,359.2655358000193,None,360.1836017000023,None,right,0.5353970999713056,360.1836017000023,None,,,,,,,,,,,,,,,,,,,,,,,PPT31,001,2022-07-05_13h30.03.579,ABstudy,2022.1.4,59.95394339292472,
AB,Lag5_T1A_T2P,5,A,P,7,12,6,3,15,Car,Did you see the Car?,0.12,0.016,JPG\,lighter01,hammer01,spoon01,chain01,cymbal,sponge01,lipstick02a,alligator,pig,watermelon01,cauliflower01,stapler03b,broccoli01a,tableknife02,tennisball01b,blankImage,blankImage,wallclock,,,,,,,,,,,,0,28,28,277,,,,,,,,,,,,,,,,,,,,,,,,,,,,,,,,,,,360.7585055999807,361.7663851000252,361.750676900032,362.3585469999816,362.3585469999816,None,364.186002500006,None,right,1.0363934999913909,364.186002500006,None,365.25288929999806,None,right,0.48327780002728105,365.25288929999806,None,,,,,,,,,,,,,,,,,,,,,,,PPT31,001,2022-07-05_13h30.03.579,ABstudy,2022.1.4,59.95394339292472,
AB,Lag1_T1P_T2A,1,P,A,7,8,6,3,11,Snowshoe,Did you see the Snowshoe?,0.12,0.016,JPG\,birthdaycandle,mushroom01,strawberry,match,cherry01,eraser,snowshoe,thermometer02b,sock01a,ring01,feather03a,blankImage,blankImage,blankImage,blankImage,blankImage,blankImage,snowshoe,,,,,,,,,,,,0,29,29,194,,,,,,,,,,,,,,,,,,,,,,,,,,,,,,,,,,,365.75968870002544,366.77094630000647,366.75430349999806,367.2551634000265,367.2551634000265,None,368.6966982000158,None,right,0.7981306000147015,368.6966982000158,None,369.523935300007,None,right,0.3308750999858603,369.523935300007,None,,,,,,,,,,,,,,,,,,,,,,,PPT31,001,2022-07-05_13h30.03.579,ABstudy,2022.1.4,59.95394339292472,
AB,Lag5_T1P_T2P,5,P,P,7,12,6,4,16,Recycling bin,Did you see the Recycling bin?,0.12,0.016,JPG\,broccoli01a,scissors01,toothbrush03b,foosballtable,iron01b,brick,recyclingbin,toiletpaper01a,cd,garlic01a,carrot01,stapler03a,envelope03a,battery02b,balloon01b,broom01,blankImage,recyclingbin,,,,,,,,,,,,0,30,30,157,,,,,,,,,,,,,,,,,,,,,,,,,,,,,,,,,,,369.88458130002255,370.8917111000046,370.87503739999374,371.46544080000604,371.46544080000604,None,373.362368000031,None,left,0.45383459998993203,373.362368000031,None,373.8449261999922,None,left,0.25136819994077086,373.8449261999922,None,,,,,,,,,,,,,,,,,,,,,,,PPT31,001,2022-07-05_13h30.03.579,ABstudy,2022.1.4,59.95394339292472,
AB,Lag1_T1P_T2P,1,P,P,8,9,7,5,14,lawn mower,Did you see the lawn mower?,0.12,0.016,JPG\,battery02b,sunglasses04,pear01,tennisball01b,clock01a,speaker04,binoculars01b,lawnmower,stapler05,pineapple01a,avocado01,grape01,blueberry01,violin,blankImage,blankImage,blankImage,lawnmower,,,,,,,,,,,,0,31,31,46,,,,,,,,,,,,,,,,,,,,,,,,,,,,,,,,,,,374.1330328999902,375.14607670000987,375.1293020999874,375.710218799999,375.710218799999,None,377.4046374000027,None,left,0.946198399993591,377.4046374000027,None,378.3853206000058,None,right,0.317894299980253,378.3853206000058,None,,,,,,,,,,,,,,,,,,,,,,,PPT31,001,2022-07-05_13h30.03.579,ABstudy,2022.1.4,59.95394339292472,
AB,Lag5_T1P_T2A,5,P,A,5,10,4,3,13,cork,Did you see the cork?,0.12,0.016,JPG\,clock01a,grape01,plate01b,key01,cork02,feather03a,pineapple01a,iron01b,toothbrush03b,comb02a,broom01,toaster01,pizza,blankImage,blankImage,blankImage,blankImage,cork02,,,,,,,,,,,,0,32,32,209,,,,,,,,,,,,,,,,,,,,,,,,,,,,,,,,,,,378.7349431000184,379.7504091000301,379.71702340000775,380.30474140000297,380.30474140000297,None,381.9508563000127,None,right,0.8959222999983467,381.9508563000127,None,382.87049080000725,None,right,0.6399060999974608,382.87049080000725,None,,,,,,,,,,,,,,,,,,,,,,,PPT31,001,2022-07-05_13h30.03.579,ABstudy,2022.1.4,59.95394339292472,
AB,Lag5_T1P_T2A,5,P,A,8,13,7,3,16,leaf blower,Did you see the leaf blower?,0.12,0.016,JPG\,printer02,leaf02a,cauliflower01,sock01a,brownsugar,paintbrush01,pig,leafblower01,belt02a,shirt02,key01,match,cigarette,scissors01,envelope03a,blueberry01,blankImage,leafblower01,,,,,,,,,,,,0,33,33,216,,,,,,,,,,,,,,,,,,,,,,,,,,,,,,,,,,,383.5428034000215,384.5555045999936,384.5388054000214,385.1142416999792,385.1142416999792,None,387.101041899994,None,left,0.8501939999987371,387.101041899994,None,387.9780536000035,None,right,0.8528553999494761,387.9780536000035,None,,,,,,,,,,,,,,,,,,,,,,,PPT31,001,2022-07-05_13h30.03.579,ABstudy,2022.1.4,59.95394339292472,
AB,Lag1_T1A_T2P,1,A,P,6,7,5,3,10,curtain,Did you see the curtain?,0.12,0.016,JPG\,carrot01,greenolive,fork03c,chain01,ashtray01,watermelon01,stapler06,printer02,comb02a,toaster01,blankImage,blankImage,blankImage,blankImage,blankImage,blankImage,blankImage,birdhouse,,,,,,,,,,,,0,34,34,249,,,,,,,,,,,,,,,,,,,,,,,,,,,,,,,,,,,388.86198650003644,389.87708960002055,389.84375679999357,390.4522099000169,390.4522099000169,None,391.64715179998893,None,right,0.9198141000233591,391.64715179998893,None,392.59688279998954,None,right,0.6346039999625646,392.59688279998954,None,,,,,,,,,,,,,,,,,,,,,,,PPT31,001,2022-07-05_13h30.03.579,ABstudy,2022.1.4,59.95394339292472,
AB,Lag5_T1P_T2P,5,P,P,8,13,7,3,16,church,Did you see the church?,0.12,0.016,JPG\,clock01a,cellphone,toaster01,toothbrush03b,cauliflower01,microscope,comb02a,church,scarf,clock04,sponge01,iron01b,stapler06,celery,ring01,ashtray01,blankImage,church,,,,,,,,,,,,0,35,35,129,,,,,,,,,,,,,,,,,,,,,,,,,,,,,,,,,,,393.26701170002343,394.2817736000288,394.24848060001386,394.82496120000724,394.82496120000724,None,396.80857729999116,None,left,0.36694590002298355,396.80857729999116,None,397.2021041000262,None,left,0.26212989998748526,397.2021041000262,None,,,,,,,,,,,,,,,,,,,,,,,PPT31,001,2022-07-05_13h30.03.579,ABstudy,2022.1.4,59.95394339292472,
AB,Lag1_T1P_T2P,1,P,P,8,9,7,4,13,peacock,Did you see the peacock?,0.12,0.016,JPG\,hammer01,sponge01,toaster01,cherry01,feather03a,mushroom01,measuringcup01,peacock,stapler03a,brick,clock04,medal02b,teabag,blankImage,blankImage,blankImage,blankImage,peacock,,,,,,,,,,,,0,36,36,68,,,,,,,,,,,,,,,,,,,,,,,,,,,,,,,,,,,397.49114130000817,398.50272679998307,398.4860773999826,399.08507840003585,399.08507840003585,None,400.66164380003465,None,left,0.7208462000126019,400.66164380003465,None,401.40524340001866,None,right,0.5932545999530703,401.40524340001866,None,,,,,,,,,,,,,,,,,,,,,,,PPT31,001,2022-07-05_13h30.03.579,ABstudy,2022.1.4,59.95394339292472,
AB,Lag5_T1A_T2P,5,A,P,8,13,7,3,16,ladder,Did you see the ladder?,0.12,0.016,JPG\,apple07,toiletpaper01a,pizza,dandelion,greenolive,eraser,microscope,violin,orange,lipstick02a,balloon01b,sandal,stapler01,fan,book01b,sewingmachine01a,blankImage,ostrich,,,,,,,,,,,,0,37,37,269,,,,,,,,,,,,,,,,,,,,,,,,,,,,,,,,,,,402.02476080000633,403.04020440002205,403.00688150001224,403.59349450003356,403.59349450003356,None,405.5299938999815,None,right,3.1324083999497816,405.5299938999815,None,408.6791455000057,None,left,1.1991882000002079,408.6791455000057,None,,,,,,,,,,,,,,,,,,,,,,,PPT31,001,2022-07-05_13h30.03.579,ABstudy,2022.1.4,59.95394339292472,
AB,Lag1_T1P_T2P,1,P,P,7,8,6,3,11,compass,Did you see the compass?,0.12,0.016,JPG\,brick,plate01b,pen04b,toaster01,screwdriver04b,candle01,magneticcompass,stapler03a,pig,ring01,orange,blankImage,blankImage,blankImage,blankImage,blankImage,blankImage,magneticcompass,,,,,,,,,,,,0,38,38,66,,,,,,,,,,,,,,,,,,,,,,,,,,,,,,,,,,,409.89928030001465,410.9146684000152,410.8813108000322,411.47406199999386,411.47406199999386,None,412.81126500002574,None,right,1.6189198999782093,412.81126500002574,None,414.45187500002794,None,right,0.7311980000231415,414.45187500002794,None,,,,,,,,,,,,,,,,,,,,,,,PPT31,001,2022-07-05_13h30.03.579,ABstudy,2022.1.4,59.95394339292472,
AB,Lag1_T1P_T2P,1,P,P,8,9,7,4,13,Doughnut,Did you see the Doughnut?,0.12,0.016,JPG\,brick,eraser,cucumber,ashtray01,thermometer02b,binoculars01b,lipstick02a,donut,stapler01,brownsugar,battery02b,iron01b,dice05a,blankImage,blankImage,blankImage,blankImage,donut,,,,,,,,,,,,0,39,39,39,,,,,,,,,,,,,,,,,,,,,,,,,,,,,,,,,,,415.20498560002306,416.2203058000305,416.18709259998286,416.7596040000208,416.7596040000208,None,418.33003190002637,None,left,0.7970435999450274,418.33003190002637,None,419.15667029999895,None,right,0.18623219995060936,419.15667029999895,None,,,,,,,,,,,,,,,,,,,,,,,PPT31,001,2022-07-05_13h30.03.579,ABstudy,2022.1.4,59.95394339292472,
AB,Lag5_T1P_T2P,5,P,P,8,13,7,3,16,Chefs hat,Did you see the Chefs hat?,0.12,0.016,JPG\,rice,watermelon01,tableknife02,scarf,computerkeyboard02,cauliflower01,battery02b,chefshat,book01b,sandal,sponge01,microscope,stapler01,fork03c,thermometer02b,apple07,blankImage,chefshat,,,,,,,,,,,,0,40,40,128,,,,,,,,,,,,,,,,,,,,,,,,,,,,,,,,,,,419.3790827000048,420.3909927000059,420.3743010000326,420.96489120001206,420.96489120001206,None,422.8797173000057,None,right,1.3505765000008978,422.8797173000057,None,424.261794799997,None,left,0.6811150999856181,424.261794799997,None,,,,,,,,,,,,,,,,,,,,,,,PPT31,001,2022-07-05_13h30.03.579,ABstudy,2022.1.4,59.95394339292472,
AB,Lag1_T1P_T2A,1,P,A,6,7,5,3,10,Dragon fly,Did you see the Dragon fly?,0.12,0.016,JPG\,leaf02a,pear01,measuringcup01,cigarette,fan,dragonfly01,teabag,tableknife02,ring01,pencil01,blankImage,blankImage,blankImage,blankImage,blankImage,blankImage,blankImage,dragonfly01,,,,,,,,,,,,0,41,41,185,,,,,,,,,,,,,,,,,,,,,,,,,,,,,,,,,,,424.96227840002393,425.96328140003607,425.9464390000212,426.60678159998497,426.60678159998497,None,427.7422271000105,None,right,0.8730684999609366,427.7422271000105,None,428.6323307999992,None,right,0.7588899999973364,428.6323307999992,None,,,,,,,,,,,,,,,,,,,,,,,PPT31,001,2022-07-05_13h30.03.579,ABstudy,2022.1.4,59.95394339292472,
AB,Lag5_T1P_T2P,5,P,P,8,13,7,4,17,cruise ship,Did you see the cruise ship?,0.12,0.016,JPG\,measuringcup01,dice05a,greenolive,lipstick02a,feather03a,balloon01b,lighter01,cruiseship,carrot01,plate01b,microscope,brick,stapler05,screw02,speaker04,spoon01,blankImage,cruiseship,,,,,,,,,,,,0,42,42,105,,,,,,,,,,,,,,,,,,,,,,,,,,,,,,,,,,,429.4208892000024,430.43422649998683,430.4175348000135,431.02657029998954,431.02657029998954,None,432.9474320000154,None,left,0.4511363999918103,432.9474320000154,None,433.423406100017,None,left,0.1752575999707915,433.423406100017,None,,,,,,,,,,,,,,,,,,,,,,,PPT31,001,2022-07-05_13h30.03.579,ABstudy,2022.1.4,59.95394339292472,
AB,Lag5_T1P_T2P,5,P,P,8,13,7,4,17,Accordion,Did you see the Accordion?,0.12,0.016,JPG\,toiletpaper01a,lipstick02a,potato02b,speaker04,globe,strawberry,carrot01,accordion01,sock01a,candle08b,pen04b,calculator01,stapler01,brick,pear01,fork03c,blankImage,accordion01,,,,,,,,,,,,0,43,43,162,,,,,,,,,,,,,,,,,,,,,,,,,,,,,,,,,,,433.6384638000163,434.638588300033,434.62184580002213,435.21323689998826,435.21323689998826,None,437.1607520999969,None,right,1.1415418999968097,437.1607520999969,None,438.32649720000336,None,left,0.6477230999735184,438.32649720000336,None,,,,,,,,,,,,,,,,,,,,,,,PPT31,001,2022-07-05_13h30.03.579,ABstudy,2022.1.4,59.95394339292472,
AB,Lag1_T1P_T2P,1,P,P,6,7,5,4,11,Bow,Did you see the Bow?,0.12,0.016,JPG\,broom01,plate01b,scissors01,garlic01a,paintbrush01,bow,stapler03a,shirt02,speaker04,celery,sandal,blankImage,blankImage,blankImage,blankImage,blankImage,blankImage,bow,,,,,,,,,,,,0,44,44,53,,,,,,,,,,,,,,,,,,,,,,,,,,,,,,,,,,,438.99823349999497,440.0104618000332,439.9939449999947,440.56098190002376,440.56098190002376,None,441.90861929999664,None,right,1.3862656999845058,441.90861929999664,None,443.3143935999833,None,right,0.44452439999440685,443.3143935999833,None,,,,,,,,,,,,,,,,,,,,,,,PPT31,001,2022-07-05_13h30.03.579,ABstudy,2022.1.4,59.95394339292472,
AB,Lag5_T1P_T2P,5,P,P,6,11,5,4,15,boxing glove,Did you see the boxing glove?,0.12,0.016,JPG\,button01,celery,birthdaycandle,apple07,avocado01,boxingglove01,dice05a,teabag,clock01a,feather03a,stapler06,scarf,orange,battery02b,thermometer02b,blankImage,blankImage,boxingglove01,,,,,,,,,,,,0,45,45,165,,,,,,,,,,,,,,,,,,,,,,,,,,,,,,,,,,,443.8405115000205,444.8487126000109,444.81485199998133,445.43051039997954,445.43051039997954,None,447.2109538000077,None,left,0.347319399996195,447.2109538000077,None,447.5845307999989,None,left,0.2863204999594018,447.5845307999989,None,,,,,,,,,,,,,,,,,,,,,,,PPT31,001,2022-07-05_13h30.03.579,ABstudy,2022.1.4,59.95394339292472,
AB,Lag1_T1P_T2A,1,P,A,8,9,7,5,14,Fridge,Did you see the Fridge?,0.12,0.016,JPG\,cherry01,cymbal,envelope03a,foosballtable,shirt02,cellphone,sewingmachine01a,fridge,battery02b,apple07,pencil01,screwdriver04b,strawberry,sunglasses04,blankImage,blankImage,blankImage,fridge,,,,,,,,,,,,0,46,46,173,,,,,,,,,,,,,,,,,,,,,,,,,,,,,,,,,,,447.9050135000143,448.9194566999795,448.8859964000294,449.4695739999879,449.4695739999879,None,451.2191883000196,None,right,0.7559378999867477,451.2191883000196,None,452.00591120001627,None,right,0.5771562000154518,452.00591120001627,None,,,,,,,,,,,,,,,,,,,,,,,PPT31,001,2022-07-05_13h30.03.579,ABstudy,2022.1.4,59.95394339292472,
AB,Lag1_T1P_T2P,1,P,P,6,7,5,5,12,owl,Did you see the owl?,0.12,0.016,JPG\,paintbrush01,eraser,medal02b,hammer01,speaker04,greathornowl,stapler01,comb02a,plate01b,clock01a,button01,globe,blankImage,blankImage,blankImage,blankImage,blankImage,greathornowl,,,,,,,,,,,,0,47,47,1,,,,,,,,,,,,,,,,,,,,,,,,,,,,,,,,,,,452.6094937000307,453.62407910003094,453.5906444999855,454.16907130001346,454.16907130001346,None,455.6284397999989,None,left,0.7063407000387087,455.6284397999989,None,456.37433880002936,None,right,0.20830379996914417,456.37433880002936,None,,,,,,,,,,,,,,,,,,,,,,,PPT31,001,2022-07-05_13h30.03.579,ABstudy,2022.1.4,59.95394339292472,
AB,Lag5_T1P_T2P,5,P,P,5,10,4,5,15,rake,Did you see the rake?,0.12,0.016,JPG\,scissors01,grape01,mushroom01,toiletpaper01a,leafrake,pizza,cigarette,ashtray01,carrot01,stapler03b,foosballtable,lipstick02a,teabag,acorn,potato02b,blankImage,blankImage,leafrake,,,,,,,,,,,,0,48,48,92,,,,,,,,,,,,,,,,,,,,,,,,,,,,,,,,,,,456.6192066000076,457.62808440002846,457.61126460001105,458.19618249998894,458.19618249998894,None,460.0511478999979,None,left,1.403408300015144,460.0511478999979,None,461.4818002000102,None,right,0.6367204000125639,461.4818002000102,None,,,,,,,,,,,,,,,,,,,,,,,PPT31,001,2022-07-05_13h30.03.579,ABstudy,2022.1.4,59.95394339292472,
AB,Lag5_T1P_T2A,5,P,A,5,10,4,3,13,fan,Did you see the fan?,0.12,0.016,JPG\,scissors01,grape01,mushroom01,toiletpaper01a,fanheater,pizza,cigarette,ashtray01,carrot01,pineapple01a,foosballtable,lipstick02a,teabag,blankImage,blankImage,blankImage,blankImage,fanheater,,,,,,,,,,,,0,49,49,220,,,,,,,,,,,,,,,,,,,,,,,,,,,,,,,,,,,462.1519900999847,463.16685819998384,463.13359729998047,463.71376840001903,463.71376840001903,None,465.31689150002785,None,right,1.0014335999730974,465.31689150002785,None,466.3366360000218,None,right,1.0775342000415549,466.3366360000218,None,,,,,,,,,,,,,,,,,,,,,,,PPT31,001,2022-07-05_13h30.03.579,ABstudy,2022.1.4,59.95394339292472,
AB,Lag5_T1P_T2P,5,P,P,6,11,5,3,14,Poker chips,Did you see the Poker chips?,0.12,0.016,JPG\,iron01b,brick,broccoli01a,balloon01b,tomato01,pokerchips,sandal,teabag,scissors01,pineapple01a,stapler04b,measuringcup01,sock01a,book01b,blankImage,blankImage,blankImage,pokerchips,,,,,,,,,,,,0,50,50,154,,,,,,,,,,,,,,,,,,,,,,,,,,,,,,,,,,,467.4431568,468.4555433000205,468.4387766,469.0099821999902,469.0099821999902,None,470.78005070000654,None,left,0.9948542999918573,470.78005070000654,None,471.79256969998823,None,right,0.32625039998674765,471.79256969998823,None,,,,,,,,,,,,,,,,,,,,,,,PPT31,001,2022-07-05_13h30.03.579,ABstudy,2022.1.4,59.95394339292472,
AB,Lag1_T1P_T2P,1,P,P,7,8,6,4,12,trophy,Did you see the trophy?,0.12,0.016,JPG\,cherry01,cymbal,envelope03a,foosballtable,shirt02,cellphone,trophy01,stapler04b,battery02b,apple07,pencil01,screwdriver04b,blankImage,blankImage,blankImage,blankImage,blankImage,trophy01,,,,,,,,,,,,0,51,51,74,,,,,,,,,,,,,,,,,,,,,,,,,,,,,,,,,,,472.14853410003707,473.1602226999821,473.14345590001903,473.72884120000526,473.72884120000526,None,475.191430100007,None,left,0.8396741999895312,475.191430100007,None,476.0631843000301,None,right,0.23975419998168945,476.0631843000301,None,,,,,,,,,,,,,,,,,,,,,,,PPT31,001,2022-07-05_13h30.03.579,ABstudy,2022.1.4,59.95394339292472,
AB,Lag1_T1P_T2P,1,P,P,5,6,4,3,9,elephant,Did you see the elephant?,0.12,0.016,JPG\,celery,brownsugar,key01,sunglasses04,arugula,stapler04b,dice05a,tennisball01b,scarf,blankImage,blankImage,blankImage,blankImage,blankImage,blankImage,blankImage,blankImage,arugula,,,,,,,,,,,,0,52,52,54,,,,,,,,,,,,,,,,,,,,,,,,,,,,,,,,,,,476.3767286000075,477.3811355000362,477.3645928000333,477.97165540000424,477.97165540000424,None,479.0479056999902,None,right,1.4875092000002041,479.0479056999902,None,480.56798180000624,None,right,0.34242379997158423,480.56798180000624,None,,,,,,,,,,,,,,,,,,,,,,,PPT31,001,2022-07-05_13h30.03.579,ABstudy,2022.1.4,59.95394339292472,
AB,Lag5_T1P_T2P,5,P,P,5,10,4,3,13,lollipop,Did you see the lollipop?,0.12,0.016,JPG\,brownsugar,candle01,match,printer02,lollipop04,balloon01b,belt02a,potato02b,computerkeyboard02,stapler03a,rice,mushroom01,pencil01,blankImage,blankImage,blankImage,blankImage,lollipop04,,,,,,,,,,,,0,53,53,112,,,,,,,,,,,,,,,,,,,,,,,,,,,,,,,,,,,480.9427907000063,481.9522019000142,481.9357240999816,482.43627479998395,482.43627479998395,None,484.1332513000234,None,left,0.48944479995407164,484.1332513000234,None,484.6552604000317,None,left,0.19931090000318363,484.6552604000317,None,,,,,,,,,,,,,,,,,,,,,,,PPT31,001,2022-07-05_13h30.03.579,ABstudy,2022.1.4,59.95394339292472,
AB,Lag1_T1P_T2A,1,P,A,5,6,4,4,10,paper airplane,Did you see the paper airplane?,0.12,0.016,JPG\,thermometer02b,avocado01,scissors01,tennisball01b,paperairplane,banana01,strawberry,cigarette,potato02b,pineapple01a,blankImage,blankImage,blankImage,blankImage,blankImage,blankImage,blankImage,paperairplane,,,,,,,,,,,,0,54,54,191,,,,,,,,,,,,,,,,,,,,,,,,,,,,,,,,,,,484.8716145000071,485.87269819999347,485.85600450000493,486.44083169999067,486.44083169999067,None,487.6935901999823,None,left,0.6410288999904878,487.6935901999823,None,488.35891800001264,None,right,0.14347880001878366,488.35891800001264,None,,,,,,,,,,,,,,,,,,,,,,,PPT31,001,2022-07-05_13h30.03.579,ABstudy,2022.1.4,59.95394339292472,
AB,Lag5_T1P_T2A,5,P,A,7,12,6,3,15,Toy soldier,Did you see the Toy soldier?,0.12,0.016,JPG\,binoculars01b,cymbal,pizza,candy,paintbrush01,sponge01,toysoldier01b,thermometer02b,speaker04,lemon02,lipstick02a,strawberry,candle01,acorn,plate01b,blankImage,blankImage,toysoldier01b,,,,,,,,,,,,0,55,55,203,,,,,,,,,,,,,,,,,,,,,,,,,,,,,,,,,,,488.53081810002914,489.5432068000082,489.5264472999843,490.11922769999364,490.11922769999364,None,491.9761208000127,None,left,0.5342302999924868,491.9761208000127,None,492.53022200003034,None,right,0.6039364999742247,492.53022200003034,None,,,,,,,,,,,,,,,,,,,,,,,PPT31,001,2022-07-05_13h30.03.579,ABstudy,2022.1.4,59.95394339292472,
AB,Lag5_T1P_T2P,5,P,P,6,11,5,4,15,punching bag,Did you see the punching bag?,0.12,0.016,JPG\,foosballtable,cigarette,pen04b,birthdaycandle,hammer01,punchingbag,binoculars01b,chain01,potato02b,cauliflower01,stapler04b,ashtray01,scarf,cellphone,calculator01,blankImage,blankImage,punchingbag,,,,,,,,,,,,0,56,56,156,,,,,,,,,,,,,,,,,,,,,,,,,,,,,,,,,,,493.1669628000236,494.18113620002987,494.14771350001683,494.64997030002996,494.64997030002996,None,496.5421631000354,None,left,0.8416458999854513,496.5421631000354,None,497.4011734999949,None,right,0.17279189999680966,497.4011734999949,None,,,,,,,,,,,,,,,,,,,,,,,PPT31,001,2022-07-05_13h30.03.579,ABstudy,2022.1.4,59.95394339292472,
AB,Lag5_T1A_T2A,5,A,A,5,10,4,5,15,flower,Did you see the flower?,0.12,0.016,JPG\,clock01a,cellphone,toaster01,toothbrush03b,cauliflower01,microscope,comb02a,paintbrush01,scarf,clock04,sponge01,iron01b,watch02a,celery,ring01,blankImage,blankImage,stepladder,,,,,,,,,,,,0,57,57,303,,,,,,,,,,,,,,,,,,,,,,,,,,,,,,,,,,,497.6408451999887,498.65219039999647,498.63552120001987,499.24142199999187,499.24142199999187,None,501.00732929998776,None,right,1.583868000016082,501.00732929998776,None,502.62269669998204,None,right,0.7527018000255339,502.62269669998204,None,,,,,,,,,,,,,,,,,,,,,,,PPT31,001,2022-07-05_13h30.03.579,ABstudy,2022.1.4,59.95394339292472,
AB,Lag5_T1P_T2P,5,P,P,8,13,7,5,18,pipe,Did you see the pipe?,0.12,0.016,JPG\,scissors01,ashtray01,garlic01a,medal02b,cigarette,candle08b,leaf02a,smokingpipe,cucumber,rice,toiletpaper01a,greenolive,stapler01,cellphone,tableknife02,spoon01,blankImage,smokingpipe,,,,,,,,,,,,0,58,58,138,,,,,,,,,,,,,,,,,,,,,,,,,,,,,,,,,,,503.40905990003375,504.4247185999993,504.3911305000074,504.964017899998,504.964017899998,None,507.00884419999784,None,left,0.7735858000232838,507.00884419999784,None,507.81355880002957,None,right,0.5532917000236921,507.81355880002957,None,,,,,,,,,,,,,,,,,,,,,,,PPT31,001,2022-07-05_13h30.03.579,ABstudy,2022.1.4,59.95394339292472,
AB,Lag1_T1A_T2P,1,A,P,6,7,5,5,12,Ostrich,Did you see the Ostrich?,0.12,0.016,JPG\,thermometer02b,candle08b,comb02a,toothbrush03b,brick,computerkeyboard02,stapler05,pineapple01a,candy,birthdaycandle,clock04,hairclip03,blankImage,blankImage,blankImage,blankImage,blankImage,discoball,,,,,,,,,,,,0,59,59,232,,,,,,,,,,,,,,,,,,,,,,,,,,,,,,,,,,,508.4039703999879,509.41312909999397,509.39634119998664,509.9925975999795,509.9925975999795,None,511.426138299983,None,right,1.9399735000333749,511.426138299983,None,513.3834254000103,None,right,0.27876229997491464,513.3834254000103,None,,,,,,,,,,,,,,,,,,,,,,,PPT31,001,2022-07-05_13h30.03.579,ABstudy,2022.1.4,59.95394339292472,
AB,Lag5_T1A_T2P,5,A,P,6,11,5,4,15,fish,Did you see the fish?,0.12,0.016,JPG\,pingpongpaddle01c,banana01,scissors01,pig,shirt02,leaf02a,pear01,sponge01,fork03c,tableknife02,stapler03a,match,toothbrush03b,birthdaycandle,candle01,blankImage,blankImage,lighthouse,,,,,,,,,,,,0,60,60,265,,,,,,,,,,,,,,,,,,,,,,,,,,,,,,,,,,,513.6859719000058,514.7014965999988,514.6680696000112,515.2628293000162,515.2628293000162,None,517.067525600025,None,right,0.9069408999639563,517.067525600025,None,518.0065462000202,None,right,0.6558169000199996,518.0065462000202,None,,,,,,,,,,,,,,,,,,,,,,,PPT31,001,2022-07-05_13h30.03.579,ABstudy,2022.1.4,59.95394339292472,
AB,Lag1_T1A_T2P,1,A,P,5,6,4,3,9,Spider,Did you see the Spider?,0.12,0.016,JPG\,pen04b,speaker04,lighter01,cherry01,8ball,stapler04b,sock01a,toothbrush03b,broom01,blankImage,blankImage,blankImage,blankImage,blankImage,blankImage,blankImage,blankImage,bridge,,,,,,,,,,,,0,61,61,250,,,,,,,,,,,,,,,,,,,,,,,,,,,,,,,,,,,518.6909078999888,519.7063794999849,519.6730077000102,520.2454369000043,520.2454369000043,None,521.3343641000101,None,right,1.2642919999780133,521.3343641000101,None,522.6263510999852,None,left,0.6603190999594517,522.6263510999852,None,,,,,,,,,,,,,,,,,,,,,,,PPT31,001,2022-07-05_13h30.03.579,ABstudy,2022.1.4,59.95394339292472,
AB,Lag5_T1P_T2P,5,P,P,7,12,6,3,15,lips,Did you see the lips?,0.12,0.016,JPG\,cigarette,fork03c,greenolive,broccoli01a,avocado01,tennisball01b,lip,leaf02a,pig,fan,clock01a,stapler03a,envelope03a,birthdaycandle,teabag,blankImage,blankImage,lip,,,,,,,,,,,,0,62,62,95,,,,,,,,,,,,,,,,,,,,,,,,,,,,,,,,,,,523.3155790999881,524.3278615000308,524.3110815000255,524.9082093000179,524.9082093000179,None,526.7688803999918,None,left,0.3582039999892004,526.7688803999918,None,527.1484753999976,None,left,0.21737510000821203,527.1484753999976,None,,,,,,,,,,,,,,,,,,,,,,,PPT31,001,2022-07-05_13h30.03.579,ABstudy,2022.1.4,59.95394339292472,
AB,Lag1_T1P_T2P,1,P,P,7,8,6,4,12,Christmas Tree,Did you see the Christmas Tree?,0.12,0.016,JPG\,sandal,fan,printer02,cellphone,mushroom01,candle08b,firtree,stapler03a,lamp04a,hammer01,teabag,aceofdiamond,blankImage,blankImage,blankImage,blankImage,blankImage,firtree,,,,,,,,,,,,0,63,63,6,,,,,,,,,,,,,,,,,,,,,,,,,,,,,,,,,,,527.4054782000021,528.4153069999884,528.3987797999871,528.9984898000257,528.9984898000257,None,530.4647465000162,None,right,4.806638200010639,530.4647465000162,None,535.2885618000291,None,left,0.18975649995263666,535.2885618000291,None,,,,,,,,,,,,,,,,,,,,,,,PPT31,001,2022-07-05_13h30.03.579,ABstudy,2022.1.4,59.95394339292472,
AB,Lag1_T1P_T2P,1,P,P,5,6,4,5,11,Guitar case,Did you see the Guitar case?,0.12,0.016,JPG\,broccoli01a,scissors01,toothbrush03b,foosballtable,guitarcase,stapler05,hammer01,toiletpaper01a,cd,garlic01a,carrot01,blankImage,blankImage,blankImage,blankImage,blankImage,blankImage,guitarcase,,,,,,,,,,,,0,64,64,14,,,,,,,,,,,,,,,,,,,,,,,,,,,,,,,,,,,535.510966300033,536.5232377999928,536.5066060000099,537.1032240000204,537.1032240000204,None,538.4495531999855,None,left,0.757074500026647,538.4495531999855,None,539.2264221999794,None,right,0.27632029994856566,539.2264221999794,None,,,,,,,,,,,,,,,,,,,,,,,PPT31,001,2022-07-05_13h30.03.579,ABstudy,2022.1.4,59.95394339292472,
AB,Lag5_T1A_T2P,5,A,P,6,11,5,4,15,butterfly,Did you see the butterfly?,0.12,0.016,JPG\,comb02a,key01,medal02b,battery02b,lighter01,microscope,watermelon01,sandal,pig,cellphone,stapler06,calculator01,cymbal,clock04,cucumber,blankImage,blankImage,uprightpiano01,,,,,,,,,,,,0,65,65,276,,,,,,,,,,,,,,,,,,,,,,,,,,,,,,,,,,,539.5305611999938,540.5441081000026,540.527340700035,541.0991674999823,541.0991674999823,None,542.9330207000021,None,right,1.0171590999816544,542.9330207000021,None,543.9810260999948,None,right,0.3212237000116147,543.9810260999948,None,,,,,,,,,,,,,,,,,,,,,,,PPT31,001,2022-07-05_13h30.03.579,ABstudy,2022.1.4,59.95394339292472,
AB,Lag1_T1P_T2P,1,P,P,6,7,5,5,12,exit sign,Did you see the exit sign?,0.12,0.016,JPG\,printer02,envelope03a,potato02b,calculator01,tableknife02,exitsign,stapler01,pig,broom01,greenolive,candle08b,battery02b,blankImage,blankImage,blankImage,blankImage,blankImage,exitsign,,,,,,,,,,,,0,66,66,41,,,,,,,,,,,,,,,,,,,,,,,,,,,,,,,,,,,544.339436099981,545.3484135000035,545.331638600037,545.9304804999847,545.9304804999847,None,547.3427519000252,None,left,0.9040018999949098,547.3427519000252,None,548.2681096000015,None,right,0.1305776999797672,548.2681096000015,None,,,,,,,,,,,,,,,,,,,,,,,PPT31,001,2022-07-05_13h30.03.579,ABstudy,2022.1.4,59.95394339292472,
AB,Lag5_T1P_T2P,5,P,P,7,12,6,5,17,Pigeon,Did you see the Pigeon?,0.12,0.016,JPG\,strawberry,leaf02a,clock04,candle01,avocado01,paintbrush01,pigeon,brownsugar,ring01,lemon02,fork03c,stapler01,cauliflower01,tableknife02,tennisball01b,thermometer02b,blankImage,pigeon,,,,,,,,,,,,0,67,67,151,,,,,,,,,,,,,,,,,,,,,,,,,,,,,,,,,,,548.4214716000133,549.4360479000024,549.4026368000195,549.9870313000283,549.9870313000283,None,552.0161698000156,None,right,2.126057200017385,552.0161698000156,None,554.1743048999924,None,left,0.1858504000119865,554.1743048999924,None,,,,,,,,,,,,,,,,,,,,,,,PPT31,001,2022-07-05_13h30.03.579,ABstudy,2022.1.4,59.95394339292472,
AB,Lag1_T1P_T2P,1,P,P,6,7,5,4,11,no parking sign,Did you see the no parking sign?,0.12,0.016,JPG\,fork03c,belt02a,grape01,computerkeyboard02,lemon02,parkingsign,stapler05,toiletpaper01a,toaster01,lipstick02a,book01b,blankImage,blankImage,blankImage,blankImage,blankImage,blankImage,parkingsign,,,,,,,,,,,,0,68,68,47,,,,,,,,,,,,,,,,,,,,,,,,,,,,,,,,,,,554.3982982999878,555.4087962000049,555.3921450999915,555.9640636999975,555.9640636999975,None,557.3367423000163,None,left,0.6696437000064179,557.3367423000163,None,558.0282869000221,None,right,0.13820079999277368,558.0282869000221,None,,,,,,,,,,,,,,,,,,,,,,,PPT31,001,2022-07-05_13h30.03.579,ABstudy,2022.1.4,59.95394339292472,
AB,Lag1_T1P_T2P,1,P,P,8,9,7,4,13,dart board,Did you see the dart board?,0.12,0.016,JPG\,rice,watermelon01,tableknife02,scarf,computerkeyboard02,cauliflower01,battery02b,dartboard,stapler01,sandal,sponge01,microscope,tomato01,blankImage,blankImage,blankImage,blankImage,dartboard,,,,,,,,,,,,0,69,69,80,,,,,,,,,,,,,,,,,,,,,,,,,,,,,,,,,,,558.1998168000137,559.2127410999965,559.1959280000301,559.7705793000059,559.7705793000059,None,561.3629169000196,None,left,0.5631507000070997,561.3629169000196,None,561.9503493999946,None,left,0.15957439999328926,561.9503493999946,None,,,,,,,,,,,,,,,,,,,,,,,PPT31,001,2022-07-05_13h30.03.579,ABstudy,2022.1.4,59.95394339292472,
AB,Lag1_T1P_T2P,1,P,P,7,8,6,3,11,locker,Did you see the locker?,0.12,0.016,JPG\,toiletpaper01a,lipstick02a,potato02b,speaker04,globe,strawberry,locker,stapler04b,sock01a,candle08b,pen04b,blankImage,blankImage,blankImage,blankImage,blankImage,blankImage,locker,,,,,,,,,,,,0,70,70,19,,,,,,,,,,,,,,,,,,,,,,,,,,,,,,,,,,,562.1341697000316,563.1494616999989,563.1160956000094,563.6991857999819,563.6991857999819,None,565.0385695000296,None,right,1.4877720999647863,565.0385695000296,None,566.5674120000331,None,left,0.10298510000575334,566.5674120000331,None,,,,,,,,,,,,,,,,,,,,,,,PPT31,001,2022-07-05_13h30.03.579,ABstudy,2022.1.4,59.95394339292472,
AB,Lag5_T1A_T2P,5,A,P,5,10,4,4,14,duck,Did you see the duck?,0.12,0.016,JPG\,brick,eraser,cucumber,ashtray01,thermometer02b,binoculars01b,lipstick02a,screwdriver04b,grape01,stapler04b,battery02b,iron01b,dice05a,avocado01,blankImage,blankImage,blankImage,barrel01,,,,,,,,,,,,0,71,71,280,,,,,,,,,,,,,,,,,,,,,,,,,,,,,,,,,,,566.6951111999806,567.7048213999951,567.6890799999819,568.2805944000138,568.2805944000138,None,570.0274959999952,None,right,1.2424415000132285,570.0274959999952,None,571.2917339000269,None,right,0.5061070999945514,571.2917339000269,None,,,,,,,,,,,,,,,,,,,,,,,PPT31,001,2022-07-05_13h30.03.579,ABstudy,2022.1.4,59.95394339292472,
AB,Lag1_T1P_T2P,1,P,P,7,8,6,4,12,Dog House,Did you see the Dog House?,0.12,0.016,JPG\,pineapple01a,leaf02a,grape01,toiletpaper01a,match,tennisball01b,doghouse,stapler03b,pig,measuringcup01,ring01,lemon02,blankImage,blankImage,blankImage,blankImage,blankImage,doghouse,,,,,,,,,,,,0,72,72,44,,,,,,,,,,,,,,,,,,,,,,,,,,,,,,,,,,,571.8323180000298,572.8428330000024,572.825948600017,573.4079604999861,573.4079604999861,None,574.892296999984,None,left,0.6345063000335358,574.892296999984,None,575.5452783000073,None,right,0.7893226000014693,575.5452783000073,None,,,,,,,,,,,,,,,,,,,,,,,PPT31,001,2022-07-05_13h30.03.579,ABstudy,2022.1.4,59.95394339292472,
AB,Lag5_T1P_T2P,5,P,P,7,12,6,4,16,Fireplace,Did you see the Fireplace?,0.12,0.016,JPG\,printer02,leaf02a,cauliflower01,sock01a,brownsugar,paintbrush01,fireplace,orange,belt02a,shirt02,key01,stapler01,cigarette,scissors01,envelope03a,blueberry01,blankImage,fireplace,,,,,,,,,,,,0,73,73,88,,,,,,,,,,,,,,,,,,,,,,,,,,,,,,,,,,,576.3665689000045,577.3804751000134,577.3471426999895,577.9321269000066,577.9321269000066,None,579.9182988000102,None,right,0.9925772999995388,579.9182988000102,None,580.9342795999837,None,right,0.6799045000225306,580.9342795999837,None,,,,,,,,,,,,,,,,,,,,,,,PPT31,001,2022-07-05_13h30.03.579,ABstudy,2022.1.4,59.95394339292472,
AB,Lag5_T1P_T2P,5,P,P,6,11,5,5,16,microwave,Did you see the microwave?,0.12,0.016,JPG\,pen04b,speaker04,lighter01,cherry01,weight04a,microwave,sock01a,toothbrush03b,broom01,sewingmachine01a,stapler06,iron01b,clock01a,sandal,cd,blueberry01,blankImage,microwave,,,,,,,,,,,,0,74,74,136,,,,,,,,,,,,,,,,,,,,,,,,,,,,,,,,,,,581.6373632000177,582.6523844000185,582.6190853000153,583.1896762999822,583.1896762999822,None,585.1795033999952,None,left,0.38628640002571046,585.1795033999952,None,585.5890624999884,None,left,0.28879109997069463,585.5890624999884,None,,,,,,,,,,,,,,,,,,,,,,,PPT31,001,2022-07-05_13h30.03.579,ABstudy,2022.1.4,59.95394339292472,
AB,Lag1_T1P_T2P,1,P,P,5,6,4,3,9,kangaroo,Did you see the kangaroo?,0.12,0.016,JPG\,candle01,shirt02,brick,orange,kangaroo,stapler03a,pizza,thermometer02b,book01b,blankImage,blankImage,blankImage,blankImage,blankImage,blankImage,blankImage,blankImage,kangaroo,,,,,,,,,,,,0,75,75,16,,,,,,,,,,,,,,,,,,,,,,,,,,,,,,,,,,,585.9501650999882,586.9563666000031,586.9409899000311,587.5198522999999,587.5198522999999,None,588.6083572999923,None,left,0.5497859999886714,588.6083572999923,None,589.1759639999946,None,right,0.4463106000330299,589.1759639999946,None,,,,,,,,,,,,,,,,,,,,,,,PPT31,001,2022-07-05_13h30.03.579,ABstudy,2022.1.4,59.95394339292472,
AB,Lag1_T1A_T2P,1,A,P,8,9,7,4,13,Toolbox,Did you see the Toolbox?,0.12,0.016,JPG\,pizza,printer02,medal02b,spoon01,grape01,lighter01,belt02a,watermelon01,stapler03b,battery02b,screw02,comb02a,cauliflower01,blankImage,blankImage,blankImage,blankImage,ladybug03,,,,,,,,,,,,0,76,76,237,,,,,,,,,,,,,,,,,,,,,,,,,,,,,,,,,,,589.6488297000178,590.6605886000325,590.6440348000033,591.2360273000086,591.2360273000086,None,592.8524004000355,None,right,1.4577324000420049,592.8524004000355,None,594.3307114000199,None,left,0.4833387999678962,594.3307114000199,None,,,,,,,,,,,,,,,,,,,,,,,PPT31,001,2022-07-05_13h30.03.579,ABstudy,2022.1.4,59.95394339292472,
AB,Lag1_T1P_T2A,1,P,A,6,7,5,4,11,bird,Did you see the bird?,0.12,0.016,JPG\,foosballtable,candy,envelope03a,microscope,pencil01,cedarwaxwing,scissors01,watermelon01,grape01,dandelion,pineapple01a,blankImage,blankImage,blankImage,blankImage,blankImage,blankImage,cedarwaxwing,,,,,,,,,,,,0,77,77,182,,,,,,,,,,,,,,,,,,,,,,,,,,,,,,,,,,,594.8930306999828,595.9005374999833,595.8843469999847,596.4130739999819,596.3859356000321,None,597.8049746000324,None,left,0.6970909000374377,597.8049746000324,None,598.518641200033,None,right,0.23130179999861866,598.518641200033,None,,,,,,,,,,,,,,,,,,,,,,,PPT31,001,2022-07-05_13h30.03.579,ABstudy,2022.1.4,59.95394339292472,
AB,Lag1_T1P_T2P,1,P,P,5,6,4,5,11,squirrel,Did you see the squirrel?,0.12,0.016,JPG\,pencil01,orange,clock01a,sponge01,squirrel,stapler05,lipstick02a,strawberry,book01b,mushroom01,envelope03a,blankImage,blankImage,blankImage,blankImage,blankImage,blankImage,squirrel,,,,,,,,,,,,0,78,78,5,,,,,,,,,,,,,,,,,,,,,,,,,,,,,,,,,,,598.7791834999807,599.7860722999903,599.7694731000229,600.3450164999813,600.3450164999813,None,601.7242299999925,None,left,0.5138539000181481,601.7242299999925,None,602.2558118000161,None,left,0.1661714999936521,602.2558118000161,None,,,,,,,,,,,,,,,,,,,,,,,PPT31,001,2022-07-05_13h30.03.579,ABstudy,2022.1.4,59.95394339292472,
AB,Lag1_T1A_T2P,1,A,P,8,9,7,3,12,elbow,Did you see the elbow?,0.12,0.016,JPG\,watermelon01,cigarette,faucet,cymbal,cauliflower01,feather03a,cherry01,broom01,stapler01,key01,baseball01a,iron01b,blankImage,blankImage,blankImage,blankImage,blankImage,cashregister01,,,,,,,,,,,,0,79,79,251,,,,,,,,,,,,,,,,,,,,,,,,,,,,,,,,,,,602.4427953999839,603.4566802000045,603.4399071999942,604.1029497000272,604.0177279000054,None,605.4977214999963,None,right,1.1480150000425056,605.4977214999963,None,606.6787217999808,None,right,1.1516943000024185,606.6787217999808,None,,,,,,,,,,,,,,,,,,,,,,,PPT31,001,2022-07-05_13h30.03.579,ABstudy,2022.1.4,59.95394339292472,
AB,Lag5_T1P_T2P,5,P,P,7,12,6,5,17,flower,Did you see the flower?,0.12,0.016,JPG\,leaf02a,pear01,measuringcup01,cigarette,fan,lemon02,lily,tableknife02,ring01,pencil01,cellphone,stapler01,carrot01,binoculars01b,sock01a,book01b,blankImage,lily,,,,,,,,,,,,0,80,80,134,,,,,,,,,,,,,,,,,,,,,,,,,,,,,,,,,,,607.8698042000178,608.8790518000023,608.8632749000099,609.4803789000143,609.4803789000143,None,611.4448171000113,None,left,0.5852381999720819,611.4448171000113,None,612.0480128999916,None,right,0.24632090004161,612.0480128999916,None,,,,,,,,,,,,,,,,,,,,,,,PPT31,001,2022-07-05_13h30.03.579,ABstudy,2022.1.4,59.95394339292472,
AB,Lag1_T1A_T2P,1,A,P,5,6,4,4,10,Bull,Did you see the Bull?,0.12,0.016,JPG\,celery,pencil01,fan,foosballtable,iron01b,stapler01,potato02b,fork03c,button01,pineapple01a,blankImage,blankImage,blankImage,blankImage,blankImage,blankImage,blankImage,spiderweb,,,,,,,,,,,,0,81,81,244,,,,,,,,,,,,,,,,,,,,,,,,,,,,,,,,,,,612.3178727999912,613.3329583000159,613.2997050000122,613.9081238000072,613.9081238000072,None,615.1569528999971,None,right,1.425396999984514,615.1569528999971,None,616.6031978999963,None,right,0.7632388000492938,616.6031978999963,None,,,,,,,,,,,,,,,,,,,,,,,PPT31,001,2022-07-05_13h30.03.579,ABstudy,2022.1.4,59.95394339292472,
AB,Lag5_T1P_T2P,5,P,P,5,10,4,5,15,baseball bat,Did you see the baseball bat?,0.12,0.016,JPG\,pizza,printer02,medal02b,spoon01,baseballbat,lighter01,belt02a,watermelon01,celery,stapler04b,screw02,comb02a,cauliflower01,lipstick02a,potato02b,blankImage,blankImage,baseballbat,,,,,,,,,,,,0,82,82,123,,,,,,,,,,,,,,,,,,,,,,,,,,,,,,,,,,,617.3919775999966,618.4048467000248,618.3883375999867,619.003661900002,619.003661900002,None,620.8945641000173,None,left,0.5836235000169836,620.8945641000173,None,621.5081041000085,None,right,0.16211069998098537,621.5081041000085,None,,,,,,,,,,,,,,,,,,,,,,,PPT31,001,2022-07-05_13h30.03.579,ABstudy,2022.1.4,59.95394339292472,
AB,Lag5_T1P_T2P,5,P,P,6,11,5,3,14,wrench,Did you see the wrench?,0.12,0.016,JPG\,cherry01,cymbal,envelope03a,foosballtable,shirt02,stubbywrench01a,sewingmachine01a,candle08b,battery02b,apple07,stapler03b,screwdriver04b,strawberry,sunglasses04,blankImage,blankImage,blankImage,stubbywrench01a,,,,,,,,,,,,0,83,83,122,,,,,,,,,,,,,,,,,,,,,,,,,,,,,,,,,,,621.6948718000203,622.7091729000094,622.6923685999936,623.3338851000299,623.2592207000125,None,624.9595601999899,None,left,0.7358792000450194,624.9595601999899,None,625.711939300003,None,right,0.27046359999803826,625.711939300003,None,,,,,,,,,,,,,,,,,,,,,,,PPT31,001,2022-07-05_13h30.03.579,ABstudy,2022.1.4,59.95394339292472,
AB,Lag5_T1P_T2P,5,P,P,8,13,7,5,18,hand,Did you see the hand?,0.12,0.016,JPG\,foosballtable,candy,envelope03a,microscope,pencil01,leaf02a,scissors01,hand01b,grape01,dandelion,pineapple01a,hammer01,stapler03a,thermometer02b,ring01,sewingmachine01a,blankImage,hand01b,,,,,,,,,,,,0,84,84,131,,,,,,,,,,,,,,,,,,,,,,,,,,,,,,,,,,,626.0146839999943,627.0298067000112,626.9964850000106,627.4970246999874,627.4970246999874,None,629.5257590999827,None,left,0.4163805000134744,629.5257590999827,None,629.9658347999793,None,left,0.1692180999671109,629.9658347999793,None,,,,,,,,,,,,,,,,,,,,,,,PPT31,001,2022-07-05_13h30.03.579,ABstudy,2022.1.4,59.95394339292472,
AB,Lag5_T1P_T2P,5,P,P,6,11,5,4,15,Bumper car,Did you see the Bumper car?,0.12,0.016,JPG\,eraser,measuringcup01,chain01,birthdaycandle,ring01,bumpercar,weight04a,pig,cauliflower01,celery,stapler01,sunglasses04,greenolive,candy,strawberry,blankImage,blankImage,bumpercar,,,,,,,,,,,,0,85,85,104,,,,,,,,,,,,,,,,,,,,,,,,,,,,,,,,,,,630.1730171000236,631.1846722000046,631.1690918999957,631.7586410000222,631.7586410000222,None,633.6580927000032,None,left,0.4114288000273518,633.6580927000032,None,634.0871127999853,None,right,0.2306887999875471,634.0871127999853,None,,,,,,,,,,,,,,,,,,,,,,,PPT31,001,2022-07-05_13h30.03.579,ABstudy,2022.1.4,59.95394339292472,
AB,Lag1_T1A_T2P,1,A,P,8,9,7,4,13,Fireplace,Did you see the Fireplace?,0.12,0.016,JPG\,scissors01,ashtray01,garlic01a,medal02b,cigarette,candle08b,leaf02a,envelope03a,stapler06,rice,toiletpaper01a,greenolive,cymbal,blankImage,blankImage,blankImage,blankImage,dartboard,,,,,,,,,,,,0,86,86,252,,,,,,,,,,,,,,,,,,,,,,,,,,,,,,,,,,,634.3428052000236,635.3551410000073,635.3384399000206,635.906766900036,635.906766900036,None,637.4086035999935,None,right,1.0290876000071876,637.4086035999935,None,638.4585132999928,None,right,0.5641146999550983,638.4585132999928,None,,,,,,,,,,,,,,,,,,,,,,,PPT31,001,2022-07-05_13h30.03.579,ABstudy,2022.1.4,59.95394339292472,
AB,Lag1_T1P_T2P,1,P,P,8,9,7,5,14,bullet,Did you see the bullet?,0.12,0.016,JPG\,measuringcup01,dice05a,greenolive,lipstick02a,feather03a,balloon01b,lighter01,bullet,stapler04b,plate01b,microscope,brick,thermometer02b,screw02,blankImage,blankImage,blankImage,bullet,,,,,,,,,,,,0,87,87,57,,,,,,,,,,,,,,,,,,,,,,,,,,,,,,,,,,,639.0461952000041,640.0598973000306,640.0431744999951,640.6194393000333,640.6194393000333,None,642.352793099999,None,left,0.43681260000448674,642.352793099999,None,642.8133158999844,None,left,0.1362393000163138,642.8133158999844,None,,,,,,,,,,,,,,,,,,,,,,,PPT31,001,2022-07-05_13h30.03.579,ABstudy,2022.1.4,59.95394339292472,
AB,Lag1_T1P_T2P,1,P,P,6,7,5,3,10,elephant,Did you see the elephant?,0.12,0.016,JPG\,clock01a,grape01,plate01b,key01,screwdriver04b,africanelephant,stapler03b,iron01b,toothbrush03b,comb02a,blankImage,blankImage,blankImage,blankImage,blankImage,blankImage,blankImage,africanelephant,,,,,,,,,,,,0,88,88,31,,,,,,,,,,,,,,,,,,,,,,,,,,,,,,,,,,,642.9839544999995,643.9970151000307,643.9635988000082,644.5608917000354,644.5608917000354,None,645.7715598000214,None,left,0.610367999994196,645.7715598000214,None,646.3993987999856,None,right,0.11850300000514835,646.3993987999856,None,,,,,,,,,,,,,,,,,,,,,,,PPT31,001,2022-07-05_13h30.03.579,ABstudy,2022.1.4,59.95394339292472,
AB,Lag5_T1P_T2P,5,P,P,7,12,6,5,17,tie,Did you see the tie?,0.12,0.016,JPG\,iron01b,orange,birthdaycandle,potato02b,cauliflower01,pencil01,tie02,candle08b,celery,tableknife02,pen04b,stapler06,ring01,rice,lemon02,tomato01,blankImage,tie02,,,,,,,,,,,,0,89,89,161,,,,,,,,,,,,,,,,,,,,,,,,,,,,,,,,,,,646.5527551000123,647.567027800018,647.5504368999973,648.1304374000174,648.1304374000174,None,650.0605949999881,None,left,0.593803099996876,650.0605949999881,None,650.6871245999937,None,left,0.9753168000024743,650.6871245999937,None,,,,,,,,,,,,,,,,,,,,,,,PPT31,001,2022-07-05_13h30.03.579,ABstudy,2022.1.4,59.95394339292472,
AB,Lag1_T1A_T2P,1,A,P,8,9,7,4,13,nose,Did you see the nose?,0.12,0.016,JPG\,pizza,strawberry,potato02b,speaker04,battery02b,iron01b,dice05a,cellphone,stapler06,banana01,medal02b,baseball01a,toaster01,blankImage,blankImage,blankImage,blankImage,cow,,,,,,,,,,,,0,90,90,231,,,,,,,,,,,,,,,,,,,,,,,,,,,,,,,,,,,651.6891015000292,652.6890361999976,652.6725839999854,653.2716641000006,653.2716641000006,None,654.8668293000082,None,right,0.938921399996616,654.8668293000082,None,655.8263269999879,None,right,0.347325999988243,655.8263269999879,None,,,,,,,,,,,,,,,,,,,,,,,PPT31,001,2022-07-05_13h30.03.579,ABstudy,2022.1.4,59.95394339292472,
AB,Lag1_T1A_T2A,1,A,A,8,9,7,3,12,punching bag,Did you see the punching bag?,0.12,0.016,JPG\,key01,apple07,ring01,leaf02a,hammer01,tableknife02,violin,sponge01,baseball01a,thermometer02b,celery,calculator01,blankImage,blankImage,blankImage,blankImage,blankImage,bathtub,,,,,,,,,,,,0,91,91,291,,,,,,,,,,,,,,,,,,,,,,,,,,,,,,,,,,,656.2006074999808,657.209689899988,657.1930813000072,657.7664031999884,657.7664031999884,None,659.2536502000294,None,right,0.8077780000166968,659.2536502000294,None,660.0796112000244,None,right,2.213997099956032,660.0796112000244,None,,,,,,,,,,,,,,,,,,,,,,,PPT31,001,2022-07-05_13h30.03.579,ABstudy,2022.1.4,59.95394339292472,
AB,Lag5_T1P_T2P,5,P,P,7,12,6,3,15,marble,Did you see the marble?,0.12,0.016,JPG\,cigarette,ashtray01,envelope03a,sandal,chain01,cucumber,marble,tomato01,dandelion,candle01,lemon02,stapler03b,potato02b,cymbal,clock01a,blankImage,blankImage,marble,,,,,,,,,,,,0,92,92,146,,,,,,,,,,,,,,,,,,,,,,,,,,,,,,,,,,,662.3173351000296,663.3326506000012,663.2994259999832,663.8718132000067,663.8718132000067,None,665.7573721000226,None,right,1.2160780999693088,665.7573721000226,None,667.0029233000241,None,right,0.40351819997886196,667.0029233000241,None,,,,,,,,,,,,,,,,,,,,,,,PPT31,001,2022-07-05_13h30.03.579,ABstudy,2022.1.4,59.95394339292472,
AB,Lag5_T1P_T2P,5,P,P,5,10,4,4,14,Christmas lights,Did you see the Christmas lights?,0.12,0.016,JPG\,binoculars01b,cymbal,pizza,candy,christmaslights,sponge01,grape01,thermometer02b,speaker04,stapler03a,lipstick02a,strawberry,candle01,tambourine02,blankImage,blankImage,blankImage,christmaslights,,,,,,,,,,,,0,93,93,168,,,,,,,,,,,,,,,,,,,,,,,,,,,,,,,,,,,667.4403299000114,668.4544550999999,668.4210768000339,669.0217172999983,669.0217172999983,None,670.7513060999918,None,left,0.5199922000174411,670.7513060999918,None,671.2905851000105,None,right,0.3635558999958448,671.2905851000105,None,,,,,,,,,,,,,,,,,,,,,,,PPT31,001,2022-07-05_13h30.03.579,ABstudy,2022.1.4,59.95394339292472,
AB,Lag1_T1P_T2P,1,P,P,6,7,5,3,10,handcuffs,Did you see the handcuffs?,0.12,0.016,JPG\,sewingmachine01a,scarf,carrot01,book01b,eraser,handcuffs,stapler05,lipstick02a,printer02,garlic01a,blankImage,blankImage,blankImage,blankImage,blankImage,blankImage,blankImage,handcuffs,,,,,,,,,,,,0,94,94,2,,,,,,,,,,,,,,,,,,,,,,,,,,,,,,,,,,,671.6765974999871,672.6920402999967,672.6586522000143,673.2453455000068,673.2453455000068,None,674.455099600018,None,left,1.3834826999809593,674.455099600018,None,675.8618360999972,None,right,0.2236690999707207,675.8618360999972,None,,,,,,,,,,,,,,,,,,,,,,,PPT31,001,2022-07-05_13h30.03.579,ABstudy,2022.1.4,59.95394339292472,
AB,Lag5_T1P_T2P,5,P,P,6,11,5,4,15,saxophone,Did you see the saxophone?,0.12,0.016,JPG\,pizza,strawberry,potato02b,speaker04,battery02b,saxophone,dice05a,cellphone,globe,banana01,stapler03b,baseball01a,toaster01,broom01,ring01,blankImage,blankImage,saxophone,,,,,,,,,,,,0,95,95,117,,,,,,,,,,,,,,,,,,,,,,,,,,,,,,,,,,,676.1151207000366,677.129832000006,677.0963835000293,677.7151701999828,677.7151701999828,None,679.5335934000323,None,left,0.40062699996633455,679.5335934000323,None,679.9511902999948,None,left,0.19885139999678358,679.9511902999948,None,,,,,,,,,,,,,,,,,,,,,,,PPT31,001,2022-07-05_13h30.03.579,ABstudy,2022.1.4,59.95394339292472,
AB,Lag1_T1P_T2P,1,P,P,5,6,4,3,9,Escalator,Did you see the Escalator?,0.12,0.016,JPG\,celery,pencil01,fan,foosballtable,escalator,stapler05,potato02b,fork03c,button01,blankImage,blankImage,blankImage,blankImage,blankImage,blankImage,blankImage,blankImage,escalator,,,,,,,,,,,,0,96,96,82,,,,,,,,,,,,,,,,,,,,,,,,,,,,,,,,,,,680.1882661000127,681.200652700034,681.1840236000135,681.7774225000176,681.7774225000176,None,682.9218919000123,None,left,0.5960037999902852,682.9218919000123,None,683.5361434000079,None,right,0.19769760000053793,683.5361434000079,None,,,,,,,,,,,,,,,,,,,,,,,PPT31,001,2022-07-05_13h30.03.579,ABstudy,2022.1.4,59.95394339292472,
AB,Lag1_T1P_T2P,1,P,P,8,9,7,3,12,bridge,Did you see the bridge?,0.12,0.016,JPG\,speaker04,sewingmachine01a,eraser,violin,globe,belt02a,sunglasses04,bridge,stapler01,greenolive,alligator,pear01,blankImage,blankImage,blankImage,blankImage,blankImage,bridge,,,,,,,,,,,,0,97,97,78,,,,,,,,,,,,,,,,,,,,,,,,,,,,,,,,,,,683.7553047999972,684.7707184000174,684.7372984000249,685.3270082999952,685.3270082999952,None,686.8162204999826,None,left,0.5093653000076301,686.8162204999826,None,687.3570379000157,None,right,0.20945740002207458,687.3570379000157,None,,,,,,,,,,,,,,,,,,,,,,,PPT31,001,2022-07-05_13h30.03.579,ABstudy,2022.1.4,59.95394339292472,
AB,Lag1_T1P_T2P,1,P,P,6,7,5,3,10,cupcake,Did you see the cupcake?,0.12,0.016,JPG\,printer02,leaf02a,cauliflower01,sock01a,brownsugar,cupcake,stapler01,orange,belt02a,shirt02,blankImage,blankImage,blankImage,blankImage,blankImage,blankImage,blankImage,cupcake,,,,,,,,,,,,0,98,98,38,,,,,,,,,,,,,,,,,,,,,,,,,,,,,,,,,,,687.596672500018,688.6080729999812,688.5915125000174,689.1678365999833,689.1678365999833,None,690.3886337000295,None,left,0.6738160999957472,690.3886337000295,None,691.0939297000295,None,left,0.6325006000115536,691.0939297000295,None,,,,,,,,,,,,,,,,,,,,,,,PPT31,001,2022-07-05_13h30.03.579,ABstudy,2022.1.4,59.95394339292472,
AB,Lag1_T1P_T2A,1,P,A,6,7,5,4,11,Road,Did you see the Road?,0.12,0.016,JPG\,pizza,printer02,medal02b,spoon01,grape01,road02,belt02a,watermelon01,celery,battery02b,screw02,blankImage,blankImage,blankImage,blankImage,blankImage,blankImage,road02,,,,,,,,,,,,0,99,99,174,,,,,,,,,,,,,,,,,,,,,,,,,,,,,,,,,,,691.79080170003,692.7956561000319,692.7791634000023,693.3769781999872,693.3769781999872,None,694.6374526,None,left,0.6163734999718145,694.6374526,None,695.2815905000316,None,right,0.27627119998214766,695.2815905000316,None,,,,,,,,,,,,,,,,,,,,,,,PPT31,001,2022-07-05_13h30.03.579,ABstudy,2022.1.4,59.95394339292472,
AB,Lag1_T1P_T2A,1,P,A,7,8,6,4,12,bird,Did you see the bird?,0.12,0.016,JPG\,speaker04,sewingmachine01a,eraser,violin,globe,belt02a,tern,cymbal,cd,greenolive,alligator,pear01,blankImage,blankImage,blankImage,blankImage,blankImage,tern,,,,,,,,,,,,0,100,100,177,,,,,,,,,,,,,,,,,,,,,,,,,,,,,,,,,,,695.5848229000112,696.5994008000125,696.5659139000345,697.1554665000294,697.1554665000294,None,698.6344722000067,None,left,0.5554327000281774,698.6344722000067,None,699.2184802999836,None,right,0.21948720002546906,699.2184802999836,None,,,,,,,,,,,,,,,,,,,,,,,PPT31,001,2022-07-05_13h30.03.579,ABstudy,2022.1.4,59.95394339292472,
AB,Lag5_T1P_T2P,5,P,P,8,13,7,3,16,parachute,Did you see the parachute?,0.12,0.016,JPG\,brick,plate01b,pen04b,toaster01,screwdriver04b,candle01,envelope03a,parachute,pig,ring01,orange,clock01a,stapler03b,calculator01,mushroom01,chain01,blankImage,parachute,,,,,,,,,,,,0,101,101,114,,,,,,,,,,,,,,,,,,,,,,,,,,,,,,,,,,,699.5216186000034,700.5364600000321,700.5197625000146,701.1092108000303,701.1092108000303,None,703.0049300999963,None,right,1.3215073000174016,703.0049300999963,None,704.3570875999867,None,left,0.5362917999736965,704.3570875999867,None,,,,,,,,,,,,,,,,,,,,,,,PPT31,001,2022-07-05_13h30.03.579,ABstudy,2022.1.4,59.95394339292472,
AB,Lag5_T1P_T2P,5,P,P,5,10,4,5,15,hockey puck,Did you see the hockey puck?,0.12,0.016,JPG\,chain01,pen04b,birthdaycandle,watermelon01,hockeypuck,scissors01,measuringcup01,candle01,hammer01,stapler06,ashtray01,feather03a,sewingmachine01a,thermometer02b,alligator,blankImage,blankImage,hockeypuck,,,,,,,,,,,,0,102,102,110,,,,,,,,,,,,,,,,,,,,,,,,,,,,,,,,,,,704.9310014999937,705.9420052000205,705.9252342000254,706.4905625000247,706.4905625000247,None,708.2459012999898,None,right,1.952865600003861,708.2459012999898,None,710.2296285000048,None,left,0.2879554000101052,710.2296285000048,None,,,,,,,,,,,,,,,,,,,,,,,PPT31,001,2022-07-05_13h30.03.579,ABstudy,2022.1.4,59.95394339292472,
AB,Lag5_T1P_T2A,5,P,A,5,10,4,5,15,Shield,Did you see the Shield?,0.12,0.016,JPG\,cigarette,fork03c,greenolive,broccoli01a,shield02,tennisball01b,balloon01b,leaf02a,pig,fan,clock01a,strawberry,envelope03a,birthdaycandle,teabag,blankImage,blankImage,shield02,,,,,,,,,,,,0,103,103,223,,,,,,,,,,,,,,,,,,,,,,,,,,,,,,,,,,,710.5523204000201,711.564056000032,711.5473989000311,712.1286872000201,712.1286872000201,None,713.966221700015,None,right,1.1273848000564612,713.966221700015,None,715.1175387999974,None,right,0.3360028999741189,715.1175387999974,None,,,,,,,,,,,,,,,,,,,,,,,PPT31,001,2022-07-05_13h30.03.579,ABstudy,2022.1.4,59.95394339292472,
AB,Lag1_T1A_T2P,1,A,P,5,6,4,3,9,microphone,Did you see the microphone?,0.12,0.016,JPG\,hammer01,sponge01,toaster01,cherry01,feather03a,stapler06,measuringcup01,pencil01,tennisball01b,blankImage,blankImage,blankImage,blankImage,blankImage,blankImage,blankImage,blankImage,cactus,,,,,,,,,,,,0,104,104,230,,,,,,,,,,,,,,,,,,,,,,,,,,,,,,,,,,,715.5213496999932,716.5367005000007,716.5209953000303,717.113373900007,717.113373900007,None,718.1747056000168,None,right,0.9826537999906577,718.1747056000168,None,719.1911556000123,None,left,0.5982146000023931,719.1911556000123,None,,,,,,,,,,,,,,,,,,,,,,,PPT31,001,2022-07-05_13h30.03.579,ABstudy,2022.1.4,59.95394339292472,
AB,Lag1_T1A_T2A,1,A,A,8,9,7,3,12,popcorn,Did you see the popcorn?,0.12,0.016,JPG\,brownsugar,candle01,match,printer02,broom01,balloon01b,belt02a,potato02b,computerkeyboard02,feather03a,rice,mushroom01,blankImage,blankImage,blankImage,blankImage,blankImage,banjo,,,,,,,,,,,,0,105,105,290,,,,,,,,,,,,,,,,,,,,,,,,,,,,,,,,,,,719.8176111000357,720.8232726000133,720.806620599993,721.307784500008,721.307784500008,None,722.8947949000285,None,right,0.7913965999614447,722.8947949000285,None,723.70942129998,None,right,0.4481291000265628,723.70942129998,None,,,,,,,,,,,,,,,,,,,,,,,PPT31,001,2022-07-05_13h30.03.579,ABstudy,2022.1.4,59.95394339292472,
AB,Lag5_T1A_T2P,5,A,P,5,10,4,3,13,License Plate,Did you see the License Plate?,0.12,0.016,JPG\,tomato01,pen04b,shirt02,carrot01,lamp04a,key01,pizza,avocado01,sewingmachine01a,stapler06,iron01b,book01b,chain01,blankImage,blankImage,blankImage,blankImage,porcupine,,,,,,,,,,,,0,106,106,270,,,,,,,,,,,,,,,,,,,,,,,,,,,,,,,,,,,724.2412839999888,725.2445128000109,725.227762399998,725.8234732000274,725.8234732000274,None,727.3248666999862,None,right,1.0016549000283703,727.3248666999862,None,728.3477826000308,None,left,0.5938914000289515,728.3477826000308,None,,,,,,,,,,,,,,,,,,,,,,,PPT31,001,2022-07-05_13h30.03.579,ABstudy,2022.1.4,59.95394339292472,
AB,Lag5_T1A_T2P,5,A,P,7,12,6,5,17,funnel,Did you see the funnel?,0.12,0.016,JPG\,iron01b,orange,birthdaycandle,potato02b,cauliflower01,pencil01,key01,candle08b,celery,tableknife02,pen04b,stapler04b,ring01,rice,lemon02,tomato01,blankImage,englishcucumber,,,,,,,,,,,,0,107,107,259,,,,,,,,,,,,,,,,,,,,,,,,,,,,,,,,,,,728.9665249999962,729.9663622999797,729.9506824000273,730.5417417000281,730.5417417000281,None,732.5507588000037,None,right,0.7512989999959245,732.5507588000037,None,733.319004799996,None,right,0.7587513999897055,733.319004799996,None,,,,,,,,,,,,,,,,,,,,,,,PPT31,001,2022-07-05_13h30.03.579,ABstudy,2022.1.4,59.95394339292472,
AB,Lag5_T1A_T2P,5,A,P,8,13,7,5,18,fish,Did you see the fish?,0.12,0.016,JPG\,scissors01,grape01,mushroom01,toiletpaper01a,greenolive,pizza,cigarette,ashtray01,carrot01,pineapple01a,foosballtable,lipstick02a,stapler04b,tambourine02,potato02b,violin,blankImage,chimney,,,,,,,,,,,,0,108,108,283,,,,,,,,,,,,,,,,,,,,,,,,,,,,,,,,,,,734.1053439999814,735.1208043000079,735.0873886999907,735.7048544000136,735.7048544000136,None,737.628500699997,None,right,1.4576822000090033,737.628500699997,None,739.1088223999832,None,right,0.6803871999727562,739.1088223999832,None,,,,,,,,,,,,,,,,,,,,,,,PPT31,001,2022-07-05_13h30.03.579,ABstudy,2022.1.4,59.95394339292472,
AB,Lag1_T1P_T2P,1,P,P,7,8,6,5,13,arrow,Did you see the arrow?,0.12,0.016,JPG\,pencil01,broccoli01a,button01,sponge01,watermelon01,lipstick02a,arrow02,stapler04b,lighter01,sock01a,spoon01,blueberry01,belt02a,blankImage,blankImage,blankImage,blankImage,arrow02,,,,,,,,,,,,0,109,109,76,,,,,,,,,,,,,,,,,,,,,,,,,,,,,,,,,,,739.8127708000247,740.826650700008,740.7932398000266,741.3656549000298,741.3656549000298,None,743.0085209999816,None,left,0.34879990003537387,743.0085209999816,None,743.3789850000176,None,left,0.1703115000273101,743.3789850000176,None,,,,,,,,,,,,,,,,,,,,,,,PPT31,001,2022-07-05_13h30.03.579,ABstudy,2022.1.4,59.95394339292472,
AB,Lag1_T1P_T2A,1,P,A,7,8,6,3,11,Seagull,Did you see the Seagull?,0.12,0.016,JPG\,toiletpaper01a,mushroom01,medal02b,sandal,rice,cd,seagull,pizza,candle08b,garlic01a,toaster01,blankImage,blankImage,blankImage,blankImage,blankImage,blankImage,seagull,,,,,,,,,,,,0,110,110,176,,,,,,,,,,,,,,,,,,,,,,,,,,,,,,,,,,,743.5819231999922,744.5968132999842,744.5635522999801,745.2075776000274,745.2075776000274,None,746.5054741000058,None,left,0.7798507999978028,746.5054741000058,None,747.316324400017,None,right,0.370072900026571,747.316324400017,None,,,,,,,,,,,,,,,,,,,,,,,PPT31,001,2022-07-05_13h30.03.579,ABstudy,2022.1.4,59.95394339292472,
AB,Lag5_T1P_T2A,5,P,A,7,12,6,3,15,helmet,Did you see the helmet?,0.12,0.016,JPG\,fork03c,belt02a,grape01,computerkeyboard02,lemon02,printer02,skihelmet01,toiletpaper01a,toaster01,lipstick02a,book01b,blueberry01,spoon01,apple07,avocado01,blankImage,blankImage,skihelmet01,,,,,,,,,,,,0,111,111,225,,,,,,,,,,,,,,,,,,,,,,,,,,,,,,,,,,,747.7190010999911,748.7343935000245,748.7010061999899,749.2564075000118,749.2564075000118,None,751.1682248000288,None,right,1.9251206999761052,751.1682248000288,None,753.122023599979,None,right,0.38715189998038113,753.122023599979,None,,,,,,,,,,,,,,,,,,,,,,,PPT31,001,2022-07-05_13h30.03.579,ABstudy,2022.1.4,59.95394339292472,
AB,Lag1_T1P_T2P,1,P,P,8,9,7,4,13,kite,Did you see the kite?,0.12,0.016,JPG\,scissors01,balloon01b,eraser,feather03a,banana01,candle01,measuringcup01,kite,stapler04b,strawberry,pear01,carrot01,globe,blankImage,blankImage,blankImage,blankImage,kite,,,,,,,,,,,,0,112,112,17,,,,,,,,,,,,,,,,,,,,,,,,,,,,,,,,,,,753.5413270000136,754.5568275999976,754.5234543000115,755.0924312000279,755.0924312000279,None,756.7078287000186,None,right,1.0979693999979645,756.7078287000186,None,757.8271132999798,None,right,0.5225192999932915,757.8271132999798,None,,,,,,,,,,,,,,,,,,,,,,,PPT31,001,2022-07-05_13h30.03.579,ABstudy,2022.1.4,59.95394339292472,
AB,Lag5_T1A_T2P,5,A,P,7,12,6,4,16,hand,Did you see the hand?,0.12,0.016,JPG\,celery,tennisball01b,calculator01,pear01,screw02,orange,button01,cellphone,onion,apple07,iron01b,stapler05,banana01,paintbrush01,dandelion,toothbrush03b,blankImage,bull,,,,,,,,,,,,0,113,113,281,,,,,,,,,,,,,,,,,,,,,,,,,,,,,,,,,,,758.3808047000202,759.3952623000368,759.361797199992,759.9382197000086,759.9382197000086,None,761.9923780999961,None,right,1.1970759000396356,761.9923780999961,None,763.2156874000211,None,left,0.1738795000128448,763.2156874000211,None,,,,,,,,,,,,,,,,,,,,,,,PPT31,001,2022-07-05_13h30.03.579,ABstudy,2022.1.4,59.95394339292472,
AB,Lag1_T1A_T2P,1,A,P,8,9,7,5,14,clock,Did you see the clock?,0.12,0.016,JPG\,speaker04,sewingmachine01a,eraser,violin,globe,belt02a,sunglasses04,cymbal,stapler01,greenolive,alligator,pear01,watch02a,screwdriver04b,blankImage,blankImage,blankImage,peacock,,,,,,,,,,,,0,114,114,240,,,,,,,,,,,,,,,,,,,,,,,,,,,,,,,,,,,763.4197283000103,764.4337040000246,764.4169393000193,764.9943961999961,764.9943961999961,None,766.6807716999901,None,right,0.9094047000398859,766.6807716999901,None,767.6203373000026,None,right,0.2329156000050716,767.6203373000026,None,,,,,,,,,,,,,,,,,,,,,,,PPT31,001,2022-07-05_13h30.03.579,ABstudy,2022.1.4,59.95394339292472,
AB,Lag5_T1A_T2A,5,A,A,7,12,6,3,15,Christmas lights,Did you see the Christmas lights?,0.12,0.016,JPG\,toiletpaper01a,mushroom01,medal02b,sandal,rice,cd,feather03a,pizza,candle08b,garlic01a,toaster01,belt02a,cigarette,violin,lemon02,blankImage,blankImage,rockbass,,,,,,,,,,,,0,115,115,299,,,,,,,,,,,,,,,,,,,,,,,,,,,,,,,,,,,767.8792033999925,768.888128200022,768.8714858000167,769.5022827000357,769.5022827000357,None,771.3705247000325,None,right,0.6744790999800898,771.3705247000325,None,772.0760377999977,None,right,0.24982859997544438,772.0760377999977,None,,,,,,,,,,,,,,,,,,,,,,,PPT31,001,2022-07-05_13h30.03.579,ABstudy,2022.1.4,59.95394339292472,
AB,Lag5_T1A_T2A,5,A,A,6,11,5,5,16,shrimp,Did you see the shrimp?,0.12,0.016,JPG\,speaker04,sewingmachine01a,eraser,violin,globe,belt02a,sunglasses04,cymbal,cd,greenolive,alligator,pear01,watch02a,screwdriver04b,banana01,cigarette,blankImage,rollerblade,,,,,,,,,,,,0,116,116,300,,,,,,,,,,,,,,,,,,,,,,,,,,,,,,,,,,,772.3601341000176,773.375593499979,773.3421741999919,773.9253922000062,773.9253922000062,None,775.8750471000094,None,right,0.6990973000065424,775.8750471000094,None,776.5954296999844,None,right,0.3067119999905117,776.5954296999844,None,,,,,,,,,,,,,,,,,,,,,,,PPT31,001,2022-07-05_13h30.03.579,ABstudy,2022.1.4,59.95394339292472,
AB,Lag5_T1P_T2P,5,P,P,8,13,7,4,17,trumpet,Did you see the trumpet?,0.12,0.016,JPG\,toaster01,scarf,toiletpaper01a,calculator01,violin,sewingmachine01a,fan,trumpet,strawberry,balloon01b,brownsugar,eraser,stapler01,rice,ring01,shirt02,blankImage,trumpet,,,,,,,,,,,,0,117,117,145,,,,,,,,,,,,,,,,,,,,,,,,,,,,,,,,,,,776.9325552000082,777.9468004999799,777.9134566999855,778.497919699992,778.497919699992,None,780.4971312999842,None,left,0.5817070000339299,780.4971312999842,None,781.1001160999876,None,left,0.2416957999812439,781.1001160999876,None,,,,,,,,,,,,,,,,,,,,,,,PPT31,001,2022-07-05_13h30.03.579,ABstudy,2022.1.4,59.95394339292472,
AB,Lag1_T1P_T2A,1,P,A,5,6,4,4,10,flower,Did you see the flower?,0.12,0.016,JPG\,broom01,globe,cellphone,tableknife02,daffodil,scissors01,ring01,alligator,rice,toaster01,blankImage,blankImage,blankImage,blankImage,blankImage,blankImage,blankImage,daffodil,,,,,,,,,,,,0,118,118,184,,,,,,,,,,,,,,,,,,,,,,,,,,,,,,,,,,,781.3707888000063,782.3848619000055,782.3681826000102,782.932947400026,782.932947400026,None,784.1675459999824,None,right,0.9498376999981701,784.1675459999824,None,785.1376755000092,None,right,0.6363861000281759,785.1376755000092,None,,,,,,,,,,,,,,,,,,,,,,,PPT31,001,2022-07-05_13h30.03.579,ABstudy,2022.1.4,59.95394339292472,
AB,Lag1_T1P_T2A,1,P,A,8,9,7,5,14,Sausage,Did you see the Sausage?,0.12,0.016,JPG\,pencil01,broccoli01a,button01,sponge01,watermelon01,lipstick02a,comb02a,sausage,lighter01,sock01a,spoon01,blueberry01,belt02a,onion,blankImage,blankImage,blankImage,sausage,,,,,,,,,,,,0,119,119,175,,,,,,,,,,,,,,,,,,,,,,,,,,,,,,,,,,,785.8573931999854,786.8562040000106,786.8562040000106,787.4408348000143,787.4408348000143,None,789.0789464000263,None,left,0.5507121999980882,789.0789464000263,None,789.6588165999856,None,right,1.4430151999695227,789.6588165999856,None,,,,,,,,,,,,,,,,,,,,,,,PPT31,001,2022-07-05_13h30.03.579,ABstudy,2022.1.4,59.95394339292472,
AB,Lag1_T1A_T2P,1,A,P,8,9,7,5,14,calendar,Did you see the calendar?,0.12,0.016,JPG\,foosballtable,candy,envelope03a,microscope,pencil01,leaf02a,scissors01,watermelon01,stapler04b,dandelion,pineapple01a,hammer01,celery,thermometer02b,blankImage,blankImage,blankImage,trampoline,,,,,,,,,,,,0,120,120,245,,,,,,,,,,,,,,,,,,,,,,,,,,,,,,,,,,,791.1298700000043,792.1444589000312,792.1278857000289,792.6283949000062,792.6283949000062,None,794.4354518000036,None,left,1.161962800018955,794.4354518000036,None,795.6143808999914,None,left,1.1589803000097163,795.6143808999914,None,,,,,,,,,,,,,,,,,,,,,,,PPT31,001,2022-07-05_13h30.03.579,ABstudy,2022.1.4,59.95394339292472,
AB,Lag1_T1P_T2P,1,P,P,6,7,5,5,12,snowman,Did you see the snowman?,0.12,0.016,JPG\,comb02a,watch02a,scissors01,dice05a,tableknife02,snowman,stapler03a,printer02,dandelion,spoon01,ashtray01,battery02b,blankImage,blankImage,blankImage,blankImage,blankImage,snowman,,,,,,,,,,,,0,121,121,4,,,,,,,,,,,,,,,,,,,,,,,,,,,,,,,,,,,796.8012053000275,797.8166592000052,797.7832213999936,798.3625707000028,798.3625707000028,None,799.84518080001,None,left,0.5044214999652468,799.84518080001,None,800.3695411999943,None,left,0.763887099979911,800.3695411999943,None,,,,,,,,,,,,,,,,,,,,,,,PPT31,001,2022-07-05_13h30.03.579,ABstudy,2022.1.4,59.95394339292472,
AB,Lag1_T1P_T2P,1,P,P,8,9,7,4,13,bowling ball,Did you see the bowling ball?,0.12,0.016,JPG\,dandelion,pineapple01a,broom01,pen04b,sock01a,sandal,foosballtable,bowlingball,stapler01,toothbrush03b,celery,candle08b,tennisball01b,blankImage,blankImage,blankImage,blankImage,bowlingball,,,,,,,,,,,,0,122,122,7,,,,,,,,,,,,,,,,,,,,,,,,,,,,,,,,,,,801.158565699996,802.17111320002,802.154306499986,802.6553723000106,802.6553723000106,None,804.3014259000192,None,left,1.2638501999899745,804.3014259000192,None,805.5913492999971,None,left,0.15811980003491044,805.5913492999971,None,,,,,,,,,,,,,,,,,,,,,,,PPT31,001,2022-07-05_13h30.03.579,ABstudy,2022.1.4,59.95394339292472,
AB,Lag1_T1P_T2P,1,P,P,7,8,6,5,13,school bus,Did you see the school bus?,0.12,0.016,JPG\,aceofdiamond,banana01,scissors01,pig,shirt02,leaf02a,schoolbus,stapler05,fork03c,tableknife02,balloon01b,match,toothbrush03b,blankImage,blankImage,blankImage,blankImage,schoolbus,,,,,,,,,,,,0,123,123,24,,,,,,,,,,,,,,,,,,,,,,,,,,,,,,,,,,,805.7794575000298,806.7925227999804,806.7756980999839,807.3577519999817,807.3577519999817,None,808.9536737999879,None,left,1.0352779000531882,808.9536737999879,None,810.0120436000288,None,left,0.5865478999912739,810.0120436000288,None,,,,,,,,,,,,,,,,,,,,,,,PPT31,001,2022-07-05_13h30.03.579,ABstudy,2022.1.4,59.95394339292472,
AB,Lag5_T1P_T2A,5,P,A,6,11,5,4,15,Spear,Did you see the Spear?,0.12,0.016,JPG\,belt02a,measuringcup01,spoon01,chain01,greenolive,spear02,computerkeyboard02,onion,fan,strawberry,candle01,broom01,binoculars01b,ashtray01,pingpongpaddle01c,blankImage,blankImage,spear02,,,,,,,,,,,,0,124,124,227,,,,,,,,,,,,,,,,,,,,,,,,,,,,,,,,,,,810.6325663999887,811.6470447999891,811.6136923999875,812.1918645999976,812.1918645999976,None,814.0660284000332,None,right,2.4829303000005893,814.0660284000332,None,816.5698520999867,None,left,0.35618490003980696,816.5698520999867,None,,,,,,,,,,,,,,,,,,,,,,,PPT31,001,2022-07-05_13h30.03.579,ABstudy,2022.1.4,59.95394339292472,
AB,Lag1_T1P_T2P,1,P,P,5,6,4,5,11,beaver,Did you see the beaver?,0.12,0.016,JPG\,belt02a,sunglasses04,computerkeyboard02,cherry01,beaver,stapler03a,watch02a,dice05a,blueberry01,spoon01,match,blankImage,blankImage,blankImage,blankImage,blankImage,blankImage,beaver,,,,,,,,,,,,0,125,125,55,,,,,,,,,,,,,,,,,,,,,,,,,,,,,,,,,,,816.9575330999796,817.9703093999997,817.9536427999847,818.5488995999913,818.5488995999913,None,819.885324300034,None,left,0.6805594000034034,819.885324300034,None,820.5891978000291,None,right,0.5196429999778047,820.5891978000291,None,,,,,,,,,,,,,,,,,,,,,,,PPT31,001,2022-07-05_13h30.03.579,ABstudy,2022.1.4,59.95394339292472,
AB,Lag5_T1A_T2P,5,A,P,6,11,5,5,16,baseball bat,Did you see the baseball bat?,0.12,0.016,JPG\,avocado01,aceofdiamond,match,cauliflower01,paintbrush01,clock01a,pig,cd,balloon01b,cellphone,stapler01,pear01,toaster01,sponge01,orange,blueberry01,blankImage,stool01,,,,,,,,,,,,0,126,126,273,,,,,,,,,,,,,,,,,,,,,,,,,,,,,,,,,,,821.142107599997,822.15747440001,822.1242687000195,822.7059117000317,822.7059117000317,None,824.6662195000099,None,left,0.7393916000146419,824.6662195000099,None,825.427800400008,None,right,0.2180130000342615,825.427800400008,None,,,,,,,,,,,,,,,,,,,,,,,PPT31,001,2022-07-05_13h30.03.579,ABstudy,2022.1.4,59.95394339292472,
AB,Lag5_T1P_T2P,5,P,P,7,12,6,3,15,mail box,Did you see the mail box?,0.12,0.016,JPG\,key01,apple07,ring01,leaf02a,hammer01,tableknife02,postalmailbox01,sponge01,baseball01a,thermometer02b,celery,stapler06,grape01,cucumber,tennisball01b,blankImage,blankImage,postalmailbox01,,,,,,,,,,,,0,127,127,113,,,,,,,,,,,,,,,,,,,,,,,,,,,,,,,,,,,825.6835320999962,826.6954980000155,826.6790254000225,827.2492116999929,827.2492116999929,None,829.1080410000286,None,left,1.7447214999701828,829.1080410000286,None,830.8827904000063,None,left,0.5148597999941558,830.8827904000063,None,,,,,,,,,,,,,,,,,,,,,,,PPT31,001,2022-07-05_13h30.03.579,ABstudy,2022.1.4,59.95394339292472,
AB,Lag1_T1A_T2P,1,A,P,6,7,5,5,12,Piano,Did you see the Piano?,0.12,0.016,JPG\,toiletpaper01a,mushroom01,medal02b,sandal,rice,cd,stapler01,pizza,candle08b,garlic01a,toaster01,belt02a,blankImage,blankImage,blankImage,blankImage,blankImage,moose,,,,,,,,,,,,0,128,128,239,,,,,,,,,,,,,,,,,,,,,,,,,,,,,,,,,,,831.4195662999991,832.4345237999805,832.4010585999931,832.9914770000032,832.9914770000032,None,834.467500400031,None,right,2.610051099967677,834.467500400031,None,837.1060893000104,None,right,1.6527997000375763,837.1060893000104,None,,,,,,,,,,,,,,,,,,,,,,,PPT31,001,2022-07-05_13h30.03.579,ABstudy,2022.1.4,59.95394339292472,
AB,Lag1_T1P_T2A,1,P,A,5,6,4,4,10,bird,Did you see the bird?,0.12,0.016,JPG\,toaster01,scarf,toiletpaper01a,calculator01,swallow,sewingmachine01a,fan,teabag,strawberry,balloon01b,blankImage,blankImage,blankImage,blankImage,blankImage,blankImage,blankImage,swallow,,,,,,,,,,,,0,129,129,195,,,,,,,,,,,,,,,,,,,,,,,,,,,,,,,,,,,838.7933805999928,839.8085627999972,839.7753667000216,840.3724871000159,840.3724871000159,None,841.5936291000107,None,left,0.6036751000210643,841.5936291000107,None,842.2274018999888,None,right,1.2817746000364423,842.2274018999888,None,,,,,,,,,,,,,,,,,,,,,,,PPT31,001,2022-07-05_13h30.03.579,ABstudy,2022.1.4,59.95394339292472,
AB,Lag1_T1P_T2P,1,P,P,5,6,4,3,9,hockey stick,Did you see the hockey stick?,0.12,0.016,JPG\,violin,pizza,toothbrush03b,pineapple01a,hockeystick,stapler03b,candy,dandelion,clock04,blankImage,blankImage,blankImage,blankImage,blankImage,blankImage,blankImage,blankImage,hockeystick,,,,,,,,,,,,0,130,130,63,,,,,,,,,,,,,,,,,,,,,,,,,,,,,,,,,,,843.5316923999926,844.5466673999908,844.513082200021,845.0990824000328,845.0990824000328,None,846.2829416000168,None,left,0.7064346999977715,846.2829416000168,None,847.0175114999874,None,right,0.28390000003855675,847.0175114999874,None,,,,,,,,,,,,,,,,,,,,,,,PPT31,001,2022-07-05_13h30.03.579,ABstudy,2022.1.4,59.95394339292472,
AB,Lag5_T1A_T2P,5,A,P,6,11,5,3,14,Kiwi,Did you see the Kiwi?,0.12,0.016,JPG\,paintbrush01,dice05a,watermelon01,broccoli01a,hammer01,leaf02a,match,tennisball01b,lemon02,fan,stapler06,grape01,envelope03a,sponge01,blankImage,blankImage,blankImage,granolabar01,,,,,,,,,,,,0,131,131,261,,,,,,,,,,,,,,,,,,,,,,,,,,,,,,,,,,,847.3415228999802,848.3505452999962,848.3338058000081,848.966186100035,848.966186100035,None,850.6426873999881,None,right,0.7620305000455119,850.6426873999881,None,851.4368992000236,None,right,0.6569779000128619,851.4368992000236,None,,,,,,,,,,,,,,,,,,,,,,,PPT31,001,2022-07-05_13h30.03.579,ABstudy,2022.1.4,59.95394339292472,
AB,Lag5_T1P_T2P,5,P,P,5,10,4,5,15,scorpion,Did you see the scorpion?,0.12,0.016,JPG\,fan,tomato01,candy,screwdriver04b,scorpion,cd,thermometer02b,apple07,button01,stapler01,brownsugar,lighter01,clock01a,envelope03a,clock04,blankImage,blankImage,scorpion,,,,,,,,,,,,0,132,132,97,,,,,,,,,,,,,,,,,,,,,,,,,,,,,,,,,,,852.1270229999791,853.1390295000165,853.1233738000155,853.7276315999916,853.7276315999916,None,855.5361126000062,None,left,0.9488802999840118,855.5361126000062,None,856.5083321999991,None,right,0.21652000001631677,856.5083321999991,None,,,,,,,,,,,,,,,,,,,,,,,PPT31,001,2022-07-05_13h30.03.579,ABstudy,2022.1.4,59.95394339292472,
AB,Lag5_T1P_T2P,5,P,P,8,13,7,5,18,spice rack,Did you see the spice rack?,0.12,0.016,JPG\,lamp04a,broccoli01a,alligator,garlic01a,dandelion,brownsugar,avocado01,spicerack,leaf02a,cellphone,medal02b,cd,stapler05,sunglasses04,strawberry,eraser,blankImage,spicerack,,,,,,,,,,,,0,133,133,140,,,,,,,,,,,,,,,,,,,,,,,,,,,,,,,,,,,856.7454509999952,857.7595296999789,857.742871000024,858.3901883999933,858.3173572000233,None,860.2943062999984,None,right,2.3669711999827996,860.2943062999984,None,862.6815438999911,None,right,0.8438293999643065,862.6815438999911,None,,,,,,,,,,,,,,,,,,,,,,,PPT31,001,2022-07-05_13h30.03.579,ABstudy,2022.1.4,59.95394339292472,
AB,Lag1_T1P_T2P,1,P,P,7,8,6,3,11,trampoline,Did you see the trampoline?,0.12,0.016,JPG\,dice05a,watch02a,pig,lighter01,button01,strawberry,trampoline,stapler03a,plate01b,pen04b,feather03a,blankImage,blankImage,blankImage,blankImage,blankImage,blankImage,trampoline,,,,,,,,,,,,0,134,134,73,,,,,,,,,,,,,,,,,,,,,,,,,,,,,,,,,,,863.554089399986,864.5665257000364,864.5497740000137,865.1618299999973,865.1618299999973,None,866.4384701999952,None,left,0.66304279997712,866.4384701999952,None,867.1192292000051,None,left,0.3902405999833718,867.1192292000051,None,,,,,,,,,,,,,,,,,,,,,,,PPT31,001,2022-07-05_13h30.03.579,ABstudy,2022.1.4,59.95394339292472,
AB,Lag1_T1P_T2A,1,P,A,8,9,7,4,13,boat,Did you see the boat?,0.12,0.016,JPG\,fork03c,dandelion,dice05a,belt02a,onion,watch02a,key01,boat,eraser,medal02b,greenolive,shirt02,candle08b,blankImage,blankImage,blankImage,blankImage,boat,,,,,,,,,,,,0,135,135,199,,,,,,,,,,,,,,,,,,,,,,,,,,,,,,,,,,,867.5382144000032,868.5536095999996,868.5202690000297,869.0919582000352,869.0919582000352,None,870.763434100023,None,right,0.7617879000026733,870.763434100023,None,871.5566769000143,None,right,0.24057559994980693,871.5566769000143,None,,,,,,,,,,,,,,,,,,,,,,,PPT31,001,2022-07-05_13h30.03.579,ABstudy,2022.1.4,59.95394339292472,
AB,Lag1_T1A_T2P,1,A,P,6,7,5,3,10,Jellyfish,Did you see the Jellyfish?,0.12,0.016,JPG\,thermometer02b,avocado01,scissors01,tennisball01b,medal02b,banana01,stapler01,cigarette,potato02b,pineapple01a,blankImage,blankImage,blankImage,blankImage,blankImage,blankImage,blankImage,firehydrant,,,,,,,,,,,,0,136,136,255,,,,,,,,,,,,,,,,,,,,,,,,,,,,,,,,,,,871.832284300006,872.8413362000138,872.8247480000136,873.4031863000127,873.4031863000127,None,874.6540453000343,None,right,1.374779200006742,874.6540453000343,None,876.061380100029,None,left,0.624253999965731,876.061380100029,None,,,,,,,,,,,,,,,,,,,,,,,PPT31,001,2022-07-05_13h30.03.579,ABstudy,2022.1.4,59.95394339292472,
AB,Lag1_T1P_T2A,1,P,A,7,8,6,4,12,Steering wheel,Did you see the Steering wheel?,0.12,0.016,JPG\,alligator,banana01,apple07,tomato01,button01,spoon01,steeringwheel,fork03c,canoftennisballs,potato02b,grape01,leaf02a,blankImage,blankImage,blankImage,blankImage,blankImage,steeringwheel,,,,,,,,,,,,0,137,137,198,,,,,,,,,,,,,,,,,,,,,,,,,,,,,,,,,,,876.7180581000284,877.7303299999912,877.7147620000178,878.2169210999855,878.2169210999855,None,879.7912486999994,None,right,0.9096763000125065,879.7912486999994,None,880.7327096000081,None,right,1.5774396000197157,880.7327096000081,None,,,,,,,,,,,,,,,,,,,,,,,PPT31,001,2022-07-05_13h30.03.579,ABstudy,2022.1.4,59.95394339292472,
