TrialType,CondType,Lag,T1_PA,T2_PA,T1Loc,T2Loc,PreDistractor,PostDistractor,TotalImg,cueWord,T1cue,StimLength,isi,PicFolder,Img1,Img2,Img3,Img4,Img5,Img6,Img7,Img8,Img9,Img10,Img11,Img12,Img13,Img14,Img15,Img16,Img17,T1_Identity,ImageType,T1PA,T2PA,Picture,Image,FullPathName,FilePath,Practice_Trials.thisRepN,Practice_Trials.thisTrialN,Practice_Trials.thisN,Practice_Trials.thisIndex,trials.thisRepN,trials.thisTrialN,trials.thisN,trials.thisIndex,trials_2.thisRepN,trials_2.thisTrialN,trials_2.thisN,trials_2.thisIndex,Practice_Ins.started,Practice_Ins.stopped,End_Prac_Ins.keys,End_Prac_Ins.rt,End_Prac_Ins.started,End_Prac_Ins.stopped,text_2.started,text_2.stopped,Fixation_Cross_2.started,Fixation_Cross_2.stopped,Rapid_Image_Present_2.started,Rapid_Image_Present_2.stopped,key_resp.keys,key_resp.rt,key_resp.started,key_resp.stopped,T1Response_2.started,T1Response_2.stopped,T2Response_2.started,T2Response_2.stopped,key_resp_4.keys,key_resp_4.rt,key_resp_4.started,key_resp_4.stopped,text.started,text.stopped,End_Instructions.keys,End_Instructions.rt,End_Instructions.started,End_Instructions.stopped,text_5.started,text_5.stopped,FC.started,FC.stopped,Rapid_Image_Present.started,Rapid_Image_Present.stopped,T1Response.started,T1Response.stopped,key_resp_2.keys,key_resp_2.rt,key_resp_2.started,key_resp_2.stopped,T2Response.started,T2Response.stopped,key_resp_3.keys,key_resp_3.rt,key_resp_3.started,key_resp_3.stopped,text_6.started,text_6.stopped,Fin_ins.keys,Fin_ins.rt,Fin_ins.started,Fin_ins.stopped,MemTest.started,MemTest.stopped,MemResponse.keys,MemResponse.rt,MemResponse.started,MemResponse.stopped,Display.started,Display.stopped,text_7.started,text_7.stopped,endOfExperiment.started,endOfExperiment.stopped,key_resp_5.keys,key_resp_5.rt,key_resp_5.started,key_resp_5.stopped,participant,session,date,expName,psychopyVersion,frameRate,
,,,,,,,,,,,,,,,,,,,,,,,,,,,,,,,,,,,,,,,,,,,,,,,,,,,,13.826316799968481,None,space,70.79039370000828,13.826316799968481,None,,,,,,,,,,,,,,,,,,,,,,,,,,,,,,,,,,,,,,,,,,,,,,,,,,,,,,,,,,,,,,,,,PPT30,001,2022-07-05_12h23.41.314,ABstudy,2022.1.4,59.93403660637168,
AB_Prac,Lag5_T1P_T2P,5,P,P,5,10,4,5,15,Vulture,Did you see the Vulture?,0.5,0.016,JPG\,shorts01,toast,ramekin01,bib,vulture,cracker02,date,glasses01a,hat03b,stapler01,measuringtape01,nail,pill,drum01,starfish01,blankImage,blankImage,vulture,,,,,,,,0,0,0,3,,,,,,,,,,,,,,,84.71821899997303,85.71725180000067,85.71725180000067,86.33971829997608,86.33971829997608,None,left,20.33496509998804,93.88240729999961,None,93.88240729999961,None,114.24700079998001,None,right,10.913756699999794,114.24700079998001,None,,,,,,,,,,,,,,,,,,,,,,,,,,,,,,,,,,,,,,,,,,,,,,,PPT30,001,2022-07-05_12h23.41.314,ABstudy,2022.1.4,59.93403660637168,
AB_Prac,Lag1_T1P_T2A,1,P,A,5,6,4,5,11,Webcam,Did you see the Webcam?,0.5,0.016,JPG\,pictureframe04,binder03b,straw,adjustablewrench01b,webcam,cane,hairdryer02a,icepack,kitchenscale01a,lifejacket,piggybank,blankImage,blankImage,blankImage,blankImage,blankImage,blankImage,webcam,,,,,,,,0,1,1,6,,,,,,,,,,,,,,,125.19811329996446,126.20794029999524,126.19228219997603,126.77584239997668,126.77584239997668,None,left,5.090141399996355,132.28673529997468,None,132.28673529997468,None,137.40191279997816,None,right,2.5985496999928728,137.40191279997816,None,,,,,,,,,,,,,,,,,,,,,,,,,,,,,,,,,,,,,,,,,,,,,,,PPT30,001,2022-07-05_12h23.41.314,ABstudy,2022.1.4,59.93403660637168,
AB_Prac,Lag1_T1P_T2P,1,P,P,6,7,5,5,12,triangle,Did you see the triangle?,0.5,0.016,JPG\,ginger,mousetrap,plum01,slipper01b,dropper01,triangle,stapler04b,pants,raspberry01,rope03,scale01a,vase01,blankImage,blankImage,blankImage,blankImage,blankImage,triangle,,,,,,,,0,2,2,1,,,,,,,,,,,,,,,140.02769359998638,141.0387390999822,141.02212759997929,141.60515289998148,141.60515289998148,None,left,4.101236500020605,147.60328789998312,None,147.60328789998312,None,151.73341699998127,None,left,1.8110535999876447,151.73341699998127,None,,,,,,,,,,,,,,,,,,,,,,,,,,,,,,,,,,,,,,,,,,,,,,,PPT30,001,2022-07-05_12h23.41.314,ABstudy,2022.1.4,59.93403660637168,
AB_Prac,Lag1_T1P_T2P,1,P,P,8,9,7,5,14,Tennis racket,Did you see the Tennis racket?,0.5,0.016,JPG\,coconut,computermouse06,croissant01,deodorant02a,pillow01a,peanut01,boot02b,tennisracket,stapler03b,crayon,eggplant,marker01a,plant01,radish01,blankImage,blankImage,blankImage,tennisracket,,,,,,,,0,3,3,0,,,,,,,,,,,,,,,153.5772946999641,154.58582449995447,154.5690444999491,155.1861399000045,155.1861399000045,None,left,4.540196300018579,162.27714279998327,None,162.27714279998327,None,166.8480922000017,None,left,3.1293376999674365,166.8480922000017,None,,,,,,,,,,,,,,,,,,,,,,,,,,,,,,,,,,,,,,,,,,,,,,,PPT30,001,2022-07-05_12h23.41.314,ABstudy,2022.1.4,59.93403660637168,
AB_Prac,Lag5_T1P_T2A,5,P,A,6,11,5,5,16,Wheat,Did you see the Wheat?,0.5,0.016,JPG\,bottleopener01,dentalfloss03b,cooler01,icecreamcone01a,paperclip01b,wheat,pencilsharpener02a,plasticbasket01a,toycar04,apricot,hairclip02,rock01a,honeydewmelon,antenna,blackberry,cardboardbox,blankImage,wheat,,,,,,,,0,4,4,7,,,,,,,,,,,,,,,170.01402750000125,171.0188944999827,170.98547569999937,171.56292369996663,171.56292369996663,None,left,3.23616359999869,179.62848699995084,None,179.62848699995084,None,182.8971176999621,None,right,6.8476805000100285,182.8971176999621,None,,,,,,,,,,,,,,,,,,,,,,,,,,,,,,,,,,,,,,,,,,,,,,,PPT30,001,2022-07-05_12h23.41.314,ABstudy,2022.1.4,59.93403660637168,
AB_Prac,Lag1_T1P_T2A,1,P,A,8,9,7,5,14,flower,Did you see the flower?,0.5,0.016,JPG\,razor01,axe01,binder03b,bowl01,kettle01,lettuce,lime,plasticflower01b,mitten04,pencilcase01,plunger02,strawbasket01,toothpick02,wallet02a,blankImage,blankImage,blankImage,plasticflower01b,,,,,,,,0,5,5,5,,,,,,,,,,,,,,,189.78334609995363,190.78860179998446,190.7550888999831,191.33751709997887,191.33751709997887,None,left,1.3777173000271432,198.41506029997254,None,198.41506029997254,None,199.81438749999506,None,right,0.8436224999604747,199.81438749999506,None,,,,,,,,,,,,,,,,,,,,,,,,,,,,,,,,,,,,,,,,,,,,,,,PPT30,001,2022-07-05_12h23.41.314,ABstudy,2022.1.4,59.93403660637168,
AB_Prac,Lag5_T1A_T2P,5,A,P,6,11,5,3,14,dog,Did you see the dog?,0.5,0.016,JPG\,bucket01a,doorlock,cookiecutter,fireextinguisher01,gluestick,highlighter02b,sportbag,spraybottle01,suitcase,thread02,stapler05,walnut01c,icecubetray01a,vikingmask01b,blankImage,blankImage,blankImage,None,,,,,,,,0,6,6,9,,,,,,,,,,,,,,,200.68481759994756,201.69951009994838,201.66587319999235,202.24971429997822,202.24971429997822,None,right,1.4701966000138782,209.31489569996484,None,209.31489569996484,None,210.80878409999423,None,right,1.3920715999556705,210.80878409999423,None,,,,,,,,,,,,,,,,,,,,,,,,,,,,,,,,,,,,,,,,,,,,,,,PPT30,001,2022-07-05_12h23.41.314,ABstudy,2022.1.4,59.93403660637168,
AB_Prac,Lag1_T1A_T2A,1,A,A,8,9,7,3,12,Moose,Did you see the Moose?,0.5,0.016,JPG\,clothespin03b,corkscrew03a,drillbit03a,fusilli03a,needlenosepliers01,perfume01a,pistachio,scrubbingbrush05b,spatula03,toothpastetube,hinge,toydinosaur,blankImage,blankImage,blankImage,blankImage,blankImage,None,,,,,,,,0,7,7,10,,,,,,,,,,,,,,,212.23980519996257,213.24419609998586,213.2277313999948,213.8173303999938,213.8173303999938,None,right,6.592723699985072,219.86382470000535,None,219.86382470000535,None,226.47389169997768,None,right,0.9027306000352837,226.47389169997768,None,,,,,,,,,,,,,,,,,,,,,,,,,,,,,,,,,,,,,,,,,,,,,,,PPT30,001,2022-07-05_12h23.41.314,ABstudy,2022.1.4,59.93403660637168,
AB_Prac,Lag5_T1P_T2A,5,P,A,6,11,5,5,16,bread,Did you see the bread?,0.5,0.016,JPG\,cleaver01,clipboard,dustpan,hikingshoe01,notebook03a,baguette01,playingcard,pliers02b,styrofoamcup,rollingpin01a,swimgoggles,wineglass01,fryingpan02a,safetypin,syringe01,thimble,blankImage,baguette01,,,,,,,,0,8,8,8,,,,,,,,,,,,,,,227.41037559998222,228.42581009998685,228.39241179998498,228.9821744999499,228.9821744999499,None,left,1.936191399989184,237.09617079998134,None,237.09617079998134,None,239.05328039999586,None,right,0.9314755999948829,239.05328039999586,None,,,,,,,,,,,,,,,,,,,,,,,,,,,,,,,,,,,,,,,,,,,,,,,PPT30,001,2022-07-05_12h23.41.314,ABstudy,2022.1.4,59.93403660637168,
AB_Prac,Lag5_T1P_T2P,5,P,P,7,12,6,3,15,vacuum,Did you see the vacuum?,0.5,0.016,JPG\,fork07b,lightbulb01,manshoe,saw02b,shoelace,soap03a,vacuumcleaner01,floortile01,necklace,doll,cabbage,stapler03a,hanger02a,laptop01a,nailpolish03b,blankImage,blankImage,vacuumcleaner01,,,,,,,,0,9,9,2,,,,,,,,,,,,,,,240.01918829994975,241.02165709994733,241.0048590999795,241.58113730000332,241.58113730000332,None,right,5.8706401999806985,249.08218679996207,None,249.08218679996207,None,254.98554279998643,None,left,0.846968800004106,254.98554279998643,None,,,,,,,,,,,,,,,,,,,,,,,,,,,,,,,,,,,,,,,,,,,,,,,PPT30,001,2022-07-05_12h23.41.314,ABstudy,2022.1.4,59.93403660637168,
AB_Prac,Lag5_T1A_T2A,5,A,A,6,11,5,5,16,castle,Did you see the castle?,0.5,0.016,JPG\,tape02a,englishmuffin,flask,ladle02a,monitor,peach01,keychain,squeegee01b,telephone01b,whisk,walkman,syringe02,baguette01,coaster,box01a,coffeepot03a,blankImage,None,,,,,,,,0,10,10,11,,,,,,,,,,,,,,,255.8552904999815,256.8707428999478,256.83738879999146,257.425769399968,257.425769399968,None,right,4.24209370004246,265.59000039997045,None,265.59000039997045,None,269.8509831999545,None,right,1.2209914000122808,269.8509831999545,None,,,,,,,,,,,,,,,,,,,,,,,,,,,,,,,,,,,,,,,,,,,,,,,PPT30,001,2022-07-05_12h23.41.314,ABstudy,2022.1.4,59.93403660637168,
AB_Prac,Lag5_T1P_T2P,5,P,P,5,10,4,5,15,washing machine,Did you see the washing machine?,0.5,0.016,JPG\,waterbottle03,wheel01,flashlight02b,zucchini01,washingmachine,headphones02b,nutcracker01,paintroller01,paperclip03,stapler06,ribbon04,electricrazor,bottleofredwine01,pitabread,pot02a,blankImage,blankImage,washingmachine,,,,,,,,0,11,11,4,,,,,,,,,,,,,,,271.1086861999938,272.1199501999654,272.1045139999478,272.742316799995,272.742316799995,None,left,1.025119400001131,280.2241850999999,None,280.2241850999999,None,281.28089589998126,None,left,0.824731900007464,281.28089589998126,None,,,,,,,,,,,,,,,,,,,,,,,,,,,,,,,,,,,,,,,,,,,,,,,PPT30,001,2022-07-05_12h23.41.314,ABstudy,2022.1.4,59.93403660637168,
,,,,,,,,,,,,,,,,,,,,,,,,,,,,,,,,,,,,,,,,,,,,,,,,,,,,,,,,,,,,,,,,,,,,,,,,,,,,282.1294568000012,None,space,36.39833799999906,282.1294568000012,None,,,,,,,,,,,,,,,,,,,,,,,,,,,,,,,,,,,,,,,,,PPT30,001,2022-07-05_12h23.41.314,ABstudy,2022.1.4,59.93403660637168,
AB,Lag1_T1P_T2P,1,P,P,7,8,6,4,12,trophy,Did you see the trophy?,0.12,0.016,JPG\,cherry01,cymbal,envelope03a,foosballtable,shirt02,cellphone,trophy01,stapler04b,battery02b,apple07,pencil01,screwdriver04b,blankImage,blankImage,blankImage,blankImage,blankImage,trophy01,,,,,,,,,,,,0,0,0,74,,,,,,,,,,,,,,,,,,,,,,,,,,,,,,,,,,,319.1488345999969,320.15153849998023,320.1365006999695,320.8254575000028,320.7617015999858,None,322.2040597999585,None,left,4.228701299987733,322.2040597999585,None,326.4579581999569,None,right,1.8624512000242248,326.4579581999569,None,,,,,,,,,,,,,,,,,,,,,,,PPT30,001,2022-07-05_12h23.41.314,ABstudy,2022.1.4,59.93403660637168,
AB,Lag1_T1P_T2P,1,P,P,8,9,7,4,13,Hula hoop,Did you see the Hula hoop?,0.12,0.016,JPG\,brownsugar,candle01,match,printer02,broom01,balloon01b,belt02a,hulahoop,stapler04b,feather03a,rice,mushroom01,pencil01,blankImage,blankImage,blankImage,blankImage,hulahoop,,,,,,,,,,,,0,1,1,64,,,,,,,,,,,,,,,,,,,,,,,,,,,,,,,,,,,328.35027080000145,329.3596342999954,329.3428711000015,329.8439859999926,329.8439859999926,None,331.5068295999663,None,right,19.39715770003386,331.5068295999663,None,350.9313697000034,None,right,2.9564735000021756,350.9313697000034,None,,,,,,,,,,,,,,,,,,,,,,,PPT30,001,2022-07-05_12h23.41.314,ABstudy,2022.1.4,59.93403660637168,
AB,Lag1_T1A_T2A,1,A,A,8,9,7,3,12,punching bag,Did you see the punching bag?,0.12,0.016,JPG\,key01,apple07,ring01,leaf02a,hammer01,tableknife02,violin,sponge01,baseball01a,thermometer02b,celery,calculator01,blankImage,blankImage,blankImage,blankImage,blankImage,bathtub,,,,,,,,,,,,0,2,2,291,,,,,,,,,,,,,,,,,,,,,,,,,,,,,,,,,,,353.9216196999769,354.93513919995166,354.9183790999814,355.4984278999618,355.4984278999618,None,356.95450719998917,None,right,2.901411700004246,356.95450719998917,None,359.87369199999375,None,right,1.406376699975226,359.87369199999375,None,,,,,,,,,,,,,,,,,,,,,,,PPT30,001,2022-07-05_12h23.41.314,ABstudy,2022.1.4,59.93403660637168,
AB,Lag5_T1P_T2A,5,P,A,7,12,6,3,15,Toy soldier,Did you see the Toy soldier?,0.12,0.016,JPG\,binoculars01b,cymbal,pizza,candy,paintbrush01,sponge01,toysoldier01b,thermometer02b,speaker04,lemon02,lipstick02a,strawberry,candle01,acorn,plate01b,blankImage,blankImage,toysoldier01b,,,,,,,,,,,,0,3,3,203,,,,,,,,,,,,,,,,,,,,,,,,,,,,,,,,,,,361.3129478999763,362.32588560000295,362.3094246999826,362.8835878999671,362.8835878999671,None,364.72380609996617,None,left,3.2364493000204675,364.72380609996617,None,367.98136639996665,None,right,1.4501705000293441,367.98136639996665,None,,,,,,,,,,,,,,,,,,,,,,,PPT30,001,2022-07-05_12h23.41.314,ABstudy,2022.1.4,59.93403660637168,
AB,Lag5_T1P_T2P,5,P,P,8,13,7,4,17,butterfly,Did you see the butterfly?,0.12,0.016,JPG\,speaker04,sewingmachine01a,eraser,violin,globe,belt02a,sunglasses04,butterfly,cd,greenolive,alligator,pear01,stapler01,screwdriver04b,banana01,cigarette,blankImage,butterfly,,,,,,,,,,,,0,4,4,126,,,,,,,,,,,,,,,,,,,,,,,,,,,,,,,,,,,369.4517924999818,370.4671743999934,370.4338589999825,371.01656379998894,371.01656379998894,None,372.943469299993,None,left,10.967975799983833,372.943469299993,None,383.9305842999602,None,left,3.469328499981202,383.9305842999602,None,,,,,,,,,,,,,,,,,,,,,,,PPT30,001,2022-07-05_12h23.41.314,ABstudy,2022.1.4,59.93403660637168,
AB,Lag1_T1A_T2P,1,A,P,5,6,4,3,9,microphone,Did you see the microphone?,0.12,0.016,JPG\,hammer01,sponge01,toaster01,cherry01,feather03a,stapler06,measuringcup01,pencil01,tennisball01b,blankImage,blankImage,blankImage,blankImage,blankImage,blankImage,blankImage,blankImage,cactus,,,,,,,,,,,,0,5,5,230,,,,,,,,,,,,,,,,,,,,,,,,,,,,,,,,,,,387.4199151999783,388.43499799998244,388.4016767999856,388.9739609999815,388.9739609999815,None,390.1527708999929,None,right,1.6387074000085704,390.1527708999929,None,391.8218261000002,None,left,0.4016970000229776,391.8218261000002,None,,,,,,,,,,,,,,,,,,,,,,,PPT30,001,2022-07-05_12h23.41.314,ABstudy,2022.1.4,59.93403660637168,
AB,Lag1_T1P_T2P,1,P,P,7,8,6,3,11,harmonica,Did you see the harmonica?,0.12,0.016,JPG\,cucumber,ring01,lipstick02a,microscope,violin,garlic01a,harmonica,stapler03b,cherry01,sewingmachine01a,belt02a,blankImage,blankImage,blankImage,blankImage,blankImage,blankImage,harmonica,,,,,,,,,,,,0,6,6,43,,,,,,,,,,,,,,,,,,,,,,,,,,,,,,,,,,,392.2578611999634,393.273483099998,393.24014139996143,393.80775509995874,393.80775509995874,None,395.16128439997556,None,right,9.430647999979556,395.16128439997556,None,404.6182539999718,None,right,5.214113800029736,404.6182539999718,None,,,,,,,,,,,,,,,,,,,,,,,PPT30,001,2022-07-05_12h23.41.314,ABstudy,2022.1.4,59.93403660637168,
AB,Lag5_T1P_T2P,5,P,P,6,11,5,4,15,saxophone,Did you see the saxophone?,0.12,0.016,JPG\,pizza,strawberry,potato02b,speaker04,battery02b,saxophone,dice05a,cellphone,globe,banana01,stapler03b,baseball01a,toaster01,broom01,ring01,blankImage,blankImage,saxophone,,,,,,,,,,,,0,7,7,117,,,,,,,,,,,,,,,,,,,,,,,,,,,,,,,,,,,409.86513180000475,410.8747435999685,410.8593847999582,411.4602257999941,411.4602257999941,None,413.2808879999793,None,left,5.727970300009474,413.2808879999793,None,419.0329440999776,None,right,1.351111600000877,419.0329440999776,None,,,,,,,,,,,,,,,,,,,,,,,PPT30,001,2022-07-05_12h23.41.314,ABstudy,2022.1.4,59.93403660637168,
AB,Lag5_T1P_T2P,5,P,P,8,13,7,5,18,hand,Did you see the hand?,0.12,0.016,JPG\,foosballtable,candy,envelope03a,microscope,pencil01,leaf02a,scissors01,hand01b,grape01,dandelion,pineapple01a,hammer01,stapler03a,thermometer02b,ring01,sewingmachine01a,blankImage,hand01b,,,,,,,,,,,,0,8,8,131,,,,,,,,,,,,,,,,,,,,,,,,,,,,,,,,,,,420.4037307999679,421.41806929995073,421.4013272000011,421.9153015000047,421.88840339996386,None,424.10761809995165,None,left,0.8196712000062689,424.10761809995165,None,424.9551584000001,None,left,0.5803813999518752,424.9551584000001,None,,,,,,,,,,,,,,,,,,,,,,,PPT30,001,2022-07-05_12h23.41.314,ABstudy,2022.1.4,59.93403660637168,
AB,Lag5_T1A_T2P,5,A,P,5,10,4,5,15,shower,Did you see the shower?,0.12,0.016,JPG\,sewingmachine01a,thermometer02b,sponge01,eraser,broccoli01a,fork03c,pizza,violin,belt02a,stapler04b,pineapple01a,tennisball01b,dandelion,cauliflower01,lemon02,blankImage,blankImage,redfox,,,,,,,,,,,,0,9,9,271,,,,,,,,,,,,,,,,,,,,,,,,,,,,,,,,,,,425.561354299949,426.5732748999726,426.5565186999738,427.16059099999256,427.16059099999256,None,428.9299683999852,None,right,4.334902499977034,428.9299683999852,None,433.29713389999233,None,right,1.230796099989675,433.29713389999233,None,,,,,,,,,,,,,,,,,,,,,,,PPT30,001,2022-07-05_12h23.41.314,ABstudy,2022.1.4,59.93403660637168,
AB,Lag5_T1P_T2P,5,P,P,5,10,4,5,15,scorpion,Did you see the scorpion?,0.12,0.016,JPG\,fan,tomato01,candy,screwdriver04b,scorpion,cd,thermometer02b,apple07,button01,stapler01,brownsugar,lighter01,clock01a,envelope03a,clock04,blankImage,blankImage,scorpion,,,,,,,,,,,,0,10,10,97,,,,,,,,,,,,,,,,,,,,,,,,,,,,,,,,,,,434.5929191999603,435.59887139999773,435.582253200002,436.1868704999797,436.1868704999797,None,437.93388369999593,None,left,4.562254899996333,437.93388369999593,None,442.5252508999547,None,right,3.5631613999721594,442.5252508999547,None,,,,,,,,,,,,,,,,,,,,,,,PPT30,001,2022-07-05_12h23.41.314,ABstudy,2022.1.4,59.93403660637168,
AB,Lag5_T1A_T2A,5,A,A,5,10,4,4,14,music sheet,Did you see the music sheet?,0.12,0.016,JPG\,celery,pencil01,fan,foosballtable,iron01b,shirt02,potato02b,fork03c,button01,pineapple01a,baseball01a,printer02,cauliflower01,dandelion,blankImage,blankImage,blankImage,licenseplate,,,,,,,,,,,,0,11,11,304,,,,,,,,,,,,,,,,,,,,,,,,,,,,,,,,,,,446.11559669999406,447.1271690999856,447.11046949995216,447.7015177999856,447.7015177999856,None,449.3417047999683,None,right,1.7302660000277683,449.3417047999683,None,451.09789749997435,None,right,1.270944599993527,451.09789749997435,None,,,,,,,,,,,,,,,,,,,,,,,PPT30,001,2022-07-05_12h23.41.314,ABstudy,2022.1.4,59.93403660637168,
AB,Lag1_T1P_T2A,1,P,A,8,9,7,5,14,Sausage,Did you see the Sausage?,0.12,0.016,JPG\,pencil01,broccoli01a,button01,sponge01,watermelon01,lipstick02a,comb02a,sausage,lighter01,sock01a,spoon01,blueberry01,belt02a,onion,blankImage,blankImage,blankImage,sausage,,,,,,,,,,,,0,12,12,175,,,,,,,,,,,,,,,,,,,,,,,,,,,,,,,,,,,452.40617459994974,453.41670790000353,453.4000011999742,453.9741643999587,453.9741643999587,None,455.70609629998216,None,left,1.1737020000000484,455.70609629998216,None,456.9031596999848,None,right,4.24070829997072,456.9031596999848,None,,,,,,,,,,,,,,,,,,,,,,,PPT30,001,2022-07-05_12h23.41.314,ABstudy,2022.1.4,59.93403660637168,
AB,Lag5_T1A_T2P,5,A,P,5,10,4,4,14,mail box,Did you see the mail box?,0.12,0.016,JPG\,button01,celery,birthdaycandle,apple07,avocado01,tennisball01b,dice05a,teabag,clock01a,stapler05,tomato01,scarf,orange,battery02b,blankImage,blankImage,blankImage,jeep,,,,,,,,,,,,0,13,13,263,,,,,,,,,,,,,,,,,,,,,,,,,,,,,,,,,,,461.1764202999766,462.19182629999705,462.15848289994756,462.7476070999983,462.7476070999983,None,464.49165649997303,None,right,2.3081117999972776,464.49165649997303,None,466.8297295999946,None,left,1.561819700000342,466.8297295999946,None,,,,,,,,,,,,,,,,,,,,,,,PPT30,001,2022-07-05_12h23.41.314,ABstudy,2022.1.4,59.93403660637168,
AB,Lag5_T1A_T2P,5,A,P,6,11,5,3,14,saxophone,Did you see the saxophone?,0.12,0.016,JPG\,globe,belt02a,sponge01,violin,fork03c,tomato01,clock01a,microscope,balloon01b,scarf,stapler03b,pen04b,brick,brownsugar,blankImage,blankImage,blankImage,microphone01,,,,,,,,,,,,0,14,14,267,,,,,,,,,,,,,,,,,,,,,,,,,,,,,,,,,,,468.4177013000008,469.43242539995117,469.39902699994855,469.9998866999522,469.9998866999522,None,471.60506889998214,None,right,5.898846999974921,471.60506889998214,None,477.52415119996294,None,left,1.6997926000040025,477.52415119996294,None,,,,,,,,,,,,,,,,,,,,,,,PPT30,001,2022-07-05_12h23.41.314,ABstudy,2022.1.4,59.93403660637168,
AB,Lag5_T1A_T2A,5,A,A,7,12,6,3,15,Christmas lights,Did you see the Christmas lights?,0.12,0.016,JPG\,toiletpaper01a,mushroom01,medal02b,sandal,rice,cd,feather03a,pizza,candle08b,garlic01a,toaster01,belt02a,cigarette,violin,lemon02,blankImage,blankImage,rockbass,,,,,,,,,,,,0,15,15,299,,,,,,,,,,,,,,,,,,,,,,,,,,,,,,,,,,,479.3058708999888,480.3098348999629,480.29290010000113,480.9242381999502,480.9242381999502,None,482.66473069996573,None,right,0.92654080002103,482.66473069996573,None,483.6132920999662,None,right,1.3154551000334322,483.6132920999662,None,,,,,,,,,,,,,,,,,,,,,,,PPT30,001,2022-07-05_12h23.41.314,ABstudy,2022.1.4,59.93403660637168,
AB,Lag1_T1A_T2P,1,A,P,8,9,7,4,13,Fireplace,Did you see the Fireplace?,0.12,0.016,JPG\,scissors01,ashtray01,garlic01a,medal02b,cigarette,candle08b,leaf02a,envelope03a,stapler06,rice,toiletpaper01a,greenolive,cymbal,blankImage,blankImage,blankImage,blankImage,dartboard,,,,,,,,,,,,0,16,16,252,,,,,,,,,,,,,,,,,,,,,,,,,,,,,,,,,,,484.9503945999895,485.96599649998825,485.93246919999365,486.49740900000324,486.49740900000324,None,488.06507749995217,None,right,4.326498099952005,488.06507749995217,None,492.4219230999588,None,left,1.4815697000012733,492.4219230999588,None,,,,,,,,,,,,,,,,,,,,,,,PPT30,001,2022-07-05_12h23.41.314,ABstudy,2022.1.4,59.93403660637168,
AB,Lag5_T1A_T2P,5,A,P,7,12,6,5,17,funnel,Did you see the funnel?,0.12,0.016,JPG\,iron01b,orange,birthdaycandle,potato02b,cauliflower01,pencil01,key01,candle08b,celery,tableknife02,pen04b,stapler04b,ring01,rice,lemon02,tomato01,blankImage,englishcucumber,,,,,,,,,,,,0,17,17,259,,,,,,,,,,,,,,,,,,,,,,,,,,,,,,,,,,,493.9259478999884,494.9411430999753,494.9077016999945,495.5022048999672,495.5022048999672,None,497.47015239996836,None,left,8.01080859999638,497.47015239996836,None,505.50206729996717,None,right,1.8176178999710828,505.50206729996717,None,,,,,,,,,,,,,,,,,,,,,,,PPT30,001,2022-07-05_12h23.41.314,ABstudy,2022.1.4,59.93403660637168,
AB,Lag5_T1P_T2A,5,P,A,5,10,4,4,14,rocket,Did you see the rocket?,0.12,0.016,JPG\,fan,tomato01,candy,screwdriver04b,spacerocket,cd,thermometer02b,apple07,button01,plate01b,brownsugar,lighter01,clock01a,envelope03a,blankImage,blankImage,blankImage,spacerocket,,,,,,,,,,,,0,18,18,226,,,,,,,,,,,,,,,,,,,,,,,,,,,,,,,,,,,507.3407435999834,508.35470249998616,508.33791040000506,508.94942019996233,508.94942019996233,None,510.71119639999233,None,left,0.6005565000232309,510.71119639999233,None,511.3407869999646,None,left,0.34700269997119904,511.3407869999646,None,,,,,,,,,,,,,,,,,,,,,,,PPT30,001,2022-07-05_12h23.41.314,ABstudy,2022.1.4,59.93403660637168,
AB,Lag1_T1A_T2P,1,A,P,8,9,7,5,14,clock,Did you see the clock?,0.12,0.016,JPG\,speaker04,sewingmachine01a,eraser,violin,globe,belt02a,sunglasses04,cymbal,stapler01,greenolive,alligator,pear01,watch02a,screwdriver04b,blankImage,blankImage,blankImage,peacock,,,,,,,,,,,,0,19,19,240,,,,,,,,,,,,,,,,,,,,,,,,,,,,,,,,,,,511.71002050000243,512.7254496999667,512.6920759999775,513.2704392999876,513.2704392999876,None,514.9816966999788,None,right,1.409226999967359,514.9816966999788,None,516.4124974999577,None,right,1.596422699978575,516.4124974999577,None,,,,,,,,,,,,,,,,,,,,,,,PPT30,001,2022-07-05_12h23.41.314,ABstudy,2022.1.4,59.93403660637168,
AB,Lag1_T1P_T2P,1,P,P,5,6,4,3,9,hockey stick,Did you see the hockey stick?,0.12,0.016,JPG\,violin,pizza,toothbrush03b,pineapple01a,hockeystick,stapler03b,candy,dandelion,clock04,blankImage,blankImage,blankImage,blankImage,blankImage,blankImage,blankImage,blankImage,hockeystick,,,,,,,,,,,,0,20,20,63,,,,,,,,,,,,,,,,,,,,,,,,,,,,,,,,,,,518.0421663000016,519.0490850999486,519.0334571999847,519.67518869997,519.67518869997,None,520.8144126999541,None,right,1.049069500004407,520.8144126999541,None,521.8877464999678,None,left,0.9513173999730498,521.8877464999678,None,,,,,,,,,,,,,,,,,,,,,,,PPT30,001,2022-07-05_12h23.41.314,ABstudy,2022.1.4,59.93403660637168,
AB,Lag1_T1P_T2A,1,P,A,7,8,6,4,12,Steering wheel,Did you see the Steering wheel?,0.12,0.016,JPG\,alligator,banana01,apple07,tomato01,button01,spoon01,steeringwheel,fork03c,canoftennisballs,potato02b,grape01,leaf02a,blankImage,blankImage,blankImage,blankImage,blankImage,steeringwheel,,,,,,,,,,,,0,21,21,198,,,,,,,,,,,,,,,,,,,,,,,,,,,,,,,,,,,522.8784729999606,523.8865741000045,523.8699395000003,524.3707996999728,524.3707996999728,None,525.8984488999704,None,left,0.796848600031808,525.8984488999704,None,526.7236929999781,None,right,1.2834808999905363,526.7236929999781,None,,,,,,,,,,,,,,,,,,,,,,,PPT30,001,2022-07-05_12h23.41.314,ABstudy,2022.1.4,59.93403660637168,
AB,Lag1_T1P_T2P,1,P,P,6,7,5,4,11,bowling pin,Did you see the bowling pin?,0.12,0.016,JPG\,strawberry,leaf02a,clock04,candle01,avocado01,bowlingpin,stapler03a,brownsugar,ring01,lemon02,fork03c,blankImage,blankImage,blankImage,blankImage,blankImage,blankImage,bowlingpin,,,,,,,,,,,,0,22,22,8,,,,,,,,,,,,,,,,,,,,,,,,,,,,,,,,,,,528.0333186999778,529.0420811999938,529.0255083999946,529.6205793999834,529.6205793999834,None,530.9329525999492,None,right,5.770383499970194,530.9329525999492,None,536.7331000999548,None,right,1.377838900021743,536.7331000999548,None,,,,,,,,,,,,,,,,,,,,,,,PPT30,001,2022-07-05_12h23.41.314,ABstudy,2022.1.4,59.93403660637168,
AB,Lag5_T1A_T2P,5,A,P,8,13,7,4,17,wrench,Did you see the wrench?,0.12,0.016,JPG\,clock01a,grape01,plate01b,key01,screwdriver04b,feather03a,pineapple01a,iron01b,toothbrush03b,comb02a,broom01,toaster01,stapler05,garlic01a,match,ashtray01,blankImage,seal,,,,,,,,,,,,0,23,23,272,,,,,,,,,,,,,,,,,,,,,,,,,,,,,,,,,,,538.1398300000001,539.1519267999684,539.1352187999873,539.7648793999688,539.7648793999688,None,541.6676943999482,None,left,4.163849800010212,541.6676943999482,None,545.8728170999675,None,right,2.358998999989126,545.8728170999675,None,,,,,,,,,,,,,,,,,,,,,,,PPT30,001,2022-07-05_12h23.41.314,ABstudy,2022.1.4,59.93403660637168,
AB,Lag1_T1P_T2P,1,P,P,5,6,4,5,11,golf ball,Did you see the golf ball?,0.12,0.016,JPG\,foosballtable,cigarette,pen04b,birthdaycandle,golfball,stapler05,binoculars01b,chain01,potato02b,cauliflower01,paintbrush01,blankImage,blankImage,blankImage,blankImage,blankImage,blankImage,golfball,,,,,,,,,,,,0,24,24,13,,,,,,,,,,,,,,,,,,,,,,,,,,,,,,,,,,,548.2716925999848,549.2789526999695,549.2620119999629,549.7638309999602,549.7638309999602,None,551.160298999981,None,left,0.7594754999736324,551.160298999981,None,551.9482294999762,None,right,0.9155153000028804,551.9482294999762,None,,,,,,,,,,,,,,,,,,,,,,,PPT30,001,2022-07-05_12h23.41.314,ABstudy,2022.1.4,59.93403660637168,
AB,Lag1_T1P_T2P,1,P,P,8,9,7,5,14,bullet,Did you see the bullet?,0.12,0.016,JPG\,measuringcup01,dice05a,greenolive,lipstick02a,feather03a,balloon01b,lighter01,bullet,stapler04b,plate01b,microscope,brick,thermometer02b,screw02,blankImage,blankImage,blankImage,bullet,,,,,,,,,,,,0,25,25,57,,,,,,,,,,,,,,,,,,,,,,,,,,,,,,,,,,,552.8861309999484,553.8999962999951,553.8832373999758,554.4775404999964,554.4775404999964,None,556.1413450999535,None,left,4.937737800006289,556.1413450999535,None,561.107000399963,None,right,1.116771399974823,561.107000399963,None,,,,,,,,,,,,,,,,,,,,,,,PPT30,001,2022-07-05_12h23.41.314,ABstudy,2022.1.4,59.93403660637168,
AB,Lag5_T1P_T2P,5,P,P,8,13,7,3,16,banjo,Did you see the banjo?,0.12,0.016,JPG\,celery,brownsugar,key01,sunglasses04,leaf02a,toothbrush03b,dice05a,banjo,scarf,globe,paintbrush01,scissors01,stapler03a,battery02b,feather03a,cymbal,blankImage,banjo,,,,,,,,,,,,0,26,26,102,,,,,,,,,,,,,,,,,,,,,,,,,,,,,,,,,,,562.2947174999863,563.3091719999793,563.2926030999515,563.9169154999545,563.9169154999545,None,565.6833615999785,None,right,15.364038800005801,565.6833615999785,None,581.0768071999773,None,right,0.8194241999881342,581.0768071999773,None,,,,,,,,,,,,,,,,,,,,,,,PPT30,001,2022-07-05_12h23.41.314,ABstudy,2022.1.4,59.93403660637168,
AB,Lag1_T1P_T2P,1,P,P,5,6,4,5,11,owl,Did you see the owl?,0.12,0.016,JPG\,cellphone,tomato01,comb02a,candy,barnowl,stapler03a,toaster01,fan,feather03a,pen04b,lemon02,blankImage,blankImage,blankImage,blankImage,blankImage,blankImage,barnowl,,,,,,,,,,,,0,27,27,33,,,,,,,,,,,,,,,,,,,,,,,,,,,,,,,,,,,581.9299295999808,582.9453747999505,582.9121586999972,583.5194775999989,583.5194775999989,None,584.9045225000009,None,left,0.7103690999792889,584.9045225000009,None,585.6313759000041,None,right,1.5443922000122257,585.6313759000041,None,,,,,,,,,,,,,,,,,,,,,,,PPT30,001,2022-07-05_12h23.41.314,ABstudy,2022.1.4,59.93403660637168,
AB,Lag5_T1P_T2P,5,P,P,5,10,4,5,15,hockey puck,Did you see the hockey puck?,0.12,0.016,JPG\,chain01,pen04b,birthdaycandle,watermelon01,hockeypuck,scissors01,measuringcup01,candle01,hammer01,stapler06,ashtray01,feather03a,sewingmachine01a,thermometer02b,alligator,blankImage,blankImage,hockeypuck,,,,,,,,,,,,0,28,28,110,,,,,,,,,,,,,,,,,,,,,,,,,,,,,,,,,,,587.2040970999515,588.2173934999737,588.2006227999809,588.7745852999506,588.7745852999506,None,590.5241679999745,None,left,6.451846099982504,590.5241679999745,None,596.9929230999551,None,right,0.791250400012359,596.9929230999551,None,,,,,,,,,,,,,,,,,,,,,,,PPT30,001,2022-07-05_12h23.41.314,ABstudy,2022.1.4,59.93403660637168,
AB,Lag5_T1P_T2A,5,P,A,6,11,5,5,16,hat,Did you see the hat?,0.12,0.016,JPG\,apple07,toiletpaper01a,pizza,dandelion,greenolive,pilgrimhat,microscope,violin,orange,lipstick02a,balloon01b,sandal,lighter01,fan,book01b,sewingmachine01a,blankImage,pilgrimhat,,,,,,,,,,,,0,29,29,206,,,,,,,,,,,,,,,,,,,,,,,,,,,,,,,,,,,597.8128903000033,598.828295699961,598.7948304999736,599.4000635999837,599.4000635999837,None,601.3533057000022,None,left,0.8218855999875814,601.3533057000022,None,602.1979083999759,None,right,1.425017100002151,602.1979083999759,None,,,,,,,,,,,,,,,,,,,,,,,PPT30,001,2022-07-05_12h23.41.314,ABstudy,2022.1.4,59.93403660637168,
AB,Lag1_T1P_T2P,1,P,P,6,7,5,5,12,exit sign,Did you see the exit sign?,0.12,0.016,JPG\,printer02,envelope03a,potato02b,calculator01,tableknife02,exitsign,stapler01,pig,broom01,greenolive,candle08b,battery02b,blankImage,blankImage,blankImage,blankImage,blankImage,exitsign,,,,,,,,,,,,0,30,30,41,,,,,,,,,,,,,,,,,,,,,,,,,,,,,,,,,,,603.6528517999686,604.6669780999655,604.6502775999834,605.3015088999528,605.2208152999519,None,606.7291104999604,None,left,1.0459386000293307,606.7291104999604,None,607.8034463999793,None,right,0.3955248999991454,607.8034463999793,None,,,,,,,,,,,,,,,,,,,,,,,PPT30,001,2022-07-05_12h23.41.314,ABstudy,2022.1.4,59.93403660637168,
AB,Lag1_T1P_T2P,1,P,P,5,6,4,3,9,camel,Did you see the camel?,0.12,0.016,JPG\,iron01b,brick,broccoli01a,balloon01b,dromedary,stapler05,sandal,teabag,scissors01,blankImage,blankImage,blankImage,blankImage,blankImage,blankImage,blankImage,blankImage,dromedary,,,,,,,,,,,,0,31,31,11,,,,,,,,,,,,,,,,,,,,,,,,,,,,,,,,,,,608.2227475999971,609.2382437999477,609.2048548999592,609.7838519999641,609.7838519999641,None,610.8681681999587,None,left,0.6511786000337452,610.8681681999587,None,611.5405747999903,None,right,0.41977149999001995,611.5405747999903,None,,,,,,,,,,,,,,,,,,,,,,,PPT30,001,2022-07-05_12h23.41.314,ABstudy,2022.1.4,59.93403660637168,
AB,Lag1_T1P_T2P,1,P,P,7,8,6,3,11,Moose,Did you see the Moose?,0.12,0.016,JPG\,sock01a,spoon01,alligator,comb02a,printer02,medal02b,moose,stapler03a,greenolive,computerkeyboard02,cauliflower01,blankImage,blankImage,blankImage,blankImage,blankImage,blankImage,moose,,,,,,,,,,,,0,32,32,67,,,,,,,,,,,,,,,,,,,,,,,,,,,,,,,,,,,611.9933344000019,613.0086924999487,612.9753261999576,613.5713309999555,613.5713309999555,None,614.9451070999494,None,left,3.2215320999966934,614.9451070999494,None,618.1970731999609,None,right,0.5215765999746509,618.1970731999609,None,,,,,,,,,,,,,,,,,,,,,,,PPT30,001,2022-07-05_12h23.41.314,ABstudy,2022.1.4,59.93403660637168,
AB,Lag1_T1P_T2P,1,P,P,7,8,6,4,12,Christmas Tree,Did you see the Christmas Tree?,0.12,0.016,JPG\,sandal,fan,printer02,cellphone,mushroom01,candle08b,firtree,stapler03a,lamp04a,hammer01,teabag,aceofdiamond,blankImage,blankImage,blankImage,blankImage,blankImage,firtree,,,,,,,,,,,,0,33,33,6,,,,,,,,,,,,,,,,,,,,,,,,,,,,,,,,,,,618.7502419999801,619.7653789999895,619.7319770999602,620.3123244000017,620.3123244000017,None,621.8075347999693,None,left,0.463627599994652,621.8075347999693,None,622.3009314999799,None,right,0.46611749997828156,622.3009314999799,None,,,,,,,,,,,,,,,,,,,,,,,PPT30,001,2022-07-05_12h23.41.314,ABstudy,2022.1.4,59.93403660637168,
AB,Lag1_T1A_T2P,1,A,P,7,8,6,3,11,Fox,Did you see the Fox?,0.12,0.016,JPG\,toaster01,chain01,sponge01,baseball01a,carrot01,belt02a,book01b,stapler03b,grape01,brick,celery,blankImage,blankImage,blankImage,blankImage,blankImage,blankImage,fingerprint,,,,,,,,,,,,0,34,34,234,,,,,,,,,,,,,,,,,,,,,,,,,,,,,,,,,,,622.7969531999552,623.8025461999932,623.785863099969,624.3837832999998,624.3837832999998,None,625.7006777999923,None,left,3.03492909995839,625.7006777999923,None,628.7580295999651,None,right,0.5845351999741979,628.7580295999651,None,,,,,,,,,,,,,,,,,,,,,,,PPT30,001,2022-07-05_12h23.41.314,ABstudy,2022.1.4,59.93403660637168,
AB,Lag1_T1P_T2P,1,P,P,8,9,7,5,14,lawn mower,Did you see the lawn mower?,0.12,0.016,JPG\,battery02b,sunglasses04,pear01,tennisball01b,clock01a,speaker04,binoculars01b,lawnmower,stapler05,pineapple01a,avocado01,grape01,blueberry01,violin,blankImage,blankImage,blankImage,lawnmower,,,,,,,,,,,,0,35,35,46,,,,,,,,,,,,,,,,,,,,,,,,,,,,,,,,,,,629.3809213999775,630.3928069999674,630.3760841999901,630.9697289000032,630.9697289000032,None,632.6769896000042,None,left,2.915426799969282,632.6769896000042,None,635.6173217999749,None,right,0.45397039997624233,635.6173217999749,None,,,,,,,,,,,,,,,,,,,,,,,PPT30,001,2022-07-05_12h23.41.314,ABstudy,2022.1.4,59.93403660637168,
AB,Lag5_T1P_T2P,5,P,P,8,13,7,4,17,surf board,Did you see the surf board?,0.12,0.016,JPG\,candy,brownsugar,dice05a,cd,sock01a,blueberry01,button01,surfboard,feather03a,grape01,dandelion,scissors01,stapler03b,candle08b,book01b,globe,blankImage,surfboard,,,,,,,,,,,,0,36,36,142,,,,,,,,,,,,,,,,,,,,,,,,,,,,,,,,,,,636.1090025999583,637.1158052999526,637.0993535000016,637.6726968999719,637.6726968999719,None,639.6155016999692,None,left,1.2875510000158101,639.6155016999692,None,640.92287509999,None,left,0.28402320004533976,640.92287509999,None,,,,,,,,,,,,,,,,,,,,,,,PPT30,001,2022-07-05_12h23.41.314,ABstudy,2022.1.4,59.93403660637168,
AB,Lag5_T1P_T2P,5,P,P,8,13,7,3,16,parachute,Did you see the parachute?,0.12,0.016,JPG\,brick,plate01b,pen04b,toaster01,screwdriver04b,candle01,envelope03a,parachute,pig,ring01,orange,clock01a,stapler03b,calculator01,mushroom01,chain01,blankImage,parachute,,,,,,,,,,,,0,37,37,114,,,,,,,,,,,,,,,,,,,,,,,,,,,,,,,,,,,641.2405179999769,642.2546862000017,642.221198699961,642.7987116999575,642.7987116999575,None,644.7398085999885,None,left,3.491349099960644,644.7398085999885,None,648.2608229999896,None,right,0.23465429997304454,648.2608229999896,None,,,,,,,,,,,,,,,,,,,,,,,PPT30,001,2022-07-05_12h23.41.314,ABstudy,2022.1.4,59.93403660637168,
AB,Lag1_T1A_T2P,1,A,P,8,9,7,5,14,Wolf,Did you see the Wolf?,0.12,0.016,JPG\,carrot01,watch02a,clock04,microscope,toiletpaper01a,potato02b,alligator,ring01,stapler03b,watermelon01,cd,pencil01,measuringcup01,balloon01b,blankImage,blankImage,blankImage,dreamcatcher,,,,,,,,,,,,0,38,38,253,,,,,,,,,,,,,,,,,,,,,,,,,,,,,,,,,,,648.5300974999554,649.5453277999768,649.5120901999762,650.0892509999685,650.0892509999685,None,651.7964506999706,None,right,0.8743329999851994,651.7964506999706,None,652.701401999977,None,right,0.5617009999696165,652.701401999977,None,,,,,,,,,,,,,,,,,,,,,,,PPT30,001,2022-07-05_12h23.41.314,ABstudy,2022.1.4,59.93403660637168,
AB,Lag5_T1A_T2P,5,A,P,8,13,7,3,16,ladder,Did you see the ladder?,0.12,0.016,JPG\,apple07,toiletpaper01a,pizza,dandelion,greenolive,eraser,microscope,violin,orange,lipstick02a,balloon01b,sandal,stapler01,fan,book01b,sewingmachine01a,blankImage,ostrich,,,,,,,,,,,,0,39,39,269,,,,,,,,,,,,,,,,,,,,,,,,,,,,,,,,,,,653.3461770999711,654.3495787999709,654.3327544999775,654.927074999956,654.927074999956,None,656.8468294999911,None,right,4.12810749997152,656.8468294999911,None,661.0063445999986,None,right,1.648689599998761,661.0063445999986,None,,,,,,,,,,,,,,,,,,,,,,,PPT30,001,2022-07-05_12h23.41.314,ABstudy,2022.1.4,59.93403660637168,
AB,Lag1_T1P_T2P,1,P,P,8,9,7,4,13,dart board,Did you see the dart board?,0.12,0.016,JPG\,rice,watermelon01,tableknife02,scarf,computerkeyboard02,cauliflower01,battery02b,dartboard,stapler01,sandal,sponge01,microscope,tomato01,blankImage,blankImage,blankImage,blankImage,dartboard,,,,,,,,,,,,0,40,40,80,,,,,,,,,,,,,,,,,,,,,,,,,,,,,,,,,,,662.6769960999954,663.6761211999692,663.6593189999694,664.2251396999927,664.2251396999927,None,665.9392595999525,None,right,1.132967900019139,665.9392595999525,None,667.0962044000044,None,left,0.46277549996739253,667.0962044000044,None,,,,,,,,,,,,,,,,,,,,,,,PPT30,001,2022-07-05_12h23.41.314,ABstudy,2022.1.4,59.93403660637168,
AB,Lag5_T1P_T2P,5,P,P,5,10,4,5,15,funnel,Did you see the funnel?,0.12,0.016,JPG\,pineapple01a,tennisball01b,computerkeyboard02,feather03a,funnel,acorn,violin,blueberry01,medal02b,stapler01,greenolive,screwdriver04b,potato02b,fork03c,cymbal,blankImage,blankImage,funnel,,,,,,,,,,,,0,41,41,109,,,,,,,,,,,,,,,,,,,,,,,,,,,,,,,,,,,667.5838968000025,668.5974927999778,668.5808089999482,669.1938638999709,669.1938638999709,None,670.9005633000052,None,left,5.290633199969307,670.9005633000052,None,676.2218916999991,None,right,2.625353899959009,676.2218916999991,None,,,,,,,,,,,,,,,,,,,,,,,PPT30,001,2022-07-05_12h23.41.314,ABstudy,2022.1.4,59.93403660637168,
AB,Lag1_T1P_T2P,1,P,P,8,9,7,4,13,ladder,Did you see the ladder?,0.12,0.016,JPG\,cigarette,fork03c,greenolive,broccoli01a,avocado01,tennisball01b,balloon01b,ladder,stapler03b,fan,clock01a,strawberry,envelope03a,blankImage,blankImage,blankImage,blankImage,ladder,,,,,,,,,,,,0,42,42,45,,,,,,,,,,,,,,,,,,,,,,,,,,,,,,,,,,,678.8777522000019,679.8920185999596,679.8753759999527,680.5130727999494,680.4412211999879,None,682.087982499972,None,left,0.8545619000215083,682.087982499972,None,682.9620307000005,None,left,0.2206859999569133,682.9620307000005,None,,,,,,,,,,,,,,,,,,,,,,,PPT30,001,2022-07-05_12h23.41.314,ABstudy,2022.1.4,59.93403660637168,
AB,Lag1_T1P_T2P,1,P,P,6,7,5,4,11,Bow,Did you see the Bow?,0.12,0.016,JPG\,broom01,plate01b,scissors01,garlic01a,paintbrush01,bow,stapler03a,shirt02,speaker04,celery,sandal,blankImage,blankImage,blankImage,blankImage,blankImage,blankImage,bow,,,,,,,,,,,,0,43,43,53,,,,,,,,,,,,,,,,,,,,,,,,,,,,,,,,,,,683.2219895999879,684.2295752999489,684.2131961999694,684.7713726999937,684.7713726999937,None,686.151711799961,None,left,3.1189385000034235,686.151711799961,None,689.3015905999928,None,right,0.7696880999719724,689.3015905999928,None,,,,,,,,,,,,,,,,,,,,,,,PPT30,001,2022-07-05_12h23.41.314,ABstudy,2022.1.4,59.93403660637168,
AB,Lag1_T1P_T2A,1,P,A,6,7,5,5,12,Barn,Did you see the Barn?,0.12,0.016,JPG\,celery,pencil01,fan,foosballtable,iron01b,barn,potato02b,fork03c,button01,pineapple01a,baseball01a,printer02,blankImage,blankImage,blankImage,blankImage,blankImage,barn,,,,,,,,,,,,0,44,44,181,,,,,,,,,,,,,,,,,,,,,,,,,,,,,,,,,,,690.1061115000048,691.1200971999788,691.1033899000031,691.6733504000003,691.6733504000003,None,693.1464716999908,None,right,1.2531222999677993,693.1464716999908,None,694.4233775999746,None,right,0.6314071999513544,694.4233775999746,None,,,,,,,,,,,,,,,,,,,,,,,PPT30,001,2022-07-05_12h23.41.314,ABstudy,2022.1.4,59.93403660637168,
AB,Lag1_T1P_T2P,1,P,P,7,8,6,5,13,disco ball,Did you see the disco ball?,0.12,0.016,JPG\,candle01,paintbrush01,scissors01,fan,microscope,toothbrush03b,discoball,stapler03b,teabag,pencil01,lemon02,ashtray01,shirt02,blankImage,blankImage,blankImage,blankImage,discoball,,,,,,,,,,,,0,45,45,60,,,,,,,,,,,,,,,,,,,,,,,,,,,,,,,,,,,695.0803349999478,696.0916787000024,696.0750055999961,696.6592100999551,696.6592100999551,None,698.2855694000027,None,left,2.0247753000003286,698.2855694000027,None,700.329543299973,None,right,0.97304820001591,700.329543299973,None,,,,,,,,,,,,,,,,,,,,,,,PPT30,001,2022-07-05_12h23.41.314,ABstudy,2022.1.4,59.93403660637168,
AB,Lag5_T1A_T2P,5,A,P,5,10,4,5,15,Sushi,Did you see the Sushi?,0.12,0.016,JPG\,pineapple01a,leaf02a,grape01,toiletpaper01a,match,tennisball01b,spoon01,chain01,pig,stapler04b,ring01,lemon02,dice05a,pizza,potato02b,blankImage,blankImage,crown,,,,,,,,,,,,0,46,46,285,,,,,,,,,,,,,,,,,,,,,,,,,,,,,,,,,,,701.3321553999558,702.3474757999647,702.314145399956,702.8964629999828,702.8964629999828,None,704.7578819000046,None,right,0.8250498999841511,704.7578819000046,None,705.6012007999816,None,right,1.14988889999222,705.6012007999816,None,,,,,,,,,,,,,,,,,,,,,,,PPT30,001,2022-07-05_12h23.41.314,ABstudy,2022.1.4,59.93403660637168,
AB,Lag1_T1P_T2P,1,P,P,5,6,4,5,11,squirrel,Did you see the squirrel?,0.12,0.016,JPG\,pencil01,orange,clock01a,sponge01,squirrel,stapler05,lipstick02a,strawberry,book01b,mushroom01,envelope03a,blankImage,blankImage,blankImage,blankImage,blankImage,blankImage,squirrel,,,,,,,,,,,,0,47,47,5,,,,,,,,,,,,,,,,,,,,,,,,,,,,,,,,,,,706.776940599957,707.7864934999961,707.7699681999511,708.338520499994,708.338520499994,None,709.6863732999773,None,left,2.9684721999801695,709.6863732999773,None,712.6748247999931,None,right,1.3717754000099376,712.6748247999931,None,,,,,,,,,,,,,,,,,,,,,,,PPT30,001,2022-07-05_12h23.41.314,ABstudy,2022.1.4,59.93403660637168,
AB,Lag1_T1A_T2P,1,A,P,7,8,6,5,13,Ant,Did you see the Ant?,0.12,0.016,JPG\,rice,watermelon01,tableknife02,scarf,computerkeyboard02,cauliflower01,battery02b,stapler03b,book01b,sandal,sponge01,microscope,tomato01,blankImage,blankImage,blankImage,blankImage,sandcastle,,,,,,,,,,,,0,48,48,242,,,,,,,,,,,,,,,,,,,,,,,,,,,,,,,,,,,714.0785481999628,715.0938063999638,715.0605026999838,715.672412099957,715.672412099957,None,717.2347459999728,None,right,0.7161330999806523,717.2347459999728,None,717.9797864999855,None,right,0.5471665999502875,717.9797864999855,None,,,,,,,,,,,,,,,,,,,,,,,PPT30,001,2022-07-05_12h23.41.314,ABstudy,2022.1.4,59.93403660637168,
AB,Lag5_T1P_T2A,5,P,A,8,13,7,4,17,Tarantula,Did you see the Tarantula?,0.12,0.016,JPG\,binoculars01b,speaker04,sandal,envelope03a,plate01b,comb02a,battery02b,tarantula,measuringcup01,key01,medal02b,lamp04a,tennisball01b,pizza,cigarette,sunglasses04,blankImage,tarantula,,,,,,,,,,,,0,49,49,201,,,,,,,,,,,,,,,,,,,,,,,,,,,,,,,,,,,718.5493562999764,719.5648659999715,719.5313217999646,720.1231677999604,720.1231677999604,None,722.0875340999919,None,left,3.376464999979362,722.0875340999919,None,725.4872656999505,None,right,2.151269800029695,725.4872656999505,None,,,,,,,,,,,,,,,,,,,,,,,PPT30,001,2022-07-05_12h23.41.314,ABstudy,2022.1.4,59.93403660637168,
AB,Lag5_T1P_T2P,5,P,P,7,12,6,5,17,flamingo,Did you see the flamingo?,0.12,0.016,JPG\,pig,belt02a,rice,screwdriver04b,candle01,apple07,flamingo,pear01,feather03a,match,thermometer02b,stapler06,lemon02,violin,medal02b,pineapple01a,blankImage,flamingo,,,,,,,,,,,,0,50,50,153,,,,,,,,,,,,,,,,,,,,,,,,,,,,,,,,,,,727.6583401999669,728.6737907999777,728.6404553999892,729.1420974999783,729.1420974999783,None,731.1600079999771,None,left,10.054725900001358,731.1600079999771,None,741.2366687000031,None,right,1.1777395000099204,741.2366687000031,None,,,,,,,,,,,,,,,,,,,,,,,PPT30,001,2022-07-05_12h23.41.314,ABstudy,2022.1.4,59.93403660637168,
AB,Lag1_T1P_T2P,1,P,P,8,9,7,4,13,peacock,Did you see the peacock?,0.12,0.016,JPG\,hammer01,sponge01,toaster01,cherry01,feather03a,mushroom01,measuringcup01,peacock,stapler03a,brick,clock04,medal02b,teabag,blankImage,blankImage,blankImage,blankImage,peacock,,,,,,,,,,,,0,51,51,68,,,,,,,,,,,,,,,,,,,,,,,,,,,,,,,,,,,742.4400289999903,743.4553673999617,743.422196200001,743.9949491999578,743.9949491999578,None,745.5917860000045,None,left,4.638273199961986,745.5917860000045,None,750.262188099965,None,right,3.5294856999535114,750.262188099965,None,,,,,,,,,,,,,,,,,,,,,,,PPT30,001,2022-07-05_12h23.41.314,ABstudy,2022.1.4,59.93403660637168,
AB,Lag1_T1A_T2A,1,A,A,6,7,5,5,12,flamingo,Did you see the flamingo?,0.12,0.016,JPG\,chain01,pen04b,birthdaycandle,watermelon01,broom01,scissors01,measuringcup01,candle01,hammer01,calculator01,ashtray01,feather03a,blankImage,blankImage,blankImage,blankImage,blankImage,witchhat,,,,,,,,,,,,0,52,52,288,,,,,,,,,,,,,,,,,,,,,,,,,,,,,,,,,,,753.8875721999793,754.9001726999995,754.8833510999684,755.4608620999497,755.4608620999497,None,756.8169542999822,None,right,1.725674799992703,756.8169542999822,None,758.5706084999838,None,right,1.2437813999713399,758.5706084999838,None,,,,,,,,,,,,,,,,,,,,,,,PPT30,001,2022-07-05_12h23.41.314,ABstudy,2022.1.4,59.93403660637168,
AB,Lag1_T1P_T2P,1,P,P,7,8,6,4,12,rooster,Did you see the rooster?,0.12,0.016,JPG\,pizza,strawberry,potato02b,speaker04,battery02b,iron01b,rooster,stapler03b,globe,banana01,medal02b,baseball01a,blankImage,blankImage,blankImage,blankImage,blankImage,rooster,,,,,,,,,,,,0,53,53,69,,,,,,,,,,,,,,,,,,,,,,,,,,,,,,,,,,,759.842479199986,760.8561660999549,760.8393492999603,761.4316397999646,761.4316397999646,None,762.8692952999845,None,left,0.593186300015077,762.8692952999845,None,763.4917690999573,None,right,3.274860900011845,763.4917690999573,None,,,,,,,,,,,,,,,,,,,,,,,PPT30,001,2022-07-05_12h23.41.314,ABstudy,2022.1.4,59.93403660637168,
AB,Lag1_T1P_T2A,1,P,A,7,8,6,3,11,Seagull,Did you see the Seagull?,0.12,0.016,JPG\,toiletpaper01a,mushroom01,medal02b,sandal,rice,cd,seagull,pizza,candle08b,garlic01a,toaster01,blankImage,blankImage,blankImage,blankImage,blankImage,blankImage,seagull,,,,,,,,,,,,0,54,54,176,,,,,,,,,,,,,,,,,,,,,,,,,,,,,,,,,,,766.8620244999765,767.863486599992,767.8477768999874,768.4438808999839,768.4438808999839,None,769.7355129999924,None,left,1.1268678999622352,769.7355129999924,None,770.8826928999624,None,right,1.3557114999857731,770.8826928999624,None,,,,,,,,,,,,,,,,,,,,,,,PPT30,001,2022-07-05_12h23.41.314,ABstudy,2022.1.4,59.93403660637168,
AB,Lag5_T1P_T2A,5,P,A,8,13,7,4,17,knife,Did you see the knife?,0.12,0.016,JPG\,lighter01,hammer01,spoon01,chain01,cymbal,sponge01,lipstick02a,knife03,pig,watermelon01,cauliflower01,lemon02,broccoli01a,tableknife02,tennisball01b,toothbrush03b,blankImage,knife03,,,,,,,,,,,,0,55,55,214,,,,,,,,,,,,,,,,,,,,,,,,,,,,,,,,,,,772.2694652999635,773.2849086999777,773.2515642999788,773.8515117999632,773.8515117999632,None,775.8084747999674,None,left,1.4380129000055604,775.8084747999674,None,777.2721407999634,None,right,1.6860235999920405,777.2721407999634,None,,,,,,,,,,,,,,,,,,,,,,,PPT30,001,2022-07-05_12h23.41.314,ABstudy,2022.1.4,59.93403660637168,
AB,Lag1_T1P_T2P,1,P,P,5,6,4,4,10,Ladybug,Did you see the Ladybug?,0.12,0.016,JPG\,key01,apple07,ring01,leaf02a,ladybug03,stapler04b,violin,sponge01,baseball01a,thermometer02b,blankImage,blankImage,blankImage,blankImage,blankImage,blankImage,blankImage,ladybug03,,,,,,,,,,,,0,56,56,65,,,,,,,,,,,,,,,,,,,,,,,,,,,,,,,,,,,778.9997963999631,780.0084762999904,779.9918086999678,780.5839960000012,780.5839960000012,None,781.7659495999687,None,left,9.208640400029253,781.7659495999687,None,791.0025241999538,None,right,0.7321259999880567,791.0025241999538,None,,,,,,,,,,,,,,,,,,,,,,,PPT30,001,2022-07-05_12h23.41.314,ABstudy,2022.1.4,59.93403660637168,
AB,Lag5_T1A_T2P,5,A,P,5,10,4,3,13,License Plate,Did you see the License Plate?,0.12,0.016,JPG\,tomato01,pen04b,shirt02,carrot01,lamp04a,key01,pizza,avocado01,sewingmachine01a,stapler06,iron01b,book01b,chain01,blankImage,blankImage,blankImage,blankImage,porcupine,,,,,,,,,,,,0,57,57,270,,,,,,,,,,,,,,,,,,,,,,,,,,,,,,,,,,,791.7612500999821,792.7711539999582,792.7544344999478,793.3239738999982,793.3239738999982,None,794.93348409998,None,left,10.489441999990959,794.93348409998,None,805.4502476999769,None,right,0.8202958999900147,805.4502476999769,None,,,,,,,,,,,,,,,,,,,,,,,PPT30,001,2022-07-05_12h23.41.314,ABstudy,2022.1.4,59.93403660637168,
AB,Lag1_T1P_T2P,1,P,P,7,8,6,5,13,dream catcher,Did you see the dream catcher?,0.12,0.016,JPG\,clock01a,cellphone,toaster01,toothbrush03b,cauliflower01,microscope,dreamcatcher,stapler05,scarf,clock04,sponge01,iron01b,watch02a,blankImage,blankImage,blankImage,blankImage,dreamcatcher,,,,,,,,,,,,0,58,58,81,,,,,,,,,,,,,,,,,,,,,,,,,,,,,,,,,,,806.3033904999611,807.3024164999952,807.2857076999499,807.8956738999696,807.8956738999696,None,809.4676912999712,None,left,5.211117000028025,809.4676912999712,None,814.709752499999,None,right,1.3938085999689065,814.709752499999,None,,,,,,,,,,,,,,,,,,,,,,,PPT30,001,2022-07-05_12h23.41.314,ABstudy,2022.1.4,59.93403660637168,
AB,Lag1_T1P_T2A,1,P,A,5,6,4,4,10,paper airplane,Did you see the paper airplane?,0.12,0.016,JPG\,thermometer02b,avocado01,scissors01,tennisball01b,paperairplane,banana01,strawberry,cigarette,potato02b,pineapple01a,blankImage,blankImage,blankImage,blankImage,blankImage,blankImage,blankImage,paperairplane,,,,,,,,,,,,0,59,59,191,,,,,,,,,,,,,,,,,,,,,,,,,,,,,,,,,,,816.1352696999675,817.1454416000051,817.1287568999687,817.707152899995,817.707152899995,None,818.9940209999913,None,left,0.44419919996289536,818.9940209999913,None,819.4656491999631,None,right,0.9888052999740466,819.4656491999631,None,,,,,,,,,,,,,,,,,,,,,,,PPT30,001,2022-07-05_12h23.41.314,ABstudy,2022.1.4,59.93403660637168,
AB,Lag5_T1P_T2A,5,P,A,8,13,7,3,16,leaf blower,Did you see the leaf blower?,0.12,0.016,JPG\,printer02,leaf02a,cauliflower01,sock01a,brownsugar,paintbrush01,pig,leafblower01,belt02a,shirt02,key01,match,cigarette,scissors01,envelope03a,blueberry01,blankImage,leafblower01,,,,,,,,,,,,0,60,60,216,,,,,,,,,,,,,,,,,,,,,,,,,,,,,,,,,,,820.4854954999755,821.499522499973,821.4827809999697,822.1303724999889,822.051573499979,None,824.0468165999628,None,left,0.8076962000341155,824.0468165999628,None,824.8864938999759,None,right,0.3041810999857262,824.8864938999759,None,,,,,,,,,,,,,,,,,,,,,,,PPT30,001,2022-07-05_12h23.41.314,ABstudy,2022.1.4,59.93403660637168,
AB,Lag5_T1P_T2P,5,P,P,5,10,4,5,15,mouse,Did you see the mouse?,0.12,0.016,JPG\,pineapple01a,leaf02a,grape01,toiletpaper01a,mouse,tennisball01b,spoon01,chain01,pig,stapler03a,ring01,lemon02,dice05a,pizza,potato02b,blankImage,blankImage,mouse,,,,,,,,,,,,0,61,61,94,,,,,,,,,,,,,,,,,,,,,,,,,,,,,,,,,,,825.2240907999803,826.2375718999538,826.2212639999925,826.7965984999901,826.7965984999901,None,828.6561619999702,None,left,0.8622487999964505,828.6561619999702,None,829.5418724999763,None,right,0.7608835999853909,829.5418724999763,None,,,,,,,,,,,,,,,,,,,,,,,PPT30,001,2022-07-05_12h23.41.314,ABstudy,2022.1.4,59.93403660637168,
AB,Lag5_T1P_T2P,5,P,P,6,11,5,4,15,boxing glove,Did you see the boxing glove?,0.12,0.016,JPG\,button01,celery,birthdaycandle,apple07,avocado01,boxingglove01,dice05a,teabag,clock01a,feather03a,stapler06,scarf,orange,battery02b,thermometer02b,blankImage,blankImage,boxingglove01,,,,,,,,,,,,0,62,62,165,,,,,,,,,,,,,,,,,,,,,,,,,,,,,,,,,,,830.333508599957,831.3433045999845,831.3277237999719,831.9326770000043,831.9326770000043,None,833.7735175999696,None,left,0.7612592999939807,833.7735175999696,None,834.5624505999731,None,right,0.5957112000323832,834.5624505999731,None,,,,,,,,,,,,,,,,,,,,,,,PPT30,001,2022-07-05_12h23.41.314,ABstudy,2022.1.4,59.93403660637168,
AB,Lag1_T1A_T2A,1,A,A,5,6,4,3,9,Pigeon,Did you see the Pigeon?,0.12,0.016,JPG\,candle01,paintbrush01,scissors01,fan,microscope,toothbrush03b,candle08b,watermelon01,teabag,blankImage,blankImage,blankImage,blankImage,blankImage,blankImage,blankImage,blankImage,floorlamp,,,,,,,,,,,,0,63,63,286,,,,,,,,,,,,,,,,,,,,,,,,,,,,,,,,,,,835.183261499973,836.1977222999558,836.1642946999636,836.7411519999732,836.7411519999732,None,837.8781813999522,None,right,4.193472099956125,837.8781813999522,None,842.1036068999674,None,right,1.3272079000016674,842.1036068999674,None,,,,,,,,,,,,,,,,,,,,,,,PPT30,001,2022-07-05_12h23.41.314,ABstudy,2022.1.4,59.93403660637168,
AB,Lag1_T1P_T2P,1,P,P,8,9,7,4,13,Doughnut,Did you see the Doughnut?,0.12,0.016,JPG\,brick,eraser,cucumber,ashtray01,thermometer02b,binoculars01b,lipstick02a,donut,stapler01,brownsugar,battery02b,iron01b,dice05a,blankImage,blankImage,blankImage,blankImage,donut,,,,,,,,,,,,0,64,64,39,,,,,,,,,,,,,,,,,,,,,,,,,,,,,,,,,,,843.4569379999884,844.472180199984,844.4388766999473,845.011466099997,845.011466099997,None,846.6893557999865,None,left,3.028769899974577,846.6893557999865,None,849.7443549999734,None,right,0.6378880999982357,849.7443549999734,None,,,,,,,,,,,,,,,,,,,,,,,PPT30,001,2022-07-05_12h23.41.314,ABstudy,2022.1.4,59.93403660637168,
AB,Lag1_T1P_T2P,1,P,P,8,9,7,3,12,snow globe,Did you see the Snow globe?,0.12,0.016,JPG\,eraser,measuringcup01,chain01,birthdaycandle,ring01,rice,8ball,stapler04b,stapler01,celery,microscope,sunglasses04,blankImage,blankImage,blankImage,blankImage,blankImage,snowglobe,,,,,,,,,,,,0,65,65,56,,,,,,,,,,,,,,,,,,,,,,,,,,,,,,,,,,,850.4140429999679,851.429353799962,851.3959525999962,851.9726932999911,851.9726932999911,None,853.4437012999551,None,left,0.7704839000361972,853.4437012999551,None,854.2321007999708,None,right,0.2380548999644816,854.2321007999708,None,,,,,,,,,,,,,,,,,,,,,,,PPT30,001,2022-07-05_12h23.41.314,ABstudy,2022.1.4,59.93403660637168,
AB,Lag5_T1P_T2P,5,P,P,6,11,5,4,15,sword,Did you see the sword?,0.12,0.016,JPG\,8ball,banana01,scissors01,pig,shirt02,broadsword,pear01,sponge01,fork03c,tableknife02,stapler06,match,toothbrush03b,birthdaycandle,candle01,blankImage,blankImage,broadsword,,,,,,,,,,,,0,66,66,167,,,,,,,,,,,,,,,,,,,,,,,,,,,,,,,,,,,854.5014092999627,855.5167255999986,855.4833042999962,856.0624801999656,856.0624801999656,None,857.8929661999573,None,left,6.417083900014404,857.8929661999573,None,864.3426637999946,None,right,0.6000059000216424,864.3426637999946,None,,,,,,,,,,,,,,,,,,,,,,,PPT30,001,2022-07-05_12h23.41.314,ABstudy,2022.1.4,59.93403660637168,
AB,Lag5_T1P_T2P,5,P,P,5,10,4,3,13,rose,Did you see the rose?,0.12,0.016,JPG\,lipstick02a,cucumber,candle08b,printer02,rose,violin,paintbrush01,lighter01,belt02a,stapler03b,thermometer02b,microscope,cigarette,blankImage,blankImage,blankImage,blankImage,rose,,,,,,,,,,,,0,67,67,158,,,,,,,,,,,,,,,,,,,,,,,,,,,,,,,,,,,864.9640083999839,865.9774508999544,865.9608099999605,866.5558325999882,866.5558325999882,None,868.1055860999622,None,left,0.6686064000241458,868.1055860999622,None,868.7976513999747,None,right,0.8016749999951571,868.7976513999747,None,,,,,,,,,,,,,,,,,,,,,,,PPT30,001,2022-07-05_12h23.41.314,ABstudy,2022.1.4,59.93403660637168,
AB,Lag5_T1P_T2P,5,P,P,6,11,5,5,16,table,Did you see the table?,0.12,0.016,JPG\,birthdaycandle,mushroom01,strawberry,match,cherry01,table01,hammer01,thermometer02b,sock01a,ring01,stapler06,banana01,toiletpaper01a,key01,sponge01,teabag,blankImage,table01,,,,,,,,,,,,0,68,68,144,,,,,,,,,,,,,,,,,,,,,,,,,,,,,,,,,,,869.6358065999812,870.64902849996,870.6332131999661,871.1356858999934,871.1356858999934,None,873.160323899996,None,left,0.6538317000376992,873.160323899996,None,873.8353939999943,None,right,0.9628237999859266,873.8353939999943,None,,,,,,,,,,,,,,,,,,,,,,,PPT30,001,2022-07-05_12h23.41.314,ABstudy,2022.1.4,59.93403660637168,
AB,Lag5_T1P_T2P,5,P,P,8,13,7,4,17,cruise ship,Did you see the cruise ship?,0.12,0.016,JPG\,measuringcup01,dice05a,greenolive,lipstick02a,feather03a,balloon01b,lighter01,cruiseship,carrot01,plate01b,microscope,brick,stapler05,screw02,speaker04,spoon01,blankImage,cruiseship,,,,,,,,,,,,0,69,69,105,,,,,,,,,,,,,,,,,,,,,,,,,,,,,,,,,,,874.8264838999603,875.8369147999911,875.8203234999673,876.3926534999628,876.3926534999628,None,878.3686108999536,None,left,0.39050940005108714,878.3686108999536,None,878.7899409999955,None,right,0.592143899993971,878.7899409999955,None,,,,,,,,,,,,,,,,,,,,,,,PPT30,001,2022-07-05_12h23.41.314,ABstudy,2022.1.4,59.93403660637168,
AB,Lag1_T1P_T2A,1,P,A,6,7,5,5,12,foot,Did you see the foot?,0.12,0.016,JPG\,watermelon01,cigarette,weight04a,cymbal,cauliflower01,foot,cherry01,broom01,battery02b,key01,baseball01a,iron01b,blankImage,blankImage,blankImage,blankImage,blankImage,foot,,,,,,,,,,,,0,70,70,188,,,,,,,,,,,,,,,,,,,,,,,,,,,,,,,,,,,879.4642973999726,880.4751217999728,880.4584078000044,881.0579817999969,881.0579817999969,None,882.4797448999598,None,left,0.39073450001887977,882.4797448999598,None,882.8939586000051,None,right,0.5518051999970339,882.8939586000051,None,,,,,,,,,,,,,,,,,,,,,,,PPT30,001,2022-07-05_12h23.41.314,ABstudy,2022.1.4,59.93403660637168,
AB,Lag1_T1P_T2P,1,P,P,6,7,5,4,11,no parking sign,Did you see the no parking sign?,0.12,0.016,JPG\,fork03c,belt02a,grape01,computerkeyboard02,lemon02,parkingsign,stapler05,toiletpaper01a,toaster01,lipstick02a,book01b,blankImage,blankImage,blankImage,blankImage,blankImage,blankImage,parkingsign,,,,,,,,,,,,0,71,71,47,,,,,,,,,,,,,,,,,,,,,,,,,,,,,,,,,,,883.4824498999515,884.4955903999507,884.478899299982,885.0496647999971,885.0496647999971,None,886.4565641999943,None,left,0.7018784999963827,886.4565641999943,None,887.1814487999654,None,right,0.5288003000314347,887.1814487999654,None,,,,,,,,,,,,,,,,,,,,,,,PPT30,001,2022-07-05_12h23.41.314,ABstudy,2022.1.4,59.93403660637168,
AB,Lag1_T1A_T2P,1,A,P,8,9,7,4,13,nose,Did you see the nose?,0.12,0.016,JPG\,pizza,strawberry,potato02b,speaker04,battery02b,iron01b,dice05a,cellphone,stapler06,banana01,medal02b,baseball01a,toaster01,blankImage,blankImage,blankImage,blankImage,cow,,,,,,,,,,,,0,72,72,231,,,,,,,,,,,,,,,,,,,,,,,,,,,,,,,,,,,887.7450215999852,888.7496493999497,888.7163233999745,889.30113659997,889.30113659997,None,890.921724899963,None,right,9.300516100018285,890.921724899963,None,900.2445477999863,None,right,0.48944810003740713,900.2445477999863,None,,,,,,,,,,,,,,,,,,,,,,,PPT30,001,2022-07-05_12h23.41.314,ABstudy,2022.1.4,59.93403660637168,
AB,Lag5_T1P_T2A,5,P,A,8,13,7,4,17,fountain,Did you see the fountain?,0.12,0.016,JPG\,printer02,envelope03a,potato02b,calculator01,tableknife02,cigarette,ashtray01,parkfountain,broom01,greenolive,candle08b,battery02b,strawberry,candle01,foosballtable,tennisball01b,blankImage,parkfountain,,,,,,,,,,,,0,73,73,219,,,,,,,,,,,,,,,,,,,,,,,,,,,,,,,,,,,900.7643067999743,901.7796035999781,901.746211599966,902.3324262999813,902.3324262999813,None,904.3934236999485,None,left,0.7403306999476627,904.3934236999485,None,905.1661934999865,None,right,0.3438630000455305,905.1661934999865,None,,,,,,,,,,,,,,,,,,,,,,,PPT30,001,2022-07-05_12h23.41.314,ABstudy,2022.1.4,59.93403660637168,
AB,Lag5_T1A_T2P,5,A,P,5,10,4,4,14,duck,Did you see the duck?,0.12,0.016,JPG\,brick,eraser,cucumber,ashtray01,thermometer02b,binoculars01b,lipstick02a,screwdriver04b,grape01,stapler04b,battery02b,iron01b,dice05a,avocado01,blankImage,blankImage,blankImage,barrel01,,,,,,,,,,,,0,74,74,280,,,,,,,,,,,,,,,,,,,,,,,,,,,,,,,,,,,905.5368952999706,906.551038799982,906.5176882999949,907.1310893999762,907.1310893999762,None,908.8431048999773,None,right,0.8273596999933943,908.8431048999773,None,909.6885540999938,None,right,0.4456151999766007,909.6885540999938,None,,,,,,,,,,,,,,,,,,,,,,,PPT30,001,2022-07-05_12h23.41.314,ABstudy,2022.1.4,59.93403660637168,
AB,Lag5_T1P_T2P,5,P,P,7,12,6,4,16,Bird feeder,Did you see the Bird feeder?,0.12,0.016,JPG\,watermelon01,banana01,ring01,pencil01,tomato01,speaker04,birdfeeder,thermometer02b,key01,foosballtable,violin,stapler06,clock04,dice05a,pen04b,mushroom01,blankImage,birdfeeder,,,,,,,,,,,,0,75,75,164,,,,,,,,,,,,,,,,,,,,,,,,,,,,,,,,,,,910.1617346999701,911.1727866999572,911.1571345999837,911.8311316999607,911.745297299989,None,913.6522154999548,None,right,9.770141899993178,913.6522154999548,None,923.4514593999484,None,right,0.6263125000405125,923.4514593999484,None,,,,,,,,,,,,,,,,,,,,,,,PPT30,001,2022-07-05_12h23.41.314,ABstudy,2022.1.4,59.93403660637168,
AB,Lag1_T1P_T2A,1,P,A,7,8,6,3,11,Armadillo,Did you see the Armadillo?,0.12,0.016,JPG\,clock01a,cellphone,toaster01,toothbrush03b,cauliflower01,microscope,armadillo,paintbrush01,scarf,clock04,sponge01,blankImage,blankImage,blankImage,blankImage,blankImage,blankImage,armadillo,,,,,,,,,,,,0,76,76,180,,,,,,,,,,,,,,,,,,,,,,,,,,,,,,,,,,,924.1148801999516,925.1196235999814,925.0863090999774,925.6563271999476,925.6563271999476,None,927.0713105999748,None,left,3.014787400024943,927.0713105999748,None,930.1081106999773,None,right,0.6269046000088565,930.1081106999773,None,,,,,,,,,,,,,,,,,,,,,,,PPT30,001,2022-07-05_12h23.41.314,ABstudy,2022.1.4,59.93403660637168,
AB,Lag5_T1P_T2P,5,P,P,5,10,4,5,15,baseball bat,Did you see the baseball bat?,0.12,0.016,JPG\,pizza,printer02,medal02b,spoon01,baseballbat,lighter01,belt02a,watermelon01,celery,stapler04b,screw02,comb02a,cauliflower01,lipstick02a,potato02b,blankImage,blankImage,baseballbat,,,,,,,,,,,,0,77,77,123,,,,,,,,,,,,,,,,,,,,,,,,,,,,,,,,,,,930.7628672999563,931.7768196999677,931.75943679997,932.3565968999756,932.3565968999756,None,934.1916592999478,None,right,3.9026404000469483,934.1916592999478,None,938.115627799998,None,right,0.5460777999833226,938.115627799998,None,,,,,,,,,,,,,,,,,,,,,,,PPT30,001,2022-07-05_12h23.41.314,ABstudy,2022.1.4,59.93403660637168,
AB,Lag1_T1P_T2P,1,P,P,8,9,7,3,12,Eiffel tower,Did you see the Eiffel tower?,0.12,0.016,JPG\,celery,tennisball01b,calculator01,pear01,screw02,orange,button01,eiffeltower,stapler03b,apple07,iron01b,brownsugar,blankImage,blankImage,blankImage,blankImage,blankImage,eiffeltower,,,,,,,,,,,,0,78,78,40,,,,,,,,,,,,,,,,,,,,,,,,,,,,,,,,,,,938.6897062999778,939.700752899982,939.6840590999927,940.2766839999822,940.2766839999822,None,941.6366597999586,None,left,0.45798539998941123,941.6366597999586,None,942.1196147999726,None,right,0.49409059999743477,942.1196147999726,None,,,,,,,,,,,,,,,,,,,,,,,PPT30,001,2022-07-05_12h23.41.314,ABstudy,2022.1.4,59.93403660637168,
AB,Lag5_T1A_T2P,5,A,P,7,12,6,4,16,scooter,Did you see the scooter?,0.12,0.016,JPG\,cigarette,pig,banana01,strawberry,clock01a,plate01b,spoon01,blueberry01,battery02b,pineapple01a,chain01,stapler05,candy,pen04b,teabag,birthdaycandle,blankImage,1nose,,,,,,,,,,,,0,79,79,268,,,,,,,,,,,,,,,,,,,,,,,,,,,,,,,,,,,942.6816793999751,943.6880244999775,943.6712569999509,944.2567950999946,944.2567950999946,None,946.0745617999928,None,left,3.947340599959716,946.0745617999928,None,950.0446431000018,None,right,0.441384699952323,950.0446431000018,None,,,,,,,,,,,,,,,,,,,,,,,PPT30,001,2022-07-05_12h23.41.314,ABstudy,2022.1.4,59.93403660637168,
AB,Lag5_T1P_T2P,5,P,P,6,11,5,4,15,shovel,Did you see the shovel?,0.12,0.016,JPG\,carrot01,watch02a,clock04,microscope,toiletpaper01a,shovel01,alligator,ring01,brick,watermelon01,stapler03b,pencil01,measuringcup01,balloon01b,computerkeyboard02,blankImage,blankImage,shovel01,,,,,,,,,,,,0,80,80,139,,,,,,,,,,,,,,,,,,,,,,,,,,,,,,,,,,,950.5168231999851,951.5293402999523,951.5125684999512,952.1067578999791,952.1067578999791,None,953.9769065,None,left,5.621185699943453,953.9769065,None,959.6203997999546,None,right,2.761973900021985,959.6203997999546,None,,,,,,,,,,,,,,,,,,,,,,,PPT30,001,2022-07-05_12h23.41.314,ABstudy,2022.1.4,59.93403660637168,
AB,Lag1_T1A_T2P,1,A,P,7,8,6,5,13,Horseshoe,Did you see the Horseshoe?,0.12,0.016,JPG\,leaf02a,apple07,cd,pineapple01a,envelope03a,paintbrush01,pig,stapler06,rice,feather03a,lemon02,balloon01b,avocado01,blankImage,blankImage,blankImage,blankImage,rooster,,,,,,,,,,,,0,81,81,241,,,,,,,,,,,,,,,,,,,,,,,,,,,,,,,,,,,962.4094564999687,963.4242195999832,963.3908243000042,963.9734860999743,963.9734860999743,None,965.5373939999845,None,left,5.484827999956906,965.5373939999845,None,971.0483939999831,None,right,1.357845799997449,971.0483939999831,None,,,,,,,,,,,,,,,,,,,,,,,PPT30,001,2022-07-05_12h23.41.314,ABstudy,2022.1.4,59.93403660637168,
AB,Lag1_T1P_T2P,1,P,P,5,6,4,5,11,football,Did you see the football?,0.12,0.016,JPG\,globe,belt02a,sponge01,violin,soccerball,stapler01,clock01a,microscope,balloon01b,scarf,teabag,blankImage,blankImage,blankImage,blankImage,blankImage,blankImage,soccerball,,,,,,,,,,,,0,82,82,26,,,,,,,,,,,,,,,,,,,,,,,,,,,,,,,,,,,972.4353325999691,973.4508318000007,973.4174569000024,974.0059338999563,974.0059338999563,None,975.3947958999779,None,left,0.7395648999954574,975.3947958999779,None,976.156312099949,None,right,0.385717700002715,976.156312099949,None,,,,,,,,,,,,,,,,,,,,,,,PPT30,001,2022-07-05_12h23.41.314,ABstudy,2022.1.4,59.93403660637168,
AB,Lag5_T1P_T2P,5,P,P,6,11,5,5,16,microwave,Did you see the microwave?,0.12,0.016,JPG\,pen04b,speaker04,lighter01,cherry01,weight04a,microwave,sock01a,toothbrush03b,broom01,sewingmachine01a,stapler06,iron01b,clock01a,sandal,cd,blueberry01,blankImage,microwave,,,,,,,,,,,,0,83,83,136,,,,,,,,,,,,,,,,,,,,,,,,,,,,,,,,,,,976.5752258999855,977.5882564999629,977.5716044000001,978.1483668999863,978.1483668999863,None,980.0722262999625,None,left,0.6857883000047877,980.0722262999625,None,980.7751522999606,None,right,0.49467809998895973,980.7751522999606,None,,,,,,,,,,,,,,,,,,,,,,,PPT30,001,2022-07-05_12h23.41.314,ABstudy,2022.1.4,59.93403660637168,
AB,Lag1_T1A_T2P,1,A,P,5,6,4,3,9,Spider,Did you see the Spider?,0.12,0.016,JPG\,pen04b,speaker04,lighter01,cherry01,8ball,stapler04b,sock01a,toothbrush03b,broom01,blankImage,blankImage,blankImage,blankImage,blankImage,blankImage,blankImage,blankImage,bridge,,,,,,,,,,,,0,84,84,250,,,,,,,,,,,,,,,,,,,,,,,,,,,,,,,,,,,981.2973280999577,982.3094535999699,982.2932585999952,982.8688548999489,982.8688548999489,None,983.9804658999783,None,right,2.1052586999721825,983.9804658999783,None,986.1141016999609,None,right,1.0353182000108063,986.1141016999609,None,,,,,,,,,,,,,,,,,,,,,,,PPT30,001,2022-07-05_12h23.41.314,ABstudy,2022.1.4,59.93403660637168,
AB,Lag5_T1A_T2P,5,A,P,6,11,5,3,14,keys,Did you see the keys?,0.12,0.016,JPG\,pencil01,microscope,banana01,computerkeyboard02,celery,cellphone,scissors01,sock01a,book01b,onion,stapler03a,binoculars01b,baseball01a,iron01b,blankImage,blankImage,blankImage,treadmill,,,,,,,,,,,,0,85,85,275,,,,,,,,,,,,,,,,,,,,,,,,,,,,,,,,,,,987.1847219999763,988.1992268000031,988.165853399958,988.7326590999728,988.7326590999728,None,990.4444807999535,None,right,2.562003099999856,990.4444807999535,None,993.0372279000003,None,right,0.42445150000276044,993.0372279000003,None,,,,,,,,,,,,,,,,,,,,,,,PPT30,001,2022-07-05_12h23.41.314,ABstudy,2022.1.4,59.93403660637168,
AB,Lag1_T1P_T2P,1,P,P,8,9,7,5,14,helicopter,Did you see the helicopter?,0.12,0.016,JPG\,broom01,globe,cellphone,tableknife02,cauliflower01,scissors01,ring01,helicopter,stapler01,toaster01,cigarette,grape01,microscope,cucumber,blankImage,blankImage,blankImage,helicopter,,,,,,,,,,,,0,86,86,85,,,,,,,,,,,,,,,,,,,,,,,,,,,,,,,,,,,993.4900930000003,994.5054475999787,994.4720045999857,995.0373139999574,995.0373139999574,None,996.8058022999903,None,left,0.4964299999992363,996.8058022999903,None,997.3256285999669,None,left,1.608308999973815,997.3256285999669,None,,,,,,,,,,,,,,,,,,,,,,,PPT30,001,2022-07-05_12h23.41.314,ABstudy,2022.1.4,59.93403660637168,
AB,Lag5_T1P_T2P,5,P,P,7,12,6,4,16,Fireplace,Did you see the Fireplace?,0.12,0.016,JPG\,printer02,leaf02a,cauliflower01,sock01a,brownsugar,paintbrush01,fireplace,orange,belt02a,shirt02,key01,stapler01,cigarette,scissors01,envelope03a,blueberry01,blankImage,fireplace,,,,,,,,,,,,0,87,87,88,,,,,,,,,,,,,,,,,,,,,,,,,,,,,,,,,,,998.9675788999884,999.9773873999948,999.9608753999928,1000.5338078999775,1000.5338078999775,None,1002.4988675999921,None,left,1.987155199982226,1002.4988675999921,None,1004.5175367000047,None,right,1.8238901000004262,1004.5175367000047,None,,,,,,,,,,,,,,,,,,,,,,,PPT30,001,2022-07-05_12h23.41.314,ABstudy,2022.1.4,59.93403660637168,
AB,Lag5_T1P_T2P,5,P,P,6,11,5,3,14,ladder,Did you see the ladder?,0.12,0.016,JPG\,celery,orange,scissors01,balloon01b,avocado01,stepladder,mushroom01,sewingmachine01a,lighter01,dice05a,stapler01,fan,cd,sock01a,blankImage,blankImage,blankImage,stepladder,,,,,,,,,,,,0,88,88,119,,,,,,,,,,,,,,,,,,,,,,,,,,,,,,,,,,,1006.3758711999981,1007.384638699994,1007.3679871999775,1007.9770180999767,1007.9770180999767,None,1009.6425605999539,None,left,0.683391600032337,1009.6425605999539,None,1010.3541996999993,None,right,0.4839626000029966,1010.3541996999993,None,,,,,,,,,,,,,,,,,,,,,,,PPT30,001,2022-07-05_12h23.41.314,ABstudy,2022.1.4,59.93403660637168,
AB,Lag5_T1A_T2P,5,A,P,7,12,6,3,15,hockey puck,Did you see the hockey puck?,0.12,0.016,JPG\,toiletpaper01a,lipstick02a,potato02b,speaker04,globe,strawberry,carrot01,plate01b,sock01a,candle08b,pen04b,stapler04b,foosballtable,brick,pear01,blankImage,blankImage,frisbee,,,,,,,,,,,,0,89,89,260,,,,,,,,,,,,,,,,,,,,,,,,,,,,,,,,,,,1010.8618308999576,1011.872723199951,1011.855896699999,1012.4582111999625,1012.4582111999625,None,1014.2922784999828,None,right,7.641130900010467,1014.2922784999828,None,1021.9660577999894,None,right,0.5282234000042081,1021.9660577999894,None,,,,,,,,,,,,,,,,,,,,,,,PPT30,001,2022-07-05_12h23.41.314,ABstudy,2022.1.4,59.93403660637168,
AB,Lag1_T1P_T2P,1,P,P,7,8,6,3,11,Sand castle,Did you see the Sand castle?,0.12,0.016,JPG\,thermometer02b,candle08b,comb02a,toothbrush03b,brick,computerkeyboard02,sandcastle,stapler06,candy,birthdaycandle,clock04,blankImage,blankImage,blankImage,blankImage,blankImage,blankImage,sandcastle,,,,,,,,,,,,0,90,90,70,,,,,,,,,,,,,,,,,,,,,,,,,,,,,,,,,,,1022.5231554999482,1023.5342016999493,1023.5176402999787,1024.0876382999704,1024.0876382999704,None,1025.4218793999753,None,right,11.583368899999186,1025.4218793999753,None,1037.031191899965,None,left,1.0547161999857053,1037.031191899965,None,,,,,,,,,,,,,,,,,,,,,,,PPT30,001,2022-07-05_12h23.41.314,ABstudy,2022.1.4,59.93403660637168,
AB,Lag5_T1P_T2P,5,P,P,5,10,4,4,14,Christmas lights,Did you see the Christmas lights?,0.12,0.016,JPG\,binoculars01b,cymbal,pizza,candy,christmaslights,sponge01,grape01,thermometer02b,speaker04,stapler03a,lipstick02a,strawberry,candle01,tambourine02,blankImage,blankImage,blankImage,christmaslights,,,,,,,,,,,,0,91,91,168,,,,,,,,,,,,,,,,,,,,,,,,,,,,,,,,,,,1038.1220808999497,1039.133068999974,1039.1165526999976,1039.6864926999551,1039.6864926999551,None,1041.4683655999834,None,left,0.6811212000320666,1041.4683655999834,None,1042.170477299951,None,right,0.6672786999843083,1042.170477299951,None,,,,,,,,,,,,,,,,,,,,,,,PPT30,001,2022-07-05_12h23.41.314,ABstudy,2022.1.4,59.93403660637168,
AB,Lag5_T1P_T2P,5,P,P,5,10,4,5,15,Bee,Did you see the Bee?,0.12,0.016,JPG\,fork03c,dandelion,dice05a,belt02a,honeybee,watch02a,key01,globe,eraser,stapler03a,greenolive,shirt02,candle08b,cigarette,garlic01a,blankImage,blankImage,honeybee,,,,,,,,,,,,0,92,92,149,,,,,,,,,,,,,,,,,,,,,,,,,,,,,,,,,,,1042.8753229999566,1043.8879404999898,1043.8712113999645,1044.44210559997,1044.44210559997,None,1046.2472235999885,None,left,0.43811489996733144,1046.2472235999885,None,1046.7070540999994,None,right,0.46649730001809075,1046.7070540999994,None,,,,,,,,,,,,,,,,,,,,,,,PPT30,001,2022-07-05_12h23.41.314,ABstudy,2022.1.4,59.93403660637168,
AB,Lag1_T1P_T2P,1,P,P,6,7,5,4,11,cash register,Did you see the cash register?,0.12,0.016,JPG\,leaf02a,apple07,cd,pineapple01a,envelope03a,cashregister01,stapler03b,8ball,rice,feather03a,lemon02,blankImage,blankImage,blankImage,blankImage,blankImage,blankImage,cashregister01,,,,,,,,,,,,0,93,93,79,,,,,,,,,,,,,,,,,,,,,,,,,,,,,,,,,,,1047.1942739999504,1048.2086190999835,1048.1919210999622,1048.8239357999992,1048.7514690999524,None,1050.080972799973,None,left,4.132195400015917,1050.080972799973,None,1054.231604999979,None,right,0.7817825999809429,1054.231604999979,None,,,,,,,,,,,,,,,,,,,,,,,PPT30,001,2022-07-05_12h23.41.314,ABstudy,2022.1.4,59.93403660637168,
AB,Lag5_T1A_T2P,5,A,P,6,11,5,5,16,baseball bat,Did you see the baseball bat?,0.12,0.016,JPG\,avocado01,aceofdiamond,match,cauliflower01,paintbrush01,clock01a,pig,cd,balloon01b,cellphone,stapler01,pear01,toaster01,sponge01,orange,blueberry01,blankImage,stool01,,,,,,,,,,,,0,94,94,273,,,,,,,,,,,,,,,,,,,,,,,,,,,,,,,,,,,1055.0347355999984,1056.050040699949,1056.0168027000036,1056.618320599955,1056.618320599955,None,1058.608819499961,None,right,0.9411140999873169,1058.608819499961,None,1059.5705435999553,None,right,0.5314684000331908,1059.5705435999553,None,,,,,,,,,,,,,,,,,,,,,,,PPT30,001,2022-07-05_12h23.41.314,ABstudy,2022.1.4,59.93403660637168,
AB,Lag1_T1A_T2P,1,A,P,6,7,5,3,10,curtain,Did you see the curtain?,0.12,0.016,JPG\,carrot01,greenolive,fork03c,chain01,ashtray01,watermelon01,stapler06,printer02,comb02a,toaster01,blankImage,blankImage,blankImage,blankImage,blankImage,blankImage,blankImage,birdhouse,,,,,,,,,,,,0,95,95,249,,,,,,,,,,,,,,,,,,,,,,,,,,,,,,,,,,,1060.1244547999813,1061.1382413999527,1061.1215631999657,1061.7033107999596,1061.7033107999596,None,1063.0240919999778,None,right,5.990428699995391,1063.0240919999778,None,1069.0459519999567,None,right,0.4955873999861069,1069.0459519999567,None,,,,,,,,,,,,,,,,,,,,,,,PPT30,001,2022-07-05_12h23.41.314,ABstudy,2022.1.4,59.93403660637168,
AB,Lag5_T1A_T2P,5,A,P,7,12,6,4,16,flower,Did you see the flower?,0.12,0.016,JPG\,printer02,envelope03a,potato02b,calculator01,tableknife02,cigarette,ashtray01,pig,broom01,greenolive,candle08b,stapler03a,strawberry,candle01,foosballtable,tennisball01b,blankImage,calendar,,,,,,,,,,,,0,96,96,282,,,,,,,,,,,,,,,,,,,,,,,,,,,,,,,,,,,1069.566154,1070.580840999959,1070.5474673999706,1071.1483323999564,1071.1483323999564,None,1073.1266115999897,None,right,0.5510811000131071,1073.1266115999897,None,1073.7006718999473,None,right,0.5364725000108592,1073.7006718999473,None,,,,,,,,,,,,,,,,,,,,,,,PPT30,001,2022-07-05_12h23.41.314,ABstudy,2022.1.4,59.93403660637168,
AB,Lag1_T1P_T2A,1,P,A,8,9,7,5,14,Parrot,Did you see the Parrot?,0.12,0.016,JPG\,candy,brownsugar,dice05a,cd,sock01a,blueberry01,button01,parrot01,feather03a,grape01,dandelion,scissors01,watch02a,candle08b,blankImage,blankImage,blankImage,parrot01,,,,,,,,,,,,0,97,97,192,,,,,,,,,,,,,,,,,,,,,,,,,,,,,,,,,,,1074.2679117999505,1075.269102499995,1075.2523401999497,1075.8686072999844,1075.8686072999844,None,1077.5649808999733,None,left,3.161388000007719,1077.5649808999733,None,1080.7576165999635,None,right,0.5196664999821223,1080.7576165999635,None,,,,,,,,,,,,,,,,,,,,,,,PPT30,001,2022-07-05_12h23.41.314,ABstudy,2022.1.4,59.93403660637168,
AB,Lag1_T1P_T2A,1,P,A,7,8,6,4,12,gorilla,Did you see the gorilla?,0.12,0.016,JPG\,scissors01,ashtray01,garlic01a,medal02b,cigarette,candle08b,gorilla,envelope03a,cucumber,rice,toiletpaper01a,greenolive,blankImage,blankImage,blankImage,blankImage,blankImage,gorilla,,,,,,,,,,,,0,98,98,189,,,,,,,,,,,,,,,,,,,,,,,,,,,,,,,,,,,1081.3103913999512,1082.325876399991,1082.2924887999543,1082.868589599966,1082.868589599966,None,1084.360029399977,None,left,2.7819467000081204,1084.360029399977,None,1087.1645679999492,None,right,1.177231500041671,1087.1645679999492,None,,,,,,,,,,,,,,,,,,,,,,,PPT30,001,2022-07-05_12h23.41.314,ABstudy,2022.1.4,59.93403660637168,
AB,Lag5_T1P_T2P,5,P,P,8,13,7,5,18,skis,Did you see the skis?,0.12,0.016,JPG\,tennisball01b,paintbrush01,medal02b,apple07,speaker04,iron01b,avocado01,downhillski,belt02a,toiletpaper01a,watermelon01,candle01,stapler01,cymbal,ashtray01,screwdriver04b,blankImage,downhillski,,,,,,,,,,,,0,99,99,106,,,,,,,,,,,,,,,,,,,,,,,,,,,,,,,,,,,1088.36867419997,1089.383133299998,1089.3497194999945,1089.9542669999646,1089.9542669999646,None,1091.8642041999847,None,right,0.9968557999818586,1091.8642041999847,None,1092.8867742999573,None,right,0.8322672000504099,1092.8867742999573,None,,,,,,,,,,,,,,,,,,,,,,,PPT30,001,2022-07-05_12h23.41.314,ABstudy,2022.1.4,59.93403660637168,
AB,Lag1_T1P_T2P,1,P,P,7,8,6,5,13,arrow,Did you see the arrow?,0.12,0.016,JPG\,pencil01,broccoli01a,button01,sponge01,watermelon01,lipstick02a,arrow02,stapler04b,lighter01,sock01a,spoon01,blueberry01,belt02a,blankImage,blankImage,blankImage,blankImage,arrow02,,,,,,,,,,,,0,100,100,76,,,,,,,,,,,,,,,,,,,,,,,,,,,,,,,,,,,1093.7429775999626,1094.7552276999922,1094.7385688999784,1095.310430399957,1095.310430399957,None,1096.8719216999598,None,right,0.6936257000197656,1096.8719216999598,None,1097.59126799996,None,right,0.543369100021664,1097.59126799996,None,,,,,,,,,,,,,,,,,,,,,,,PPT30,001,2022-07-05_12h23.41.314,ABstudy,2022.1.4,59.93403660637168,
AB,Lag5_T1P_T2A,5,P,A,8,13,7,3,16,Shelves,Did you see the Shelves?,0.12,0.016,JPG\,pineapple01a,leaf02a,grape01,toiletpaper01a,match,tennisball01b,spoon01,shelves,pig,measuringcup01,ring01,lemon02,dice05a,pizza,potato02b,eraser,blankImage,shelves,,,,,,,,,,,,0,101,101,222,,,,,,,,,,,,,,,,,,,,,,,,,,,,,,,,,,,1098.1609344999888,1099.1759540999774,1099.1426304999623,1099.7453523000004,1099.7453523000004,None,1101.6838759999955,None,right,6.426063599996269,1101.6838759999955,None,1108.1352251999779,None,right,0.46977319999132305,1108.1352251999779,None,,,,,,,,,,,,,,,,,,,,,,,PPT30,001,2022-07-05_12h23.41.314,ABstudy,2022.1.4,59.93403660637168,
AB,Lag5_T1P_T2A,5,P,A,5,10,4,3,13,Totem Pole,Did you see the Totem Pole?,0.12,0.016,JPG\,canoftennisballs,banana01,scissors01,pig,totempole,leaf02a,pear01,sponge01,fork03c,tableknife02,balloon01b,match,toothbrush03b,blankImage,blankImage,blankImage,blankImage,totempole,,,,,,,,,,,,0,102,102,202,,,,,,,,,,,,,,,,,,,,,,,,,,,,,,,,,,,1108.6414079999668,1109.6532654999755,1109.6365177999833,1110.227645499981,1110.227645499981,None,1111.767321499996,None,right,7.4617177999462,1111.767321499996,None,1119.2463558999589,None,right,0.5429339000256732,1119.2463558999589,None,,,,,,,,,,,,,,,,,,,,,,,PPT30,001,2022-07-05_12h23.41.314,ABstudy,2022.1.4,59.93403660637168,
AB,Lag1_T1P_T2A,1,P,A,7,8,6,4,12,gate,Did you see the gate?,0.12,0.016,JPG\,pen04b,speaker04,lighter01,cherry01,pintofbeer,onion,entrancegate,toothbrush03b,broom01,sewingmachine01a,book01b,iron01b,blankImage,blankImage,blankImage,blankImage,blankImage,entrancegate,,,,,,,,,,,,0,103,103,187,,,,,,,,,,,,,,,,,,,,,,,,,,,,,,,,,,,1119.8726828999934,1120.8811751999892,1120.8476566000027,1121.4336823999765,1121.4336823999765,None,1122.8348463999573,None,left,0.7301267000148073,1122.8348463999573,None,1123.5839841999696,None,right,0.5580212000058964,1123.5839841999696,None,,,,,,,,,,,,,,,,,,,,,,,PPT30,001,2022-07-05_12h23.41.314,ABstudy,2022.1.4,59.93403660637168,
AB,Lag1_T1P_T2P,1,P,P,6,7,5,3,10,jelly beans,Did you see the jelly beans?,0.12,0.016,JPG\,lipstick02a,cucumber,candle08b,printer02,grape01,jellybean,stapler01,lighter01,belt02a,balloon01b,blankImage,blankImage,blankImage,blankImage,blankImage,blankImage,blankImage,jellybean,,,,,,,,,,,,0,104,104,15,,,,,,,,,,,,,,,,,,,,,,,,,,,,,,,,,,,1124.174223399954,1125.1854429999948,1125.1686180999968,1125.7473821999738,1125.7473821999738,None,1126.9445835999795,None,left,0.6046648999908939,1126.9445835999795,None,1127.5706098999945,None,right,0.8115869999746792,1127.5706098999945,None,,,,,,,,,,,,,,,,,,,,,,,PPT30,001,2022-07-05_12h23.41.314,ABstudy,2022.1.4,59.93403660637168,
AB,Lag1_T1P_T2P,1,P,P,5,6,4,3,9,Escalator,Did you see the Escalator?,0.12,0.016,JPG\,celery,pencil01,fan,foosballtable,escalator,stapler05,potato02b,fork03c,button01,blankImage,blankImage,blankImage,blankImage,blankImage,blankImage,blankImage,blankImage,escalator,,,,,,,,,,,,0,105,105,82,,,,,,,,,,,,,,,,,,,,,,,,,,,,,,,,,,,1128.4779104999616,1129.4896339999977,1129.4729454999906,1130.0573538999888,1130.0573538999888,None,1131.1210521999747,None,left,1.05270440003369,1131.1210521999747,None,1132.1921857999987,None,right,0.9886665000231005,1132.1921857999987,None,,,,,,,,,,,,,,,,,,,,,,,PPT30,001,2022-07-05_12h23.41.314,ABstudy,2022.1.4,59.93403660637168,
AB,Lag1_T1P_T2P,1,P,P,5,6,4,5,11,beaver,Did you see the beaver?,0.12,0.016,JPG\,belt02a,sunglasses04,computerkeyboard02,cherry01,beaver,stapler03a,watch02a,dice05a,blueberry01,spoon01,match,blankImage,blankImage,blankImage,blankImage,blankImage,blankImage,beaver,,,,,,,,,,,,0,106,106,55,,,,,,,,,,,,,,,,,,,,,,,,,,,,,,,,,,,1133.2130453999853,1134.211521399964,1134.195829299977,1134.7909372999566,1134.7909372999566,None,1136.1925052999868,None,left,3.6930984999635257,1136.1925052999868,None,1139.9165321000037,None,right,0.6485874999780208,1139.9165321000037,None,,,,,,,,,,,,,,,,,,,,,,,PPT30,001,2022-07-05_12h23.41.314,ABstudy,2022.1.4,59.93403660637168,
AB,Lag1_T1P_T2P,1,P,P,6,7,5,3,10,cupcake,Did you see the cupcake?,0.12,0.016,JPG\,printer02,leaf02a,cauliflower01,sock01a,brownsugar,cupcake,stapler01,orange,belt02a,shirt02,blankImage,blankImage,blankImage,blankImage,blankImage,blankImage,blankImage,cupcake,,,,,,,,,,,,0,107,107,38,,,,,,,,,,,,,,,,,,,,,,,,,,,,,,,,,,,1140.5969964999822,1141.6018915000022,1141.5684057999752,1142.15477069997,1142.15477069997,None,1143.3804173999815,None,left,1.4244020999758504,1143.3804173999815,None,1144.8213540999568,None,right,0.5521842000307515,1144.8213540999568,None,,,,,,,,,,,,,,,,,,,,,,,PPT30,001,2022-07-05_12h23.41.314,ABstudy,2022.1.4,59.93403660637168,
AB,Lag5_T1P_T2P,5,P,P,5,10,4,4,14,bell,Did you see the bell?,0.12,0.016,JPG\,teabag,envelope03a,cellphone,apple07,callbell,orange,brownsugar,book01b,hammer01,stapler03b,toaster01,calculator01,globe,battery02b,blankImage,blankImage,blankImage,callbell,,,,,,,,,,,,0,108,108,147,,,,,,,,,,,,,,,,,,,,,,,,,,,,,,,,,,,1145.4075948999962,1146.4229644999723,1146.3895790999522,1146.9809815000044,1146.9809815000044,None,1148.7001874999842,None,left,3.9126986999763176,1148.7001874999842,None,1152.6457107999595,None,right,0.5521652000024915,1152.6457107999595,None,,,,,,,,,,,,,,,,,,,,,,,PPT30,001,2022-07-05_12h23.41.314,ABstudy,2022.1.4,59.93403660637168,
AB,Lag1_T1P_T2P,1,P,P,8,9,7,3,12,cactus,Did you see the cactus?,0.12,0.016,JPG\,tennisball01b,paintbrush01,medal02b,apple07,speaker04,iron01b,avocado01,cactus,stapler03b,toiletpaper01a,watermelon01,candle01,blankImage,blankImage,blankImage,blankImage,blankImage,cactus,,,,,,,,,,,,0,109,109,58,,,,,,,,,,,,,,,,,,,,,,,,,,,,,,,,,,,1153.2320377999567,1154.2473081999924,1154.2139010999817,1154.7974914999795,1154.7974914999795,None,1156.2833721999777,None,left,4.825440299988259,1156.2833721999777,None,1161.1374633999658,None,right,0.4518337000044994,1161.1374633999658,None,,,,,,,,,,,,,,,,,,,,,,,PPT30,001,2022-07-05_12h23.41.314,ABstudy,2022.1.4,59.93403660637168,
AB,Lag5_T1P_T2P,5,P,P,8,13,7,5,18,pipe,Did you see the pipe?,0.12,0.016,JPG\,scissors01,ashtray01,garlic01a,medal02b,cigarette,candle08b,leaf02a,smokingpipe,cucumber,rice,toiletpaper01a,greenolive,stapler01,cellphone,tableknife02,spoon01,blankImage,smokingpipe,,,,,,,,,,,,0,110,110,138,,,,,,,,,,,,,,,,,,,,,,,,,,,,,,,,,,,1161.6274413999636,1162.6394015999977,1162.6228567999788,1163.1984142999863,1163.1984142999863,None,1165.1662698999862,None,right,7.4157862000283785,1165.1662698999862,None,1172.5990850999951,None,right,0.46996880002552643,1172.5990850999951,None,,,,,,,,,,,,,,,,,,,,,,,PPT30,001,2022-07-05_12h23.41.314,ABstudy,2022.1.4,59.93403660637168,
AB,Lag5_T1P_T2P,5,P,P,6,11,5,5,16,Car,Did you see the Car?,0.12,0.016,JPG\,leaf02a,apple07,cd,pineapple01a,envelope03a,car,pig,canoftennisballs,rice,feather03a,stapler03a,balloon01b,avocado01,calculator01,watermelon01,teabag,blankImage,car,,,,,,,,,,,,0,111,111,127,,,,,,,,,,,,,,,,,,,,,,,,,,,,,,,,,,,1173.1018137999927,1174.1172580999555,1174.083881700004,1174.6608173999703,1174.6608173999703,None,1176.6097642999957,None,left,0.4512236000155099,1176.6097642999957,None,1177.0872867999715,None,right,0.6939901000005193,1177.0872867999715,None,,,,,,,,,,,,,,,,,,,,,,,PPT30,001,2022-07-05_12h23.41.314,ABstudy,2022.1.4,59.93403660637168,
AB,Lag1_T1P_T2P,1,P,P,6,7,5,3,10,Pool table,Did you see the Pool table?,0.12,0.016,JPG\,tomato01,pen04b,shirt02,carrot01,lamp04a,pooltable,stapler06,avocado01,sewingmachine01a,apple07,blankImage,blankImage,blankImage,blankImage,blankImage,blankImage,blankImage,pooltable,,,,,,,,,,,,0,112,112,29,,,,,,,,,,,,,,,,,,,,,,,,,,,,,,,,,,,1177.8112126999767,1178.8221847999957,1178.805442199984,1179.4184300999623,1179.4184300999623,None,1180.639769500005,None,left,6.21380849997513,1180.639769500005,None,1186.879737499985,None,right,1.3254366000182927,1186.879737499985,None,,,,,,,,,,,,,,,,,,,,,,,PPT30,001,2022-07-05_12h23.41.314,ABstudy,2022.1.4,59.93403660637168,
AB,Lag1_T1P_T2P,1,P,P,6,7,5,5,12,bat,Did you see the bat?,0.12,0.016,JPG\,comb02a,key01,medal02b,battery02b,lighter01,bat,stapler05,sandal,pig,cellphone,computerkeyboard02,calculator01,blankImage,blankImage,blankImage,blankImage,blankImage,bat,,,,,,,,,,,,0,113,113,35,,,,,,,,,,,,,,,,,,,,,,,,,,,,,,,,,,,1188.244302099978,1189.2488006999483,1189.2154194999603,1189.791001799982,1189.791001799982,None,1191.2578259999864,None,left,6.467717699997593,1191.2578259999864,None,1197.7575561999693,None,right,0.7603077999665402,1197.7575561999693,None,,,,,,,,,,,,,,,,,,,,,,,PPT30,001,2022-07-05_12h23.41.314,ABstudy,2022.1.4,59.93403660637168,
AB,Lag1_T1P_T2P,1,P,P,8,9,7,5,14,Waterfall,Did you see the Waterfall?,0.12,0.016,JPG\,pizza,watch02a,greenolive,cucumber,match,violin,scissors01,waterfall,stapler03a,cherry01,ring01,cigarette,microscope,cellphone,blankImage,blankImage,blankImage,waterfall,,,,,,,,,,,,0,114,114,52,,,,,,,,,,,,,,,,,,,,,,,,,,,,,,,,,,,1198.5442693999503,1199.559621399967,1199.5261751999496,1200.1168459999608,1200.1168459999608,None,1201.8251148999552,None,left,0.3802955000428483,1201.8251148999552,None,1202.2296953999903,None,right,0.49517719994764775,1202.2296953999903,None,,,,,,,,,,,,,,,,,,,,,,,PPT30,001,2022-07-05_12h23.41.314,ABstudy,2022.1.4,59.93403660637168,
AB,Lag5_T1P_T2P,5,P,P,8,13,7,5,18,Ping pong Table,Did you see the Ping pong Table?,0.12,0.016,JPG\,shirt02,match,screw02,foosballtable,blueberry01,pineapple01a,sewingmachine01a,pingpongtable,button01,comb02a,dice05a,measuringcup01,stapler04b,printer02,carrot01,watermelon01,blankImage,pingpongtable,,,,,,,,,,,,0,115,115,152,,,,,,,,,,,,,,,,,,,,,,,,,,,,,,,,,,,1202.7549879999715,1203.7638072999544,1203.7470509999548,1204.3569049999933,1204.3569049999933,None,1206.2518264999962,None,left,0.6493711000075564,1206.2518264999962,None,1206.933484899986,None,right,0.5436304999748245,1206.933484899986,None,,,,,,,,,,,,,,,,,,,,,,,PPT30,001,2022-07-05_12h23.41.314,ABstudy,2022.1.4,59.93403660637168,
AB,Lag1_T1A_T2P,1,A,P,7,8,6,3,11,lion,Did you see the lion?,0.12,0.016,JPG\,sock01a,spoon01,alligator,comb02a,printer02,medal02b,lamp04a,stapler01,greenolive,computerkeyboard02,cauliflower01,blankImage,blankImage,blankImage,blankImage,blankImage,blankImage,bullet,,,,,,,,,,,,0,116,116,229,,,,,,,,,,,,,,,,,,,,,,,,,,,,,,,,,,,1207.569544399972,1208.5850884999963,1208.5516916999477,1209.1579563999549,1209.1579563999549,None,1210.4262901999755,None,left,1.306635599990841,1210.4262901999755,None,1211.7551077999524,None,right,0.873926600033883,1211.7551077999524,None,,,,,,,,,,,,,,,,,,,,,,,PPT30,001,2022-07-05_12h23.41.314,ABstudy,2022.1.4,59.93403660637168,
AB,Lag5_T1P_T2P,5,P,P,7,12,6,3,15,mail box,Did you see the mail box?,0.12,0.016,JPG\,key01,apple07,ring01,leaf02a,hammer01,tableknife02,postalmailbox01,sponge01,baseball01a,thermometer02b,celery,stapler06,grape01,cucumber,tennisball01b,blankImage,blankImage,postalmailbox01,,,,,,,,,,,,0,117,117,113,,,,,,,,,,,,,,,,,,,,,,,,,,,,,,,,,,,1212.6619686999475,1213.6735138999647,1213.6568043999723,1214.2352731999708,1214.2352731999708,None,1216.030340199999,None,left,0.6065863999538124,1216.030340199999,None,1216.6592373999883,None,right,0.570044299995061,1216.6592373999883,None,,,,,,,,,,,,,,,,,,,,,,,PPT30,001,2022-07-05_12h23.41.314,ABstudy,2022.1.4,59.93403660637168,
AB,Lag5_T1P_T2P,5,P,P,6,11,5,4,15,fish,Did you see the fish?,0.12,0.016,JPG\,sock01a,spoon01,alligator,comb02a,printer02,rockbass,lamp04a,cymbal,greenolive,computerkeyboard02,stapler03a,scarf,teabag,watermelon01,battery02b,blankImage,blankImage,rockbass,,,,,,,,,,,,0,118,118,115,,,,,,,,,,,,,,,,,,,,,,,,,,,,,,,,,,,1217.339383499988,1218.3449076999677,1218.328332199948,1218.9335028999485,1218.9335028999485,None,1220.6859577999567,None,left,0.4792505000368692,1220.6859577999567,None,1221.1974488999695,None,right,0.3525108000030741,1221.1974488999695,None,,,,,,,,,,,,,,,,,,,,,,,PPT30,001,2022-07-05_12h23.41.314,ABstudy,2022.1.4,59.93403660637168,
AB,Lag1_T1P_T2P,1,P,P,6,7,5,3,10,spider web,Did you see the spider web?,0.12,0.016,JPG\,toaster01,chain01,sponge01,baseball01a,carrot01,spiderweb,stapler03b,iron01b,grape01,brick,blankImage,blankImage,blankImage,blankImage,blankImage,blankImage,blankImage,spiderweb,,,,,,,,,,,,0,119,119,72,,,,,,,,,,,,,,,,,,,,,,,,,,,,,,,,,,,1221.5831531999866,1222.582333999977,1222.5656541999779,1223.154639699962,1223.154639699962,None,1224.4767316999496,None,right,9.999848100007512,1224.4767316999496,None,1234.494010299968,None,left,0.3745956999482587,1234.494010299968,None,,,,,,,,,,,,,,,,,,,,,,,PPT30,001,2022-07-05_12h23.41.314,ABstudy,2022.1.4,59.93403660637168,
AB,Lag1_T1P_T2P,1,P,P,5,6,4,5,11,candy cane,Did you see the candy cane?,0.12,0.016,JPG\,shirt02,match,screw02,foosballtable,candycane01a,stapler04b,sewingmachine01a,watch02a,button01,comb02a,dice05a,blankImage,blankImage,blankImage,blankImage,blankImage,blankImage,candycane01a,,,,,,,,,,,,0,120,120,9,,,,,,,,,,,,,,,,,,,,,,,,,,,,,,,,,,,1234.8967984999763,1235.912092399958,1235.8787597999908,1236.5079287999542,1236.5079287999542,None,1237.7926046999637,None,left,1.0363269000081345,1237.7926046999637,None,1238.8487561999937,None,right,0.34794479998527095,1238.8487561999937,None,,,,,,,,,,,,,,,,,,,,,,,PPT30,001,2022-07-05_12h23.41.314,ABstudy,2022.1.4,59.93403660637168,
AB,Lag1_T1P_T2A,1,P,A,7,8,6,5,13,Well,Did you see the Well?,0.12,0.016,JPG\,leaf02a,apple07,cd,pineapple01a,envelope03a,paintbrush01,well,acorn,rice,feather03a,lemon02,balloon01b,avocado01,blankImage,blankImage,blankImage,blankImage,well,,,,,,,,,,,,0,121,121,178,,,,,,,,,,,,,,,,,,,,,,,,,,,,,,,,,,,1239.2184010999626,1240.2332844999619,1240.199848499964,1240.8175709999632,1240.8175709999632,None,1242.4355036999914,None,right,15.617050800006837,1242.4355036999914,None,1258.084691600001,None,right,1.0557082000304945,1258.084691600001,None,,,,,,,,,,,,,,,,,,,,,,,PPT30,001,2022-07-05_12h23.41.314,ABstudy,2022.1.4,59.93403660637168,
AB,Lag5_T1P_T2A,5,P,A,8,13,7,4,17,Drum set,Did you see the Drum set?,0.12,0.016,JPG\,pencil01,microscope,banana01,computerkeyboard02,celery,cellphone,scissors01,drumset,book01b,onion,dice05a,binoculars01b,baseball01a,iron01b,screw02,fork03c,blankImage,drumset,,,,,,,,,,,,0,122,122,212,,,,,,,,,,,,,,,,,,,,,,,,,,,,,,,,,,,1259.174646599975,1260.1861943999538,1260.1700455999817,1260.7625363999978,1260.7625363999978,None,1262.674318299978,None,left,2.1315076999599114,1262.674318299978,None,1264.8241584999487,None,right,2.3093214000109583,1264.8241584999487,None,,,,,,,,,,,,,,,,,,,,,,,PPT30,001,2022-07-05_12h23.41.314,ABstudy,2022.1.4,59.93403660637168,
AB,Lag5_T1P_T2P,5,P,P,7,12,6,3,15,Rollerblade,Did you see the Rollerblade?,0.12,0.016,JPG\,hammer01,sponge01,toaster01,cherry01,feather03a,mushroom01,rollerblade,pencil01,tennisball01b,brick,clock04,stapler06,teabag,garlic01a,envelope03a,blankImage,blankImage,rollerblade,,,,,,,,,,,,0,123,123,116,,,,,,,,,,,,,,,,,,,,,,,,,,,,,,,,,,,1267.1651722999522,1268.1778362999903,1268.1612710999907,1268.7379279999877,1268.7379279999877,None,1270.5945077999495,None,left,0.6104623000137508,1270.5945077999495,None,1271.230965099996,None,right,0.30288709996966645,1271.230965099996,None,,,,,,,,,,,,,,,,,,,,,,,PPT30,001,2022-07-05_12h23.41.314,ABstudy,2022.1.4,59.93403660637168,
AB,Lag1_T1P_T2P,1,P,P,7,8,6,5,13,tiger,Did you see the tiger?,0.12,0.016,JPG\,globe,broccoli01a,binoculars01b,iron01b,avocado01,dandelion,tiger02,stapler03b,fan,pizza,celery,blueberry01,sewingmachine01a,blankImage,blankImage,blankImage,blankImage,tiger02,,,,,,,,,,,,0,124,124,50,,,,,,,,,,,,,,,,,,,,,,,,,,,,,,,,,,,1271.5678838999593,1272.582108100003,1272.565386399976,1273.1622551999753,1273.1622551999753,None,1274.7210764999618,None,left,0.7238590000197291,1274.7210764999618,None,1275.4685641999822,None,right,0.7924917999771424,1275.4685641999822,None,,,,,,,,,,,,,,,,,,,,,,,PPT30,001,2022-07-05_12h23.41.314,ABstudy,2022.1.4,59.93403660637168,
AB,Lag1_T1A_T2A,1,A,A,6,7,5,5,12,Safe,Did you see the Safe?,0.12,0.016,JPG\,hammer01,sponge01,toaster01,cherry01,feather03a,mushroom01,measuringcup01,pencil01,tennisball01b,brick,clock04,medal02b,blankImage,blankImage,blankImage,blankImage,blankImage,downhillski,,,,,,,,,,,,0,125,125,294,,,,,,,,,,,,,,,,,,,,,,,,,,,,,,,,,,,1276.2924800000037,1277.3036261999514,1277.286863199959,1277.8521154999617,1277.8521154999617,None,1279.3504860999528,None,left,9.774858099990524,1279.3504860999528,None,1289.1488213999546,None,right,0.4314535000012256,1289.1488213999546,None,,,,,,,,,,,,,,,,,,,,,,,PPT30,001,2022-07-05_12h23.41.314,ABstudy,2022.1.4,59.93403660637168,
AB,Lag1_T1A_T2P,1,A,P,6,7,5,5,12,Ostrich,Did you see the Ostrich?,0.12,0.016,JPG\,thermometer02b,candle08b,comb02a,toothbrush03b,brick,computerkeyboard02,stapler05,pineapple01a,candy,birthdaycandle,clock04,hairclip03,blankImage,blankImage,blankImage,blankImage,blankImage,discoball,,,,,,,,,,,,0,126,126,232,,,,,,,,,,,,,,,,,,,,,,,,,,,,,,,,,,,1289.6060004999745,1290.616893199971,1290.600248899951,1291.192455399956,1291.192455399956,None,1292.6518631999497,None,right,3.160451700037811,1292.6518631999497,None,1295.8384164999588,None,right,1.48670220002532,1295.8384164999588,None,,,,,,,,,,,,,,,,,,,,,,,PPT30,001,2022-07-05_12h23.41.314,ABstudy,2022.1.4,59.93403660637168,
AB,Lag1_T1A_T2P,1,A,P,6,7,5,3,10,Jellyfish,Did you see the Jellyfish?,0.12,0.016,JPG\,thermometer02b,avocado01,scissors01,tennisball01b,medal02b,banana01,stapler01,cigarette,potato02b,pineapple01a,blankImage,blankImage,blankImage,blankImage,blankImage,blankImage,blankImage,firehydrant,,,,,,,,,,,,0,127,127,255,,,,,,,,,,,,,,,,,,,,,,,,,,,,,,,,,,,1297.4030514999758,1298.407710200001,1298.3910317999544,1298.9661953999894,1298.9661953999894,None,1300.155225399998,None,right,2.801199399982579,1300.155225399998,None,1302.978842499957,None,right,1.0104890000075102,1302.978842499957,None,,,,,,,,,,,,,,,,,,,,,,,PPT30,001,2022-07-05_12h23.41.314,ABstudy,2022.1.4,59.93403660637168,
AB,Lag1_T1P_T2P,1,P,P,8,9,7,3,12,Sheep,Did you see the Sheep?,0.12,0.016,JPG\,celery,orange,scissors01,balloon01b,avocado01,printer02,mushroom01,sheep,stapler03b,dice05a,ashtray01,fan,blankImage,blankImage,blankImage,blankImage,blankImage,sheep,,,,,,,,,,,,0,128,128,71,,,,,,,,,,,,,,,,,,,,,,,,,,,,,,,,,,,1304.0154351999518,1305.0308792999713,1304.9975264999666,1305.572780699993,1305.572780699993,None,1307.033294199966,None,left,0.587594699987676,1307.033294199966,None,1307.6498714999761,None,right,2.8270606999867596,1307.6498714999761,None,,,,,,,,,,,,,,,,,,,,,,,PPT30,001,2022-07-05_12h23.41.314,ABstudy,2022.1.4,59.93403660637168,
AB,Lag1_T1P_T2P,1,P,P,5,6,4,3,9,elephant,Did you see the elephant?,0.12,0.016,JPG\,celery,brownsugar,key01,sunglasses04,arugula,stapler04b,dice05a,tennisball01b,scarf,blankImage,blankImage,blankImage,blankImage,blankImage,blankImage,blankImage,blankImage,arugula,,,,,,,,,,,,0,129,129,54,,,,,,,,,,,,,,,,,,,,,,,,,,,,,,,,,,,1310.562057300005,1311.571066399978,1311.5380401999573,1312.141315499961,1312.141315499961,None,1313.2066130999592,None,right,1.0464435000321828,1313.2066130999592,None,1314.2738587999484,None,right,1.178314499964472,1314.2738587999484,None,,,,,,,,,,,,,,,,,,,,,,,PPT30,001,2022-07-05_12h23.41.314,ABstudy,2022.1.4,59.93403660637168,
AB,Lag1_T1A_T2P,1,A,P,6,7,5,5,12,Piano,Did you see the Piano?,0.12,0.016,JPG\,toiletpaper01a,mushroom01,medal02b,sandal,rice,cd,stapler01,pizza,candle08b,garlic01a,toaster01,belt02a,blankImage,blankImage,blankImage,blankImage,blankImage,moose,,,,,,,,,,,,0,130,130,239,,,,,,,,,,,,,,,,,,,,,,,,,,,,,,,,,,,1315.4799638999975,1316.4926660999772,1316.4758686999558,1317.0684264999582,1317.0684264999582,None,1318.5122110999655,None,right,0.7561686999979429,1318.5122110999655,None,1319.2955210999935,None,right,2.4854934999602847,1319.2955210999935,None,,,,,,,,,,,,,,,,,,,,,,,PPT30,001,2022-07-05_12h23.41.314,ABstudy,2022.1.4,59.93403660637168,
AB,Lag5_T1A_T2A,5,A,A,7,12,6,4,16,Eye,Did you see the Eye?,0.12,0.016,JPG\,rice,watermelon01,tableknife02,scarf,computerkeyboard02,cauliflower01,battery02b,binoculars01b,book01b,sandal,sponge01,microscope,tomato01,fork03c,thermometer02b,apple07,blankImage,scooter,,,,,,,,,,,,0,131,131,302,,,,,,,,,,,,,,,,,,,,,,,,,,,,,,,,,,,1321.8525893999613,1322.8654922999558,1322.8488035000046,1323.433961200004,1323.433961200004,None,1325.360754799971,None,right,0.7477183000301011,1325.360754799971,None,1326.1356210999656,None,right,1.1338557000271976,1326.1356210999656,None,,,,,,,,,,,,,,,,,,,,,,,PPT30,001,2022-07-05_12h23.41.314,ABstudy,2022.1.4,59.93403660637168,
AB,Lag5_T1P_T2P,5,P,P,8,13,7,5,18,Kiwi,Did you see the Kiwi?,0.12,0.016,JPG\,violin,pizza,toothbrush03b,pineapple01a,banana01,ashtray01,candy,kiwi03,clock04,sock01a,microscope,speaker04,stapler04b,sunglasses04,lipstick02a,blueberry01,blankImage,kiwi03,,,,,,,,,,,,0,132,132,111,,,,,,,,,,,,,,,,,,,,,,,,,,,,,,,,,,,1327.2889648999553,1328.304348399979,1328.2708929999499,1328.9010753000039,1328.9010753000039,None,1330.8393791999551,None,left,1.173292399966158,1330.8393791999551,None,1332.041503299959,None,right,1.179012100037653,1332.041503299959,None,,,,,,,,,,,,,,,,,,,,,,,PPT30,001,2022-07-05_12h23.41.314,ABstudy,2022.1.4,59.93403660637168,
AB,Lag5_T1P_T2P,5,P,P,6,11,5,3,14,shower head,Did you see the shower head?,0.12,0.016,JPG\,belt02a,measuringcup01,spoon01,chain01,greenolive,showerhead01,computerkeyboard02,onion,fan,strawberry,stapler01,broom01,binoculars01b,ashtray01,blankImage,blankImage,blankImage,showerhead01,,,,,,,,,,,,0,133,133,98,,,,,,,,,,,,,,,,,,,,,,,,,,,,,,,,,,,1333.2495306999772,1334.260743199964,1334.2451039999723,1334.8366070999764,1334.8366070999764,None,1336.4941448000027,None,right,3.8464597999700345,1336.4941448000027,None,1340.3665186999715,None,right,0.6622370000113733,1340.3665186999715,None,,,,,,,,,,,,,,,,,,,,,,,PPT30,001,2022-07-05_12h23.41.314,ABstudy,2022.1.4,59.93403660637168,
AB,Lag1_T1P_T2P,1,P,P,6,7,5,5,12,owl,Did you see the owl?,0.12,0.016,JPG\,paintbrush01,eraser,medal02b,hammer01,speaker04,greathornowl,stapler01,comb02a,plate01b,clock01a,button01,globe,blankImage,blankImage,blankImage,blankImage,blankImage,greathornowl,,,,,,,,,,,,0,134,134,1,,,,,,,,,,,,,,,,,,,,,,,,,,,,,,,,,,,1341.055714099959,1342.0680729000014,1342.0515600999934,1342.6150804999634,1342.6150804999634,None,1344.143149499956,None,left,0.5008202000171877,1344.143149499956,None,1344.6720362999476,None,right,0.8920112000196241,1344.6720362999476,None,,,,,,,,,,,,,,,,,,,,,,,PPT30,001,2022-07-05_12h23.41.314,ABstudy,2022.1.4,59.93403660637168,
AB,Lag1_T1A_T2A,1,A,A,5,6,4,4,10,rose,Did you see the rose?,0.12,0.016,JPG\,sock01a,spoon01,alligator,comb02a,printer02,medal02b,lamp04a,cymbal,greenolive,computerkeyboard02,blankImage,blankImage,blankImage,blankImage,blankImage,blankImage,blankImage,cruiseship,,,,,,,,,,,,0,135,135,293,,,,,,,,,,,,,,,,,,,,,,,,,,,,,,,,,,,1345.5918476999504,1346.6059751999564,1346.5726249999716,1347.1543058999814,1347.1543058999814,None,1348.3627456999966,None,right,0.8417403000057675,1348.3627456999966,None,1349.225293399999,None,right,1.2039259999874048,1349.225293399999,None,,,,,,,,,,,,,,,,,,,,,,,PPT30,001,2022-07-05_12h23.41.314,ABstudy,2022.1.4,59.93403660637168,
AB,Lag1_T1P_T2P,1,P,P,5,6,4,5,11,Light switch,Did you see the Light switch?,0.12,0.016,JPG\,iron01b,orange,birthdaycandle,potato02b,lightswitch01,stapler03b,key01,candle08b,celery,tableknife02,pen04b,blankImage,blankImage,blankImage,blankImage,blankImage,blankImage,lightswitch01,,,,,,,,,,,,0,136,136,18,,,,,,,,,,,,,,,,,,,,,,,,,,,,,,,,,,,1350.467704199953,1351.4774947999977,1351.4608339999686,1352.0846035999712,1352.0846035999712,None,1353.4484090000042,None,left,1.0837258000392467,1353.4484090000042,None,1354.563561499992,None,right,2.0572465999866836,1354.563561499992,None,,,,,,,,,,,,,,,,,,,,,,,PPT30,001,2022-07-05_12h23.41.314,ABstudy,2022.1.4,59.93403660637168,
