TrialType,CondType,Lag,T1_PA,T2_PA,T1Loc,T2Loc,PreDistractor,PostDistractor,TotalImg,cueWord,T1cue,StimLength,isi,PicFolder,Img1,Img2,Img3,Img4,Img5,Img6,Img7,Img8,Img9,Img10,Img11,Img12,Img13,Img14,Img15,Img16,Img17,T1_Identity,ImageType,T1PA,T2PA,Picture,Image,FullPathName,FilePath,Practice_Trials.thisRepN,Practice_Trials.thisTrialN,Practice_Trials.thisN,Practice_Trials.thisIndex,trials.thisRepN,trials.thisTrialN,trials.thisN,trials.thisIndex,trials_2.thisRepN,trials_2.thisTrialN,trials_2.thisN,trials_2.thisIndex,Practice_Ins.started,Practice_Ins.stopped,End_Prac_Ins.keys,End_Prac_Ins.rt,End_Prac_Ins.started,End_Prac_Ins.stopped,text_2.started,text_2.stopped,Fixation_Cross_2.started,Fixation_Cross_2.stopped,Rapid_Image_Present_2.started,Rapid_Image_Present_2.stopped,key_resp.keys,key_resp.rt,key_resp.started,key_resp.stopped,T1Response_2.started,T1Response_2.stopped,T2Response_2.started,T2Response_2.stopped,key_resp_4.keys,key_resp_4.rt,key_resp_4.started,key_resp_4.stopped,text.started,text.stopped,End_Instructions.keys,End_Instructions.rt,End_Instructions.started,End_Instructions.stopped,text_5.started,text_5.stopped,FC.started,FC.stopped,Rapid_Image_Present.started,Rapid_Image_Present.stopped,T1Response.started,T1Response.stopped,key_resp_2.keys,key_resp_2.rt,key_resp_2.started,key_resp_2.stopped,T2Response.started,T2Response.stopped,key_resp_3.keys,key_resp_3.rt,key_resp_3.started,key_resp_3.stopped,text_6.started,text_6.stopped,Fin_ins.keys,Fin_ins.rt,Fin_ins.started,Fin_ins.stopped,MemTest.started,MemTest.stopped,MemResponse.keys,MemResponse.rt,MemResponse.started,MemResponse.stopped,Display.started,Display.stopped,text_7.started,text_7.stopped,endOfExperiment.started,endOfExperiment.stopped,key_resp_5.keys,key_resp_5.rt,key_resp_5.started,key_resp_5.stopped,participant,session,date,expName,psychopyVersion,frameRate,
,,,,,,,,,,,,,,,,,,,,,,,,,,,,,,,,,,,,,,,,,,,,,,,,,,,,20.539615499903448,None,space,31.222832800005563,20.539615499903448,None,,,,,,,,,,,,,,,,,,,,,,,,,,,,,,,,,,,,,,,,,,,,,,,,,,,,,,,,,,,,,,,,,PPT46,001,2022-07-11_11h04.03.027,ABstudy,2022.1.4,59.87195784571678,
AB_Prac,Lag5_T1A_T2P,5,A,P,6,11,5,3,14,dog,Did you see the dog?,0.5,0.016,JPG\,bucket01a,doorlock,cookiecutter,fireextinguisher01,gluestick,highlighter02b,sportbag,spraybottle01,suitcase,thread02,stapler05,walnut01c,icecubetray01a,vikingmask01b,blankImage,blankImage,blankImage,None,,,,,,,,0,0,0,9,,,,,,,,,,,,,,,51.83585569995921,52.84720669989474,52.83055680000689,53.47486699989531,53.47486699989531,None,left,7.168589400011115,60.45751009997912,None,60.45751009997912,None,67.64512389991432,None,left,1.0457563999807462,67.64512389991432,None,,,,,,,,,,,,,,,,,,,,,,,,,,,,,,,,,,,,,,,,,,,,,,,PPT46,001,2022-07-11_11h04.03.027,ABstudy,2022.1.4,59.87195784571678,
AB_Prac,Lag1_T1P_T2P,1,P,P,6,7,5,5,12,triangle,Did you see the triangle?,0.5,0.016,JPG\,ginger,mousetrap,plum01,slipper01b,dropper01,triangle,stapler04b,pants,raspberry01,rope03,scale01a,vase01,blankImage,blankImage,blankImage,blankImage,blankImage,triangle,,,,,,,,0,1,1,1,,,,,,,,,,,,,,,68.71533899998758,69.73060329991858,69.69733190000989,70.29977119993418,70.29977119993418,None,left,1.0265273000113666,76.31174019991886,None,76.31174019991886,None,77.35469720000401,None,left,1.5590614000102505,77.35469720000401,None,,,,,,,,,,,,,,,,,,,,,,,,,,,,,,,,,,,,,,,,,,,,,,,PPT46,001,2022-07-11_11h04.03.027,ABstudy,2022.1.4,59.87195784571678,
AB_Prac,Lag1_T1P_T2P,1,P,P,8,9,7,5,14,Tennis racket,Did you see the Tennis racket?,0.5,0.016,JPG\,coconut,computermouse06,croissant01,deodorant02a,pillow01a,peanut01,boot02b,tennisracket,stapler03b,crayon,eggplant,marker01a,plant01,radish01,blankImage,blankImage,blankImage,tennisracket,,,,,,,,0,2,2,0,,,,,,,,,,,,,,,78.95334629993886,79.95758059993386,79.92422229994554,80.54459479998332,80.54459479998332,None,left,1.1189381999429315,87.5953967999667,None,87.5953967999667,None,88.73302009992767,None,left,0.5405283999862149,88.73302009992767,None,,,,,,,,,,,,,,,,,,,,,,,,,,,,,,,,,,,,,,,,,,,,,,,PPT46,001,2022-07-11_11h04.03.027,ABstudy,2022.1.4,59.87195784571678,
AB_Prac,Lag5_T1P_T2P,5,P,P,7,12,6,3,15,vacuum,Did you see the vacuum?,0.5,0.016,JPG\,fork07b,lightbulb01,manshoe,saw02b,shoelace,soap03a,vacuumcleaner01,floortile01,necklace,doll,cabbage,stapler03a,hanger02a,laptop01a,nailpolish03b,blankImage,blankImage,vacuumcleaner01,,,,,,,,0,3,3,2,,,,,,,,,,,,,,,89.31770209991373,90.31735879997723,90.30070089991204,90.8776324999053,90.8776324999053,None,left,0.9513519000029191,98.37852649996057,None,98.37852649996057,None,99.36012359999586,None,left,0.5945260999724269,99.36012359999586,None,,,,,,,,,,,,,,,,,,,,,,,,,,,,,,,,,,,,,,,,,,,,,,,PPT46,001,2022-07-11_11h04.03.027,ABstudy,2022.1.4,59.87195784571678,
AB_Prac,Lag5_T1P_T2P,5,P,P,5,10,4,5,15,Vulture,Did you see the Vulture?,0.5,0.016,JPG\,shorts01,toast,ramekin01,bib,vulture,cracker02,date,glasses01a,hat03b,stapler01,measuringtape01,nail,pill,drum01,starfish01,blankImage,blankImage,vulture,,,,,,,,0,4,4,3,,,,,,,,,,,,,,,99.98434429999907,100.99544789991342,100.97872629994527,101.59217869990971,101.59217869990971,None,left,0.39471059991046786,109.087189199985,None,109.087189199985,None,109.50336410000455,None,left,0.29063619999215007,109.50336410000455,None,,,,,,,,,,,,,,,,,,,,,,,,,,,,,,,,,,,,,,,,,,,,,,,PPT46,001,2022-07-11_11h04.03.027,ABstudy,2022.1.4,59.87195784571678,
AB_Prac,Lag1_T1A_T2A,1,A,A,8,9,7,3,12,Moose,Did you see the Moose?,0.5,0.016,JPG\,clothespin03b,corkscrew03a,drillbit03a,fusilli03a,needlenosepliers01,perfume01a,pistachio,scrubbingbrush05b,spatula03,toothpastetube,hinge,toydinosaur,blankImage,blankImage,blankImage,blankImage,blankImage,None,,,,,,,,0,5,5,10,,,,,,,,,,,,,,,109.82611489994451,110.838340499904,110.82173440000042,111.43022270000074,111.43022270000074,None,left,2.2859152000164613,117.39713709999342,None,117.39713709999342,None,119.71367569989525,None,left,0.48044009995646775,119.71367569989525,None,,,,,,,,,,,,,,,,,,,,,,,,,,,,,,,,,,,,,,,,,,,,,,,PPT46,001,2022-07-11_11h04.03.027,ABstudy,2022.1.4,59.87195784571678,
AB_Prac,Lag1_T1P_T2A,1,P,A,5,6,4,5,11,Webcam,Did you see the Webcam?,0.5,0.016,JPG\,pictureframe04,binder03b,straw,adjustablewrench01b,webcam,cane,hairdryer02a,icepack,kitchenscale01a,lifejacket,piggybank,blankImage,blankImage,blankImage,blankImage,blankImage,blankImage,webcam,,,,,,,,0,6,6,6,,,,,,,,,,,,,,,120.21873249998316,121.23163089994341,121.21502579993103,121.80113469995558,121.80113469995558,None,left,0.8858102000085637,127.30805089999922,None,127.30805089999922,None,128.22289779991843,None,left,1.8911821999354288,128.22289779991843,None,,,,,,,,,,,,,,,,,,,,,,,,,,,,,,,,,,,,,,,,,,,,,,,PPT46,001,2022-07-11_11h04.03.027,ABstudy,2022.1.4,59.87195784571678,
AB_Prac,Lag5_T1P_T2A,5,P,A,6,11,5,5,16,bread,Did you see the bread?,0.5,0.016,JPG\,cleaver01,clipboard,dustpan,hikingshoe01,notebook03a,baguette01,playingcard,pliers02b,styrofoamcup,rollingpin01a,swimgoggles,wineglass01,fryingpan02a,safetypin,syringe01,thimble,blankImage,baguette01,,,,,,,,0,7,7,8,,,,,,,,,,,,,,,130.145496299956,131.158407199895,131.14178439998068,131.7356540999608,131.7356540999608,None,left,0.529350999975577,139.84940979990643,None,139.84940979990643,None,140.400945100002,None,left,0.4805418000323698,140.400945100002,None,,,,,,,,,,,,,,,,,,,,,,,,,,,,,,,,,,,,,,,,,,,,,,,PPT46,001,2022-07-11_11h04.03.027,ABstudy,2022.1.4,59.87195784571678,
AB_Prac,Lag5_T1A_T2A,5,A,A,6,11,5,5,16,castle,Did you see the castle?,0.5,0.016,JPG\,tape02a,englishmuffin,flask,ladle02a,monitor,peach01,keychain,squeegee01b,telephone01b,whisk,walkman,syringe02,baguette01,coaster,box01a,coffeepot03a,blankImage,None,,,,,,,,0,8,8,11,,,,,,,,,,,,,,,140.90548239997588,141.91912609990686,141.902465299936,142.49935479997657,142.49935479997657,None,left,2.2873849000316113,150.54618790000677,None,150.54618790000677,None,152.8640767999459,None,left,0.6500727999955416,152.8640767999459,None,,,,,,,,,,,,,,,,,,,,,,,,,,,,,,,,,,,,,,,,,,,,,,,PPT46,001,2022-07-11_11h04.03.027,ABstudy,2022.1.4,59.87195784571678,
AB_Prac,Lag5_T1P_T2P,5,P,P,5,10,4,5,15,washing machine,Did you see the washing machine?,0.5,0.016,JPG\,waterbottle03,wheel01,flashlight02b,zucchini01,washingmachine,headphones02b,nutcracker01,paintroller01,paperclip03,stapler06,ribbon04,electricrazor,bottleofredwine01,pitabread,pot02a,blankImage,blankImage,washingmachine,,,,,,,,0,9,9,4,,,,,,,,,,,,,,,153.5498492999468,154.56513619993348,154.53181229997426,155.10338119999506,155.10338119999506,None,left,0.35255089995916933,162.60909419995733,None,162.60909419995733,None,162.98953419993632,None,left,0.5962396999821067,162.98953419993632,None,,,,,,,,,,,,,,,,,,,,,,,,,,,,,,,,,,,,,,,,,,,,,,,PPT46,001,2022-07-11_11h04.03.027,ABstudy,2022.1.4,59.87195784571678,
AB_Prac,Lag5_T1P_T2A,5,P,A,6,11,5,5,16,Wheat,Did you see the Wheat?,0.5,0.016,JPG\,bottleopener01,dentalfloss03b,cooler01,icecreamcone01a,paperclip01b,wheat,pencilsharpener02a,plasticbasket01a,toycar04,apricot,hairclip02,rock01a,honeydewmelon,antenna,blackberry,cardboardbox,blankImage,wheat,,,,,,,,0,10,10,7,,,,,,,,,,,,,,,163.61014329991303,164.62491039989982,164.59155089990236,165.17621039994992,165.17621039994992,None,left,0.3369434999767691,173.21709689998534,None,173.21709689998534,None,173.58376589999534,None,left,1.4337984999874607,173.58376589999534,None,,,,,,,,,,,,,,,,,,,,,,,,,,,,,,,,,,,,,,,,,,,,,,,PPT46,001,2022-07-11_11h04.03.027,ABstudy,2022.1.4,59.87195784571678,
AB_Prac,Lag1_T1P_T2A,1,P,A,8,9,7,5,14,flower,Did you see the flower?,0.5,0.016,JPG\,razor01,axe01,binder03b,bowl01,kettle01,lettuce,lime,plasticflower01b,mitten04,pencilcase01,plunger02,strawbasket01,toothpick02,wallet02a,blankImage,blankImage,blankImage,plasticflower01b,,,,,,,,0,11,11,5,,,,,,,,,,,,,,,175.0375902999658,176.0526618999429,176.0193335999502,176.59200820000842,176.59200820000842,None,left,0.8334330999059603,183.62369979999494,None,183.62369979999494,None,184.47817489993758,None,left,0.9790733000263572,184.47817489993758,None,,,,,,,,,,,,,,,,,,,,,,,,,,,,,,,,,,,,,,,,,,,,,,,PPT46,001,2022-07-11_11h04.03.027,ABstudy,2022.1.4,59.87195784571678,
,,,,,,,,,,,,,,,,,,,,,,,,,,,,,,,,,,,,,,,,,,,,,,,,,,,,,,,,,,,,,,,,,,,,,,,,,,,,185.4791509999195,None,space,13.562667699996382,185.4791509999195,None,,,,,,,,,,,,,,,,,,,,,,,,,,,,,,,,,,,,,,,,,PPT46,001,2022-07-11_11h04.03.027,ABstudy,2022.1.4,59.87195784571678,
AB,Lag5_T1A_T2P,5,A,P,5,10,4,4,14,duck,Did you see the duck?,0.12,0.016,JPG\,brick,eraser,cucumber,ashtray01,thermometer02b,binoculars01b,lipstick02a,screwdriver04b,grape01,stapler04b,battery02b,iron01b,dice05a,avocado01,blankImage,blankImage,blankImage,barrel01,,,,,,,,,,,,0,0,0,280,,,,,,,,,,,,,,,,,,,,,,,,,,,,,,,,,,,199.7836573999375,200.79422869998962,200.77756459999364,201.39215369999874,201.39215369999874,None,203.10936959995888,None,right,1.1488610999658704,203.10936959995888,None,204.28094819991384,None,right,1.9292474000249058,204.28094819991384,None,,,,,,,,,,,,,,,,,,,,,,,PPT46,001,2022-07-11_11h04.03.027,ABstudy,2022.1.4,59.87195784571678,
AB,Lag5_T1A_T2P,5,A,P,8,13,7,5,18,fish,Did you see the fish?,0.12,0.016,JPG\,scissors01,grape01,mushroom01,toiletpaper01a,greenolive,pizza,cigarette,ashtray01,carrot01,pineapple01a,foosballtable,lipstick02a,stapler04b,tambourine02,potato02b,violin,blankImage,chimney,,,,,,,,,,,,0,1,1,283,,,,,,,,,,,,,,,,,,,,,,,,,,,,,,,,,,,206.2359107999364,207.2506211999571,207.2172666999977,207.79322609992232,207.79322609992232,None,209.74226109997835,None,right,2.291710100020282,209.74226109997835,None,212.05560299998615,None,left,0.7302159001119435,212.05560299998615,None,,,,,,,,,,,,,,,,,,,,,,,PPT46,001,2022-07-11_11h04.03.027,ABstudy,2022.1.4,59.87195784571678,
AB,Lag5_T1P_T2P,5,P,P,8,13,7,4,17,surf board,Did you see the surf board?,0.12,0.016,JPG\,candy,brownsugar,dice05a,cd,sock01a,blueberry01,button01,surfboard,feather03a,grape01,dandelion,scissors01,stapler03b,candle08b,book01b,globe,blankImage,surfboard,,,,,,,,,,,,0,2,2,142,,,,,,,,,,,,,,,,,,,,,,,,,,,,,,,,,,,212.80871259991545,213.8238223999506,213.79045919992495,214.39482269994915,214.39482269994915,None,216.35605979990214,None,left,0.782313400064595,216.35605979990214,None,217.1617297999328,None,left,0.28749089990742505,217.1617297999328,None,,,,,,,,,,,,,,,,,,,,,,,PPT46,001,2022-07-11_11h04.03.027,ABstudy,2022.1.4,59.87195784571678,
AB,Lag1_T1P_T2A,1,P,A,7,8,6,4,12,gorilla,Did you see the gorilla?,0.12,0.016,JPG\,scissors01,ashtray01,garlic01a,medal02b,cigarette,candle08b,gorilla,envelope03a,cucumber,rice,toiletpaper01a,greenolive,blankImage,blankImage,blankImage,blankImage,blankImage,gorilla,,,,,,,,,,,,0,3,3,189,,,,,,,,,,,,,,,,,,,,,,,,,,,,,,,,,,,217.53027339989785,218.54532799997833,218.5288168999832,219.09408149996307,219.09408149996307,None,220.52090469992254,None,left,0.7922898000106215,220.52090469992254,None,221.33155809994787,None,right,0.5415466000558808,221.33155809994787,None,,,,,,,,,,,,,,,,,,,,,,,PPT46,001,2022-07-11_11h04.03.027,ABstudy,2022.1.4,59.87195784571678,
AB,Lag1_T1A_T2A,1,A,A,8,9,7,3,12,popcorn,Did you see the popcorn?,0.12,0.016,JPG\,brownsugar,candle01,match,printer02,broom01,balloon01b,belt02a,potato02b,computerkeyboard02,feather03a,rice,mushroom01,blankImage,blankImage,blankImage,blankImage,blankImage,banjo,,,,,,,,,,,,0,4,4,290,,,,,,,,,,,,,,,,,,,,,,,,,,,,,,,,,,,221.90641629998572,222.91645429993514,222.8997703999048,223.40027099999133,223.40027099999133,None,225.03501379990485,None,right,1.0626311000669375,225.03501379990485,None,226.11954439990222,None,right,1.2662629000842571,226.11954439990222,None,,,,,,,,,,,,,,,,,,,,,,,PPT46,001,2022-07-11_11h04.03.027,ABstudy,2022.1.4,59.87195784571678,
AB,Lag5_T1P_T2P,5,P,P,5,10,4,5,15,Ipad,Did you see the Ipad?,0.12,0.016,JPG\,fork03c,toothbrush03b,cellphone,fan,ipad02,clock01a,ring01,eraser,sunglasses04,stapler06,violin,brownsugar,blueberry01,pear01,pencil01,blankImage,blankImage,ipad02,,,,,,,,,,,,0,5,5,150,,,,,,,,,,,,,,,,,,,,,,,,,,,,,,,,,,,227.41415769991,228.4220301999012,228.4053979999153,228.96935139992274,228.96935139992274,None,230.78245649999008,None,right,0.9868927999632433,230.78245649999008,None,231.79296759993304,None,left,0.3280552999349311,231.79296759993304,None,,,,,,,,,,,,,,,,,,,,,,,PPT46,001,2022-07-11_11h04.03.027,ABstudy,2022.1.4,59.87195784571678,
AB,Lag1_T1P_T2A,1,P,A,5,6,4,5,11,Toaster oven,Did you see the Toaster oven?,0.12,0.016,JPG\,fork03c,toothbrush03b,cellphone,fan,toasteroven,clock01a,ring01,eraser,sunglasses04,thermometer02b,violin,blankImage,blankImage,blankImage,blankImage,blankImage,blankImage,toasteroven,,,,,,,,,,,,0,6,6,200,,,,,,,,,,,,,,,,,,,,,,,,,,,,,,,,,,,232.1451190999942,233.1598164999159,233.14307579991873,233.77292869996745,233.70177359995432,None,235.1155515999999,None,right,0.9497113999677822,235.1155515999999,None,236.09621240000706,None,left,0.29737070004921407,236.09621240000706,None,,,,,,,,,,,,,,,,,,,,,,,PPT46,001,2022-07-11_11h04.03.027,ABstudy,2022.1.4,59.87195784571678,
AB,Lag5_T1P_T2P,5,P,P,6,11,5,3,14,wrench,Did you see the wrench?,0.12,0.016,JPG\,cherry01,cymbal,envelope03a,foosballtable,shirt02,stubbywrench01a,sewingmachine01a,candle08b,battery02b,apple07,stapler03b,screwdriver04b,strawberry,sunglasses04,blankImage,blankImage,blankImage,stubbywrench01a,,,,,,,,,,,,0,7,7,122,,,,,,,,,,,,,,,,,,,,,,,,,,,,,,,,,,,236.41335189994425,237.4141990999924,237.39752120000776,237.98508789995685,237.98508789995685,None,239.678530999925,None,right,1.0193341000704095,239.678530999925,None,240.7173354999395,None,left,0.33231299999170005,240.7173354999395,None,,,,,,,,,,,,,,,,,,,,,,,PPT46,001,2022-07-11_11h04.03.027,ABstudy,2022.1.4,59.87195784571678,
AB,Lag5_T1A_T2P,5,A,P,7,12,6,4,16,flower,Did you see the flower?,0.12,0.016,JPG\,printer02,envelope03a,potato02b,calculator01,tableknife02,cigarette,ashtray01,pig,broom01,greenolive,candle08b,stapler03a,strawberry,candle01,foosballtable,tennisball01b,blankImage,calendar,,,,,,,,,,,,0,8,8,282,,,,,,,,,,,,,,,,,,,,,,,,,,,,,,,,,,,241.07113409996964,242.08537849993445,242.05197769997176,242.63830019999295,242.63830019999295,None,244.56443039991427,None,right,1.1888996000634506,244.56443039991427,None,245.77254469995387,None,left,0.564753400045447,245.77254469995387,None,,,,,,,,,,,,,,,,,,,,,,,PPT46,001,2022-07-11_11h04.03.027,ABstudy,2022.1.4,59.87195784571678,
AB,Lag1_T1P_T2P,1,P,P,7,8,6,5,13,school bus,Did you see the school bus?,0.12,0.016,JPG\,aceofdiamond,banana01,scissors01,pig,shirt02,leaf02a,schoolbus,stapler05,fork03c,tableknife02,balloon01b,match,toothbrush03b,blankImage,blankImage,blankImage,blankImage,schoolbus,,,,,,,,,,,,0,9,9,24,,,,,,,,,,,,,,,,,,,,,,,,,,,,,,,,,,,246.3631453999551,247.37423269997817,247.357569099986,247.95433719991706,247.95433719991706,None,249.5574343999615,None,left,0.7083246000111103,249.5574343999615,None,250.29375969991088,None,left,0.3475317000411451,250.29375969991088,None,,,,,,,,,,,,,,,,,,,,,,,PPT46,001,2022-07-11_11h04.03.027,ABstudy,2022.1.4,59.87195784571678,
AB,Lag5_T1A_T2P,5,A,P,7,12,6,5,17,Rollerblade,Did you see the Rollerblade?,0.12,0.016,JPG\,binoculars01b,cymbal,pizza,candy,paintbrush01,sponge01,grape01,thermometer02b,speaker04,lemon02,lipstick02a,stapler03b,candle01,8ball,plate01b,pen04b,blankImage,lion,,,,,,,,,,,,0,10,10,266,,,,,,,,,,,,,,,,,,,,,,,,,,,,,,,,,,,250.67507859994657,251.67843470000662,251.66166919993702,252.2688869999256,252.2688869999256,None,254.15883639990352,None,right,1.9469301000935957,254.15883639990352,None,256.1326486999169,None,left,0.18904339999426156,256.1326486999169,None,,,,,,,,,,,,,,,,,,,,,,,PPT46,001,2022-07-11_11h04.03.027,ABstudy,2022.1.4,59.87195784571678,
AB,Lag5_T1P_T2P,5,P,P,6,11,5,3,14,ladder,Did you see the ladder?,0.12,0.016,JPG\,celery,orange,scissors01,balloon01b,avocado01,stepladder,mushroom01,sewingmachine01a,lighter01,dice05a,stapler01,fan,cd,sock01a,blankImage,blankImage,blankImage,stepladder,,,,,,,,,,,,0,11,11,119,,,,,,,,,,,,,,,,,,,,,,,,,,,,,,,,,,,256.3519054999342,257.3510962999426,257.3344437999185,257.9507505999645,257.9507505999645,None,259.6336749999318,None,left,0.38388079998549074,259.6336749999318,None,260.03624149993993,None,left,0.25364020001143217,260.03624149993993,None,,,,,,,,,,,,,,,,,,,,,,,PPT46,001,2022-07-11_11h04.03.027,ABstudy,2022.1.4,59.87195784571678,
AB,Lag5_T1P_T2P,5,P,P,7,12,6,4,16,Recycling bin,Did you see the Recycling bin?,0.12,0.016,JPG\,broccoli01a,scissors01,toothbrush03b,foosballtable,iron01b,brick,recyclingbin,toiletpaper01a,cd,garlic01a,carrot01,stapler03a,envelope03a,battery02b,balloon01b,broom01,blankImage,recyclingbin,,,,,,,,,,,,0,12,12,157,,,,,,,,,,,,,,,,,,,,,,,,,,,,,,,,,,,260.3272849000059,261.3381395000033,261.32138739991933,261.9061747000087,261.9061747000087,None,263.8803465999663,None,left,0.32159930001944304,263.8803465999663,None,264.22541959991213,None,left,0.2085178999695927,264.22541959991213,None,,,,,,,,,,,,,,,,,,,,,,,PPT46,001,2022-07-11_11h04.03.027,ABstudy,2022.1.4,59.87195784571678,
AB,Lag1_T1P_T2P,1,P,P,7,8,6,4,12,skunk,Did you see the skunk?,0.12,0.016,JPG\,fan,tomato01,candy,screwdriver04b,alligator,cd,skunk,stapler03b,button01,plate01b,brownsugar,lighter01,blankImage,blankImage,blankImage,blankImage,blankImage,skunk,,,,,,,,,,,,0,13,13,48,,,,,,,,,,,,,,,,,,,,,,,,,,,,,,,,,,,264.52706059999764,265.54221469990443,265.52550529991277,266.12284339999314,266.12284339999314,None,267.5004146998981,None,left,0.5489262000191957,267.5004146998981,None,268.07817549991887,None,left,0.20342000003438443,268.07817549991887,None,,,,,,,,,,,,,,,,,,,,,,,PPT46,001,2022-07-11_11h04.03.027,ABstudy,2022.1.4,59.87195784571678,
AB,Lag1_T1P_T2P,1,P,P,7,8,6,5,13,arrow,Did you see the arrow?,0.12,0.016,JPG\,pencil01,broccoli01a,button01,sponge01,watermelon01,lipstick02a,arrow02,stapler04b,lighter01,sock01a,spoon01,blueberry01,belt02a,blankImage,blankImage,blankImage,blankImage,arrow02,,,,,,,,,,,,0,14,14,76,,,,,,,,,,,,,,,,,,,,,,,,,,,,,,,,,,,268.31751959992107,269.32891319994815,269.31224679993466,269.9041234999895,269.9041234999895,None,271.4897313999245,None,left,1.3280746000818908,271.4897313999245,None,272.8501433999045,None,right,0.2715671999612823,272.8501433999045,None,,,,,,,,,,,,,,,,,,,,,,,PPT46,001,2022-07-11_11h04.03.027,ABstudy,2022.1.4,59.87195784571678,
AB,Lag1_T1P_T2P,1,P,P,7,8,6,3,11,compass,Did you see the compass?,0.12,0.016,JPG\,brick,plate01b,pen04b,toaster01,screwdriver04b,candle01,magneticcompass,stapler03a,pig,ring01,orange,blankImage,blankImage,blankImage,blankImage,blankImage,blankImage,magneticcompass,,,,,,,,,,,,0,15,15,66,,,,,,,,,,,,,,,,,,,,,,,,,,,,,,,,,,,273.1617847000016,274.16708009992726,274.15043909999076,274.7269457000075,274.7269457000075,None,276.0648484999547,None,right,1.7767360999714583,276.0648484999547,None,277.8716863999143,None,left,0.25804310000967234,277.8716863999143,None,,,,,,,,,,,,,,,,,,,,,,,PPT46,001,2022-07-11_11h04.03.027,ABstudy,2022.1.4,59.87195784571678,
AB,Lag1_T1P_T2P,1,P,P,8,9,7,5,14,finger print,Did you see the finger print?,0.12,0.016,JPG\,chain01,pen04b,birthdaycandle,watermelon01,broom01,scissors01,measuringcup01,fingerprint,stapler01,calculator01,ashtray01,feather03a,sewingmachine01a,thermometer02b,blankImage,blankImage,blankImage,fingerprint,,,,,,,,,,,,0,16,16,62,,,,,,,,,,,,,,,,,,,,,,,,,,,,,,,,,,,278.16843039996456,279.1720108999871,279.15541359991767,279.7270460999571,279.7270460999571,None,281.45814839995,None,left,0.37534220004454255,281.45814839995,None,281.8584473999217,None,left,0.30333460005931556,281.8584473999217,None,,,,,,,,,,,,,,,,,,,,,,,PPT46,001,2022-07-11_11h04.03.027,ABstudy,2022.1.4,59.87195784571678,
AB,Lag1_T1P_T2P,1,P,P,8,9,7,3,12,Fire hydrant,Did you see the Fire hydrant?,0.12,0.016,JPG\,foosballtable,candy,envelope03a,microscope,pencil01,leaf02a,scissors01,firehydrant,stapler01,dandelion,pineapple01a,hammer01,blankImage,blankImage,blankImage,blankImage,blankImage,firehydrant,,,,,,,,,,,,0,17,17,83,,,,,,,,,,,,,,,,,,,,,,,,,,,,,,,,,,,282.1992986999685,283.20965309999883,283.1929557999829,283.6934519999195,283.6934519999195,None,285.25280829996336,None,left,0.7569955999497324,285.25280829996336,None,286.028750199941,None,left,0.3480202000355348,286.028750199941,None,,,,,,,,,,,,,,,,,,,,,,,PPT46,001,2022-07-11_11h04.03.027,ABstudy,2022.1.4,59.87195784571678,
AB,Lag1_T1A_T2P,1,A,P,8,9,7,4,13,Toolbox,Did you see the Toolbox?,0.12,0.016,JPG\,pizza,printer02,medal02b,spoon01,grape01,lighter01,belt02a,watermelon01,stapler03b,battery02b,screw02,comb02a,cauliflower01,blankImage,blankImage,blankImage,blankImage,ladybug03,,,,,,,,,,,,0,18,18,237,,,,,,,,,,,,,,,,,,,,,,,,,,,,,,,,,,,286.4012428999413,287.4141428999137,287.3974756000098,288.0057402999373,288.0057402999373,None,289.57524079992436,None,right,0.8898983000544831,289.57524079992436,None,290.48372779996134,None,left,0.2373541999841109,290.48372779996134,None,,,,,,,,,,,,,,,,,,,,,,,PPT46,001,2022-07-11_11h04.03.027,ABstudy,2022.1.4,59.87195784571678,
AB,Lag1_T1P_T2P,1,P,P,6,7,5,4,11,bowling pin,Did you see the bowling pin?,0.12,0.016,JPG\,strawberry,leaf02a,clock04,candle01,avocado01,bowlingpin,stapler03a,brownsugar,ring01,lemon02,fork03c,blankImage,blankImage,blankImage,blankImage,blankImage,blankImage,bowlingpin,,,,,,,,,,,,0,19,19,8,,,,,,,,,,,,,,,,,,,,,,,,,,,,,,,,,,,290.7577467999654,291.7683421999682,291.75155869999435,292.3300165999681,292.3300165999681,None,293.68284119991586,None,left,0.8947042999789119,293.68284119991586,None,294.6044016999658,None,right,0.2683662000345066,294.6044016999658,None,,,,,,,,,,,,,,,,,,,,,,,PPT46,001,2022-07-11_11h04.03.027,ABstudy,2022.1.4,59.87195784571678,
AB,Lag1_T1A_T2P,1,A,P,5,6,4,3,9,microphone,Did you see the microphone?,0.12,0.016,JPG\,hammer01,sponge01,toaster01,cherry01,feather03a,stapler06,measuringcup01,pencil01,tennisball01b,blankImage,blankImage,blankImage,blankImage,blankImage,blankImage,blankImage,blankImage,cactus,,,,,,,,,,,,0,20,20,230,,,,,,,,,,,,,,,,,,,,,,,,,,,,,,,,,,,294.91077009995934,295.9227814999176,295.90577119996306,296.4891222999431,296.4891222999431,None,297.5685302999336,None,left,1.0329806000227109,297.5685302999336,None,298.6250619000057,None,left,0.18461810005828738,298.6250619000057,None,,,,,,,,,,,,,,,,,,,,,,,PPT46,001,2022-07-11_11h04.03.027,ABstudy,2022.1.4,59.87195784571678,
AB,Lag1_T1A_T2P,1,A,P,6,7,5,3,10,curtain,Did you see the curtain?,0.12,0.016,JPG\,carrot01,greenolive,fork03c,chain01,ashtray01,watermelon01,stapler06,printer02,comb02a,toaster01,blankImage,blankImage,blankImage,blankImage,blankImage,blankImage,blankImage,birdhouse,,,,,,,,,,,,0,21,21,249,,,,,,,,,,,,,,,,,,,,,,,,,,,,,,,,,,,298.844872299931,299.85973319993354,299.826273099985,300.3967186999507,300.3967186999507,None,301.6387393999612,None,right,1.714968999964185,301.6387393999612,None,303.3810073999921,None,left,0.23651680001057684,303.3810073999921,None,,,,,,,,,,,,,,,,,,,,,,,PPT46,001,2022-07-11_11h04.03.027,ABstudy,2022.1.4,59.87195784571678,
AB,Lag5_T1P_T2P,5,P,P,5,10,4,4,14,duck,Did you see the duck?,0.12,0.016,JPG\,celery,pencil01,fan,foosballtable,duck01,shirt02,potato02b,fork03c,button01,stapler03a,baseball01a,printer02,cauliflower01,dandelion,blankImage,blankImage,blankImage,duck01,,,,,,,,,,,,0,22,22,130,,,,,,,,,,,,,,,,,,,,,,,,,,,,,,,,,,,303.74234589992557,304.7479611999588,304.7312365999678,305.31033919996116,305.31033919996116,None,306.8331339999568,None,left,0.33579959999769926,306.8331339999568,None,307.20012279995717,None,left,0.23281050007790327,307.20012279995717,None,,,,,,,,,,,,,,,,,,,,,,,PPT46,001,2022-07-11_11h04.03.027,ABstudy,2022.1.4,59.87195784571678,
AB,Lag5_T1A_T2P,5,A,P,5,10,4,5,15,Eye patch,Did you see the Eye patch?,0.12,0.016,JPG\,scissors01,balloon01b,eraser,feather03a,banana01,candle01,measuringcup01,calculator01,thermometer02b,stapler03b,pear01,carrot01,globe,baseball01a,leaf02a,blankImage,blankImage,cross01,,,,,,,,,,,,0,23,23,258,,,,,,,,,,,,,,,,,,,,,,,,,,,,,,,,,,,307.4562592000002,308.4680215999251,308.4513454999542,309.030824599904,309.030824599904,None,310.87934589991346,None,right,1.4341668999986723,310.87934589991346,None,312.3397280999925,None,left,0.22968660003971308,312.3397280999925,None,,,,,,,,,,,,,,,,,,,,,,,PPT46,001,2022-07-11_11h04.03.027,ABstudy,2022.1.4,59.87195784571678,
AB,Lag1_T1P_T2P,1,P,P,8,9,7,4,13,Hula hoop,Did you see the Hula hoop?,0.12,0.016,JPG\,brownsugar,candle01,match,printer02,broom01,balloon01b,belt02a,hulahoop,stapler04b,feather03a,rice,mushroom01,pencil01,blankImage,blankImage,blankImage,blankImage,hulahoop,,,,,,,,,,,,0,24,24,64,,,,,,,,,,,,,,,,,,,,,,,,,,,,,,,,,,,312.5959990998963,313.6066510999808,313.59009819990024,314.0905668999767,314.0905668999767,None,315.70912259991746,None,left,0.8518043999793008,315.70912259991746,None,316.59303449990693,None,left,0.34515230008400977,316.59303449990693,None,,,,,,,,,,,,,,,,,,,,,,,PPT46,001,2022-07-11_11h04.03.027,ABstudy,2022.1.4,59.87195784571678,
AB,Lag1_T1A_T2A,1,A,A,6,7,5,5,12,Safe,Did you see the Safe?,0.12,0.016,JPG\,hammer01,sponge01,toaster01,cherry01,feather03a,mushroom01,measuringcup01,pencil01,tennisball01b,brick,clock04,medal02b,blankImage,blankImage,blankImage,blankImage,blankImage,downhillski,,,,,,,,,,,,0,25,25,294,,,,,,,,,,,,,,,,,,,,,,,,,,,,,,,,,,,317.0070651998976,318.01260599994566,317.9956419999944,318.581059499993,318.581059499993,None,320.0353422999615,None,right,0.9418238999787718,320.0353422999615,None,320.997204199899,None,left,0.2600586999906227,320.997204199899,None,,,,,,,,,,,,,,,,,,,,,,,PPT46,001,2022-07-11_11h04.03.027,ABstudy,2022.1.4,59.87195784571678,
AB,Lag1_T1P_T2P,1,P,P,5,6,4,5,11,Guitar case,Did you see the Guitar case?,0.12,0.016,JPG\,broccoli01a,scissors01,toothbrush03b,foosballtable,guitarcase,stapler05,hammer01,toiletpaper01a,cd,garlic01a,carrot01,blankImage,blankImage,blankImage,blankImage,blankImage,blankImage,guitarcase,,,,,,,,,,,,0,26,26,14,,,,,,,,,,,,,,,,,,,,,,,,,,,,,,,,,,,321.2867391000036,322.29881889990065,322.28212849993724,322.8952600999037,322.8952600999037,None,324.26108809991274,None,left,1.0915953000076115,324.26108809991274,None,325.3849401999032,None,left,0.7037293999455869,325.3849401999032,None,,,,,,,,,,,,,,,,,,,,,,,PPT46,001,2022-07-11_11h04.03.027,ABstudy,2022.1.4,59.87195784571678,
AB,Lag1_T1P_T2P,1,P,P,8,9,7,3,12,Eiffel tower,Did you see the Eiffel tower?,0.12,0.016,JPG\,celery,tennisball01b,calculator01,pear01,screw02,orange,button01,eiffeltower,stapler03b,apple07,iron01b,brownsugar,blankImage,blankImage,blankImage,blankImage,blankImage,eiffeltower,,,,,,,,,,,,0,27,27,40,,,,,,,,,,,,,,,,,,,,,,,,,,,,,,,,,,,326.12334659998305,327.1366439999547,327.1200060999254,327.69900849997066,327.69900849997066,None,329.07614659995306,None,left,0.7327049999730662,329.07614659995306,None,329.83933190000243,None,right,0.32171239994931966,329.83933190000243,None,,,,,,,,,,,,,,,,,,,,,,,PPT46,001,2022-07-11_11h04.03.027,ABstudy,2022.1.4,59.87195784571678,
AB,Lag5_T1P_T2P,5,P,P,8,13,7,5,18,Kiwi,Did you see the Kiwi?,0.12,0.016,JPG\,violin,pizza,toothbrush03b,pineapple01a,banana01,ashtray01,candy,kiwi03,clock04,sock01a,microscope,speaker04,stapler04b,sunglasses04,lipstick02a,blueberry01,blankImage,kiwi03,,,,,,,,,,,,0,28,28,111,,,,,,,,,,,,,,,,,,,,,,,,,,,,,,,,,,,330.1949983999366,331.2073511999333,331.1906388999196,331.76930939999875,331.76930939999875,None,333.6737163999351,None,left,0.648834399995394,333.6737163999351,None,334.344056300004,None,left,0.2728113998891786,334.344056300004,None,,,,,,,,,,,,,,,,,,,,,,,PPT46,001,2022-07-11_11h04.03.027,ABstudy,2022.1.4,59.87195784571678,
AB,Lag1_T1P_T2P,1,P,P,8,9,7,4,13,Doughnut,Did you see the Doughnut?,0.12,0.016,JPG\,brick,eraser,cucumber,ashtray01,thermometer02b,binoculars01b,lipstick02a,donut,stapler01,brownsugar,battery02b,iron01b,dice05a,blankImage,blankImage,blankImage,blankImage,donut,,,,,,,,,,,,0,29,29,39,,,,,,,,,,,,,,,,,,,,,,,,,,,,,,,,,,,334.64844489993993,335.66207709989976,335.6453508998966,336.221482199966,336.221482199966,None,337.81283819989767,None,left,0.34846020000986755,337.81283819989767,None,338.18117549992166,None,left,0.24511300004087389,338.18117549992166,None,,,,,,,,,,,,,,,,,,,,,,,PPT46,001,2022-07-11_11h04.03.027,ABstudy,2022.1.4,59.87195784571678,
AB,Lag5_T1P_T2P,5,P,P,5,10,4,4,14,bell,Did you see the bell?,0.12,0.016,JPG\,teabag,envelope03a,cellphone,apple07,callbell,orange,brownsugar,book01b,hammer01,stapler03b,toaster01,calculator01,globe,battery02b,blankImage,blankImage,blankImage,callbell,,,,,,,,,,,,0,30,30,147,,,,,,,,,,,,,,,,,,,,,,,,,,,,,,,,,,,338.4528618999757,339.4657218999928,339.44913859991357,340.07656829990447,340.0028841999592,None,341.76270799990743,None,left,0.44600130000617355,341.76270799990743,None,342.2352282999782,None,left,0.2703009999822825,342.2352282999782,None,,,,,,,,,,,,,,,,,,,,,,,PPT46,001,2022-07-11_11h04.03.027,ABstudy,2022.1.4,59.87195784571678,
AB,Lag5_T1P_T2A,5,P,A,5,10,4,3,13,fan,Did you see the fan?,0.12,0.016,JPG\,scissors01,grape01,mushroom01,toiletpaper01a,fanheater,pizza,cigarette,ashtray01,carrot01,pineapple01a,foosballtable,lipstick02a,teabag,blankImage,blankImage,blankImage,blankImage,fanheater,,,,,,,,,,,,0,31,31,220,,,,,,,,,,,,,,,,,,,,,,,,,,,,,,,,,,,342.5389020999428,343.5531664999435,343.53647539997473,344.15858719998505,344.09035919990856,None,345.72297000000253,None,left,2.798511599889025,345.72297000000253,None,348.5412798000034,None,right,0.24516339995898306,348.5412798000034,None,,,,,,,,,,,,,,,,,,,,,,,PPT46,001,2022-07-11_11h04.03.027,ABstudy,2022.1.4,59.87195784571678,
AB,Lag5_T1P_T2P,5,P,P,8,13,7,5,18,popcorn,Did you see the popcorn?,0.12,0.016,JPG\,toaster01,garlic01a,hairclip03,fan,comb02a,apple07,orange,popcorn,onion,blueberry01,toiletpaper01a,fork03c,stapler06,pineapple01a,scarf,eraser,blankImage,popcorn,,,,,,,,,,,,0,32,32,155,,,,,,,,,,,,,,,,,,,,,,,,,,,,,,,,,,,348.85669759998564,349.8594157999614,349.84275139996316,350.4316488999175,350.4316488999175,None,352.2961015999317,None,left,0.48082489997614175,352.2961015999317,None,352.79571939993184,None,left,0.31704170000739396,352.79571939993184,None,,,,,,,,,,,,,,,,,,,,,,,PPT46,001,2022-07-11_11h04.03.027,ABstudy,2022.1.4,59.87195784571678,
AB,Lag1_T1P_T2P,1,P,P,6,7,5,3,10,drum sticks,Did you see the drum sticks?,0.12,0.016,JPG\,pineapple01a,tennisball01b,computerkeyboard02,feather03a,belt02a,drumstick,stapler03b,blueberry01,medal02b,alligator,blankImage,blankImage,blankImage,blankImage,blankImage,blankImage,blankImage,drumstick,,,,,,,,,,,,0,33,33,61,,,,,,,,,,,,,,,,,,,,,,,,,,,,,,,,,,,353.13998039998114,354.14747749990784,354.13073789991904,354.725506399991,354.725506399991,None,355.8883181998972,None,left,0.6085935001028702,355.8883181998972,None,356.51614259998314,None,left,0.316736500011757,356.51614259998314,None,,,,,,,,,,,,,,,,,,,,,,,PPT46,001,2022-07-11_11h04.03.027,ABstudy,2022.1.4,59.87195784571678,
AB,Lag5_T1P_T2P,5,P,P,5,10,4,3,13,rose,Did you see the rose?,0.12,0.016,JPG\,lipstick02a,cucumber,candle08b,printer02,rose,violin,paintbrush01,lighter01,belt02a,stapler03b,thermometer02b,microscope,cigarette,blankImage,blankImage,blankImage,blankImage,rose,,,,,,,,,,,,0,34,34,158,,,,,,,,,,,,,,,,,,,,,,,,,,,,,,,,,,,356.8507932999637,357.8511461999733,357.8344712998951,358.4295749999583,358.4295749999583,None,360.0121688999934,None,left,0.7565548000857234,360.0121688999934,None,360.78684529999737,None,right,0.27870469994377345,360.78684529999737,None,,,,,,,,,,,,,,,,,,,,,,,PPT46,001,2022-07-11_11h04.03.027,ABstudy,2022.1.4,59.87195784571678,
AB,Lag1_T1P_T2A,1,P,A,7,8,6,3,11,walkie talkie,Did you see the walkie talkie?,0.12,0.016,JPG\,teabag,envelope03a,cellphone,apple07,cauliflower01,orange,walkietalkie,book01b,hammer01,feather03a,toaster01,blankImage,blankImage,blankImage,blankImage,blankImage,blankImage,walkietalkie,,,,,,,,,,,,0,35,35,197,,,,,,,,,,,,,,,,,,,,,,,,,,,,,,,,,,,361.091718899901,362.1048009999795,362.08826999994926,362.6522531999508,362.6522531999508,None,364.0634490000084,None,left,0.889405700028874,364.0634490000084,None,364.97451859992,None,right,0.2593151000328362,364.97451859992,None,,,,,,,,,,,,,,,,,,,,,,,PPT46,001,2022-07-11_11h04.03.027,ABstudy,2022.1.4,59.87195784571678,
AB,Lag5_T1A_T2P,5,A,P,7,12,6,4,16,ear,Did you see the ear?,0.12,0.016,JPG\,candle01,shirt02,brick,orange,greenolive,toothbrush03b,pizza,thermometer02b,book01b,toiletpaper01a,sewingmachine01a,stapler01,candy,cymbal,potato02b,plate01b,blankImage,chair,,,,,,,,,,,,0,36,36,257,,,,,,,,,,,,,,,,,,,,,,,,,,,,,,,,,,,365.2611244999571,366.27582069998607,366.24242099991534,366.82592229999136,366.82592229999136,None,368.8107985999668,None,right,0.8308438999811187,368.8107985999668,None,369.6624986999668,None,left,0.2182525999378413,369.6624986999668,None,,,,,,,,,,,,,,,,,,,,,,,PPT46,001,2022-07-11_11h04.03.027,ABstudy,2022.1.4,59.87195784571678,
AB,Lag1_T1P_T2P,1,P,P,7,8,6,3,11,Sand castle,Did you see the Sand castle?,0.12,0.016,JPG\,thermometer02b,candle08b,comb02a,toothbrush03b,brick,computerkeyboard02,sandcastle,stapler06,candy,birthdaycandle,clock04,blankImage,blankImage,blankImage,blankImage,blankImage,blankImage,sandcastle,,,,,,,,,,,,0,37,37,70,,,,,,,,,,,,,,,,,,,,,,,,,,,,,,,,,,,369.91799089999404,370.9302159999497,370.9137832999695,371.48782709997613,371.48782709997613,None,372.9230275999289,None,right,1.0137866999721155,372.9230275999289,None,373.9665975999087,None,right,0.23430179990828037,373.9665975999087,None,,,,,,,,,,,,,,,,,,,,,,,PPT46,001,2022-07-11_11h04.03.027,ABstudy,2022.1.4,59.87195784571678,
AB,Lag5_T1P_T2A,5,P,A,6,11,5,5,16,World map,Did you see the World map?,0.12,0.016,JPG\,cigarette,pig,banana01,strawberry,clock01a,worldmap,spoon01,blueberry01,battery02b,pineapple01a,chain01,paintbrush01,candy,pen04b,teabag,birthdaycandle,blankImage,worldmap,,,,,,,,,,,,0,38,38,205,,,,,,,,,,,,,,,,,,,,,,,,,,,,,,,,,,,374.237084299908,375.2512459999416,375.2345710999798,375.8577275999123,375.78779509989545,None,377.69520089996513,None,left,1.3386615000199527,377.69520089996513,None,379.05524229991715,None,right,0.7377031999640167,379.05524229991715,None,,,,,,,,,,,,,,,,,,,,,,,PPT46,001,2022-07-11_11h04.03.027,ABstudy,2022.1.4,59.87195784571678,
AB,Lag5_T1P_T2P,5,P,P,6,11,5,4,15,sword,Did you see the sword?,0.12,0.016,JPG\,8ball,banana01,scissors01,pig,shirt02,broadsword,pear01,sponge01,fork03c,tableknife02,stapler06,match,toothbrush03b,birthdaycandle,candle01,blankImage,blankImage,broadsword,,,,,,,,,,,,0,39,39,167,,,,,,,,,,,,,,,,,,,,,,,,,,,,,,,,,,,379.83719140000176,380.83994479989633,380.8066713999724,381.38300799997523,381.38300799997523,None,383.22014719992876,None,right,0.6768323000287637,383.22014719992876,None,383.92719509999733,None,right,0.4181211000541225,383.92719509999733,None,,,,,,,,,,,,,,,,,,,,,,,PPT46,001,2022-07-11_11h04.03.027,ABstudy,2022.1.4,59.87195784571678,
AB,Lag1_T1P_T2P,1,P,P,7,8,6,5,13,dream catcher,Did you see the dream catcher?,0.12,0.016,JPG\,clock01a,cellphone,toaster01,toothbrush03b,cauliflower01,microscope,dreamcatcher,stapler05,scarf,clock04,sponge01,iron01b,watch02a,blankImage,blankImage,blankImage,blankImage,dreamcatcher,,,,,,,,,,,,0,40,40,81,,,,,,,,,,,,,,,,,,,,,,,,,,,,,,,,,,,384.37926580000203,385.39461129996926,385.36125789990183,385.9445357999066,385.9445357999066,None,387.5137035999214,None,left,1.0556603000732139,387.5137035999214,None,388.597606599913,None,right,1.5152737000025809,388.597606599913,None,,,,,,,,,,,,,,,,,,,,,,,PPT46,001,2022-07-11_11h04.03.027,ABstudy,2022.1.4,59.87195784571678,
AB,Lag1_T1P_T2P,1,P,P,8,9,7,5,14,giraffe,Did you see the giraffe?,0.12,0.016,JPG\,pencil01,foosballtable,banana01,lipstick02a,toaster01,grape01,key01,giraffe,stapler03b,pineapple01a,strawberry,teabag,dandelion,paintbrush01,blankImage,blankImage,blankImage,giraffe,,,,,,,,,,,,0,41,41,0,,,,,,,,,,,,,,,,,,,,,,,,,,,,,,,,,,,390.147529299953,391.1501993999118,391.11686549999285,391.70349479990546,391.70349479990546,None,393.4036724999314,None,left,1.4692577000241727,393.4036724999314,None,394.9045097999042,None,left,0.7922376000788063,394.9045097999042,None,,,,,,,,,,,,,,,,,,,,,,,PPT46,001,2022-07-11_11h04.03.027,ABstudy,2022.1.4,59.87195784571678,
AB,Lag1_T1P_T2P,1,P,P,8,9,7,4,13,ladder,Did you see the ladder?,0.12,0.016,JPG\,cigarette,fork03c,greenolive,broccoli01a,avocado01,tennisball01b,balloon01b,ladder,stapler03b,fan,clock01a,strawberry,envelope03a,blankImage,blankImage,blankImage,blankImage,ladder,,,,,,,,,,,,0,42,42,45,,,,,,,,,,,,,,,,,,,,,,,,,,,,,,,,,,,395.7265556999482,396.73947329993825,396.7228108999552,397.3030509999953,397.3030509999953,None,398.92186939995736,None,left,0.519302999950014,398.92186939995736,None,399.4601227999665,None,left,0.5328315000515431,399.4601227999665,None,,,,,,,,,,,,,,,,,,,,,,,PPT46,001,2022-07-11_11h04.03.027,ABstudy,2022.1.4,59.87195784571678,
AB,Lag1_T1P_T2A,1,P,A,8,9,7,5,14,Parrot,Did you see the Parrot?,0.12,0.016,JPG\,candy,brownsugar,dice05a,cd,sock01a,blueberry01,button01,parrot01,feather03a,grape01,dandelion,scissors01,watch02a,candle08b,blankImage,blankImage,blankImage,parrot01,,,,,,,,,,,,0,43,43,192,,,,,,,,,,,,,,,,,,,,,,,,,,,,,,,,,,,400.01866649999283,401.0269155999413,401.01019009994343,401.5867909999797,401.5867909999797,None,403.3458290999988,None,left,1.2874507999513298,403.3458290999988,None,404.6640088999411,None,right,0.3371436999877915,404.6640088999411,None,,,,,,,,,,,,,,,,,,,,,,,PPT46,001,2022-07-11_11h04.03.027,ABstudy,2022.1.4,59.87195784571678,
AB,Lag1_T1P_T2P,1,P,P,7,8,6,4,12,Dog House,Did you see the Dog House?,0.12,0.016,JPG\,pineapple01a,leaf02a,grape01,toiletpaper01a,match,tennisball01b,doghouse,stapler03b,pig,measuringcup01,ring01,lemon02,blankImage,blankImage,blankImage,blankImage,blankImage,doghouse,,,,,,,,,,,,0,44,44,44,,,,,,,,,,,,,,,,,,,,,,,,,,,,,,,,,,,405.0370511999354,406.0485938999336,406.03193860000465,406.6180534999585,406.6180534999585,None,408.09639639989473,None,left,0.8246132000349462,408.09639639989473,None,408.9515051000053,None,right,0.3529658999759704,408.9515051000053,None,,,,,,,,,,,,,,,,,,,,,,,PPT46,001,2022-07-11_11h04.03.027,ABstudy,2022.1.4,59.87195784571678,
AB,Lag5_T1A_T2A,5,A,A,6,11,5,3,14,mirror,Did you see the mirror?,0.12,0.016,JPG\,foosballtable,candy,envelope03a,microscope,pencil01,leaf02a,scissors01,watermelon01,grape01,dandelion,pineapple01a,hammer01,celery,thermometer02b,blankImage,blankImage,blankImage,shower,,,,,,,,,,,,0,45,45,305,,,,,,,,,,,,,,,,,,,,,,,,,,,,,,,,,,,409.33652619994245,410.33640639996156,410.3195999999298,410.8201263999799,410.8201263999799,None,412.58570679998957,None,right,1.327314699999988,412.58570679998957,None,413.939916000003,None,right,0.33320949994958937,413.939916000003,None,,,,,,,,,,,,,,,,,,,,,,,PPT46,001,2022-07-11_11h04.03.027,ABstudy,2022.1.4,59.87195784571678,
AB,Lag1_T1P_T2P,1,P,P,8,9,7,5,14,helicopter,Did you see the helicopter?,0.12,0.016,JPG\,broom01,globe,cellphone,tableknife02,cauliflower01,scissors01,ring01,helicopter,stapler01,toaster01,cigarette,grape01,microscope,cucumber,blankImage,blankImage,blankImage,helicopter,,,,,,,,,,,,0,46,46,85,,,,,,,,,,,,,,,,,,,,,,,,,,,,,,,,,,,414.2956868999172,415.30792479997035,415.2913100000005,415.8445263999747,415.8445263999747,None,417.5728213998955,None,left,0.33180090005043894,417.5728213998955,None,417.9273676999146,None,left,0.3612876000115648,417.9273676999146,None,,,,,,,,,,,,,,,,,,,,,,,PPT46,001,2022-07-11_11h04.03.027,ABstudy,2022.1.4,59.87195784571678,
AB,Lag1_T1P_T2A,1,P,A,8,9,7,5,14,Ceiling fan,Did you see the Ceiling fan?,0.12,0.016,JPG\,cucumber,sponge01,alligator,pear01,ashtray01,hammer01,clock04,ceilingfan01,fork03c,binoculars01b,mushroom01,broccoli01a,leaf02a,acorn,blankImage,blankImage,blankImage,ceilingfan01,,,,,,,,,,,,0,47,47,183,,,,,,,,,,,,,,,,,,,,,,,,,,,,,,,,,,,418.3500890999567,419.36238229996525,419.34573319996707,419.9427551999688,419.9427551999688,None,421.4974054999184,None,left,2.015542700071819,421.4974054999184,None,423.53414339991286,None,right,0.1946162999374792,423.53414339991286,None,,,,,,,,,,,,,,,,,,,,,,,PPT46,001,2022-07-11_11h04.03.027,ABstudy,2022.1.4,59.87195784571678,
AB,Lag1_T1P_T2P,1,P,P,5,6,4,5,11,Light switch,Did you see the Light switch?,0.12,0.016,JPG\,iron01b,orange,birthdaycandle,potato02b,lightswitch01,stapler03b,key01,candle08b,celery,tableknife02,pen04b,blankImage,blankImage,blankImage,blankImage,blankImage,blankImage,lightswitch01,,,,,,,,,,,,0,48,48,18,,,,,,,,,,,,,,,,,,,,,,,,,,,,,,,,,,,423.7669240999967,424.767759499955,424.75106349994894,425.345088699949,425.345088699949,None,426.64575929997955,None,left,0.8027012998936698,426.64575929997955,None,427.4700943999924,None,right,0.30710859992541373,427.4700943999924,None,,,,,,,,,,,,,,,,,,,,,,,PPT46,001,2022-07-11_11h04.03.027,ABstudy,2022.1.4,59.87195784571678,
AB,Lag1_T1P_T2P,1,P,P,7,8,6,4,12,trophy,Did you see the trophy?,0.12,0.016,JPG\,cherry01,cymbal,envelope03a,foosballtable,shirt02,cellphone,trophy01,stapler04b,battery02b,apple07,pencil01,screwdriver04b,blankImage,blankImage,blankImage,blankImage,blankImage,trophy01,,,,,,,,,,,,0,49,49,74,,,,,,,,,,,,,,,,,,,,,,,,,,,,,,,,,,,427.81148819997907,428.8214459998999,428.80476470000576,429.3910085998941,429.3910085998941,None,430.81032089993823,None,left,0.7181485999608412,430.81032089993823,None,431.5572361999657,None,right,0.2922137000132352,431.5572361999657,None,,,,,,,,,,,,,,,,,,,,,,,PPT46,001,2022-07-11_11h04.03.027,ABstudy,2022.1.4,59.87195784571678,
AB,Lag5_T1A_T2P,5,A,P,7,12,6,4,16,church,Did you see the church?,0.12,0.016,JPG\,printer02,leaf02a,cauliflower01,sock01a,brownsugar,paintbrush01,pig,orange,belt02a,shirt02,key01,stapler06,cigarette,scissors01,envelope03a,blueberry01,blankImage,ant,,,,,,,,,,,,0,50,50,279,,,,,,,,,,,,,,,,,,,,,,,,,,,,,,,,,,,431.87659879995044,432.891925899894,432.85854669997934,433.4405739000067,433.4405739000067,None,435.3873802999733,None,right,1.1329831999028102,435.3873802999733,None,436.5458134999499,None,left,0.21639570000115782,436.5458134999499,None,,,,,,,,,,,,,,,,,,,,,,,PPT46,001,2022-07-11_11h04.03.027,ABstudy,2022.1.4,59.87195784571678,
AB,Lag5_T1P_T2A,5,P,A,7,12,6,3,15,helmet,Did you see the helmet?,0.12,0.016,JPG\,fork03c,belt02a,grape01,computerkeyboard02,lemon02,printer02,skihelmet01,toiletpaper01a,toaster01,lipstick02a,book01b,blueberry01,spoon01,apple07,avocado01,blankImage,blankImage,skihelmet01,,,,,,,,,,,,0,51,51,225,,,,,,,,,,,,,,,,,,,,,,,,,,,,,,,,,,,436.78291710000485,437.7970792999258,437.7802996999817,438.35576740000397,438.35576740000397,None,440.20186849997845,None,right,1.4468789999373257,440.20186849997845,None,441.66735639993567,None,right,0.2453927000751719,441.66735639993567,None,,,,,,,,,,,,,,,,,,,,,,,PPT46,001,2022-07-11_11h04.03.027,ABstudy,2022.1.4,59.87195784571678,
AB,Lag1_T1P_T2P,1,P,P,5,6,4,3,9,Pumpkin,Did you see the Pumpkin?,0.12,0.016,JPG\,binoculars01b,speaker04,sandal,envelope03a,pumpkin,stapler03b,battery02b,chain01,measuringcup01,blankImage,blankImage,blankImage,blankImage,blankImage,blankImage,blankImage,blankImage,pumpkin,,,,,,,,,,,,0,52,52,23,,,,,,,,,,,,,,,,,,,,,,,,,,,,,,,,,,,441.937153799925,442.95198669994716,442.9186203998979,443.50682189990766,443.50682189990766,None,444.65515879995655,None,left,0.8893740000203252,444.65515879995655,None,445.5725468999008,None,right,0.4366854999680072,445.5725468999008,None,,,,,,,,,,,,,,,,,,,,,,,PPT46,001,2022-07-11_11h04.03.027,ABstudy,2022.1.4,59.87195784571678,
AB,Lag5_T1A_T2A,5,A,A,6,11,5,5,16,shrimp,Did you see the shrimp?,0.12,0.016,JPG\,speaker04,sewingmachine01a,eraser,violin,globe,belt02a,sunglasses04,cymbal,cd,greenolive,alligator,pear01,watch02a,screwdriver04b,banana01,cigarette,blankImage,rollerblade,,,,,,,,,,,,0,53,53,300,,,,,,,,,,,,,,,,,,,,,,,,,,,,,,,,,,,446.0486471999902,447.05584359995555,447.0391747999238,447.6163161000004,447.6163161000004,None,449.5565464999527,None,right,0.781407400034368,449.5565464999527,None,450.36047369998414,None,left,0.26464609999675304,450.36047369998414,None,,,,,,,,,,,,,,,,,,,,,,,PPT46,001,2022-07-11_11h04.03.027,ABstudy,2022.1.4,59.87195784571678,
AB,Lag5_T1P_T2P,5,P,P,6,11,5,3,14,Poker chips,Did you see the Poker chips?,0.12,0.016,JPG\,iron01b,brick,broccoli01a,balloon01b,tomato01,pokerchips,sandal,teabag,scissors01,pineapple01a,stapler04b,measuringcup01,sock01a,book01b,blankImage,blankImage,blankImage,pokerchips,,,,,,,,,,,,0,54,54,154,,,,,,,,,,,,,,,,,,,,,,,,,,,,,,,,,,,450.71858759992756,451.7274086999241,451.710708300001,452.2919533000095,452.2919533000095,None,453.95626109989826,None,left,0.541539300000295,453.95626109989826,None,454.5151358000003,None,left,0.261238900013268,454.5151358000003,None,,,,,,,,,,,,,,,,,,,,,,,PPT46,001,2022-07-11_11h04.03.027,ABstudy,2022.1.4,59.87195784571678,
AB,Lag5_T1P_T2A,5,P,A,7,12,6,5,17,flower,Did you see the flower?,0.12,0.016,JPG\,cellphone,tomato01,comb02a,candy,celery,cucumber,craneflower,fan,feather03a,pen04b,lemon02,blueberry01,plate01b,cherry01,baseball01a,candle08b,blankImage,craneflower,,,,,,,,,,,,0,55,55,211,,,,,,,,,,,,,,,,,,,,,,,,,,,,,,,,,,,454.8092700999696,455.81456269999035,455.7978885999182,456.36852519994136,456.36852519994136,None,458.39620249997824,None,left,1.8767879999941215,458.39620249997824,None,460.30274949991144,None,right,0.2993570000398904,460.30274949991144,None,,,,,,,,,,,,,,,,,,,,,,,PPT46,001,2022-07-11_11h04.03.027,ABstudy,2022.1.4,59.87195784571678,
AB,Lag5_T1A_T2A,5,A,A,5,10,4,5,15,truck,Did you see the truck?,0.12,0.016,JPG\,pizza,printer02,medal02b,spoon01,grape01,lighter01,belt02a,watermelon01,celery,battery02b,screw02,comb02a,cauliflower01,lipstick02a,potato02b,blankImage,blankImage,postalmailbox01,,,,,,,,,,,,0,56,56,297,,,,,,,,,,,,,,,,,,,,,,,,,,,,,,,,,,,460.6240584999323,461.63794319995213,461.6213182999054,462.22841300000437,462.22841300000437,None,464.01794769999105,None,right,0.6791202999884263,464.01794769999105,None,464.7235667000059,None,right,0.3013091000029817,464.7235667000059,None,,,,,,,,,,,,,,,,,,,,,,,PPT46,001,2022-07-11_11h04.03.027,ABstudy,2022.1.4,59.87195784571678,
AB,Lag5_T1P_T2A,5,P,A,8,13,7,4,17,Drum set,Did you see the Drum set?,0.12,0.016,JPG\,pencil01,microscope,banana01,computerkeyboard02,celery,cellphone,scissors01,drumset,book01b,onion,dice05a,binoculars01b,baseball01a,iron01b,screw02,fork03c,blankImage,drumset,,,,,,,,,,,,0,57,57,212,,,,,,,,,,,,,,,,,,,,,,,,,,,,,,,,,,,465.0595970998984,466.0748942999635,466.0416006000014,466.6203979999991,466.6203979999991,None,468.60545309993904,None,left,0.9309340000618249,468.60545309993904,None,469.5619618999772,None,right,0.5827054999535903,469.5619618999772,None,,,,,,,,,,,,,,,,,,,,,,,PPT46,001,2022-07-11_11h04.03.027,ABstudy,2022.1.4,59.87195784571678,
AB,Lag1_T1A_T2P,1,A,P,5,6,4,3,9,Stool,Did you see the Stool?,0.12,0.016,JPG\,cherry01,cymbal,envelope03a,foosballtable,shirt02,stapler01,sewingmachine01a,candle08b,battery02b,blankImage,blankImage,blankImage,blankImage,blankImage,blankImage,blankImage,blankImage,hulahoop,,,,,,,,,,,,0,58,58,236,,,,,,,,,,,,,,,,,,,,,,,,,,,,,,,,,,,470.1699326999951,471.18053879996296,471.1640596999787,471.7831844999455,471.7831844999455,None,472.84309759992175,None,right,0.9895710999844596,472.84309759992175,None,473.85097349993885,None,left,0.293466099887155,473.85097349993885,None,,,,,,,,,,,,,,,,,,,,,,,PPT46,001,2022-07-11_11h04.03.027,ABstudy,2022.1.4,59.87195784571678,
AB,Lag1_T1P_T2P,1,P,P,6,7,5,3,10,jelly beans,Did you see the jelly beans?,0.12,0.016,JPG\,lipstick02a,cucumber,candle08b,printer02,grape01,jellybean,stapler01,lighter01,belt02a,balloon01b,blankImage,blankImage,blankImage,blankImage,blankImage,blankImage,blankImage,jellybean,,,,,,,,,,,,0,59,59,15,,,,,,,,,,,,,,,,,,,,,,,,,,,,,,,,,,,474.1853833999485,475.1846099999966,475.16792179993354,475.77498200000264,475.77498200000264,None,476.9618460999336,None,left,0.8790314999641851,476.9618460999336,None,477.8701038999716,None,left,0.5789334999863058,477.8701038999716,None,,,,,,,,,,,,,,,,,,,,,,,PPT46,001,2022-07-11_11h04.03.027,ABstudy,2022.1.4,59.87195784571678,
AB,Lag5_T1A_T2P,5,A,P,8,13,7,3,16,ladder,Did you see the ladder?,0.12,0.016,JPG\,apple07,toiletpaper01a,pizza,dandelion,greenolive,eraser,microscope,violin,orange,lipstick02a,balloon01b,sandal,stapler01,fan,book01b,sewingmachine01a,blankImage,ostrich,,,,,,,,,,,,0,60,60,269,,,,,,,,,,,,,,,,,,,,,,,,,,,,,,,,,,,478.47291509993374,479.4883730999427,479.4549877999816,480.0483871999895,480.0483871999895,None,481.97719829995185,None,right,1.4314954000292346,481.97719829995185,None,483.4258112999378,None,left,0.31190410000272095,483.4258112999378,None,,,,,,,,,,,,,,,,,,,,,,,PPT46,001,2022-07-11_11h04.03.027,ABstudy,2022.1.4,59.87195784571678,
AB,Lag5_T1P_T2P,5,P,P,8,13,7,5,18,Ping pong Table,Did you see the Ping pong Table?,0.12,0.016,JPG\,shirt02,match,screw02,foosballtable,blueberry01,pineapple01a,sewingmachine01a,pingpongtable,button01,comb02a,dice05a,measuringcup01,stapler04b,printer02,carrot01,watermelon01,blankImage,pingpongtable,,,,,,,,,,,,0,61,61,152,,,,,,,,,,,,,,,,,,,,,,,,,,,,,,,,,,,483.7668517999118,484.7770940999035,484.760242999997,485.35511669993866,485.35511669993866,None,487.3309007999487,None,left,0.35758179996628314,487.3309007999487,None,487.7132017998956,None,left,0.2629844000330195,487.7132017998956,None,,,,,,,,,,,,,,,,,,,,,,,PPT46,001,2022-07-11_11h04.03.027,ABstudy,2022.1.4,59.87195784571678,
AB,Lag5_T1A_T2A,5,A,A,7,12,6,3,15,Christmas lights,Did you see the Christmas lights?,0.12,0.016,JPG\,toiletpaper01a,mushroom01,medal02b,sandal,rice,cd,feather03a,pizza,candle08b,garlic01a,toaster01,belt02a,cigarette,violin,lemon02,blankImage,blankImage,rockbass,,,,,,,,,,,,0,62,62,299,,,,,,,,,,,,,,,,,,,,,,,,,,,,,,,,,,,488.00117369997315,489.0145643999567,488.997858799994,489.5856900999788,489.5856900999788,None,491.4082633999642,None,left,1.1120005999691784,491.4082633999642,None,492.55137279990595,None,right,0.21681919996626675,492.55137279990595,None,,,,,,,,,,,,,,,,,,,,,,,PPT46,001,2022-07-11_11h04.03.027,ABstudy,2022.1.4,59.87195784571678,
AB,Lag5_T1A_T2P,5,A,P,7,12,6,3,15,Car,Did you see the Car?,0.12,0.016,JPG\,lighter01,hammer01,spoon01,chain01,cymbal,sponge01,lipstick02a,alligator,pig,watermelon01,cauliflower01,stapler03b,broccoli01a,tableknife02,tennisball01b,blankImage,blankImage,wallclock,,,,,,,,,,,,0,63,63,277,,,,,,,,,,,,,,,,,,,,,,,,,,,,,,,,,,,492.7873789999867,493.80260569998063,493.7692495000083,494.35621579992585,494.35621579992585,None,496.24588889989536,None,right,0.8440005999291316,496.24588889989536,None,497.1224768999964,None,left,0.5984230999602005,497.1224768999964,None,,,,,,,,,,,,,,,,,,,,,,,PPT46,001,2022-07-11_11h04.03.027,ABstudy,2022.1.4,59.87195784571678,
AB,Lag1_T1P_T2P,1,P,P,8,9,7,3,12,Sheep,Did you see the Sheep?,0.12,0.016,JPG\,celery,orange,scissors01,balloon01b,avocado01,printer02,mushroom01,sheep,stapler03b,dice05a,ashtray01,fan,blankImage,blankImage,blankImage,blankImage,blankImage,sheep,,,,,,,,,,,,0,64,64,71,,,,,,,,,,,,,,,,,,,,,,,,,,,,,,,,,,,497.7490925999591,498.7574532999424,498.74083499994595,499.31609869992826,499.31609869992826,None,500.758408099995,None,left,0.8267018999904394,500.758408099995,None,501.61052159999963,None,left,0.413887899951078,501.61052159999963,None,,,,,,,,,,,,,,,,,,,,,,,PPT46,001,2022-07-11_11h04.03.027,ABstudy,2022.1.4,59.87195784571678,
AB,Lag1_T1P_T2P,1,P,P,5,6,4,4,10,Ladybug,Did you see the Ladybug?,0.12,0.016,JPG\,key01,apple07,ring01,leaf02a,ladybug03,stapler04b,violin,sponge01,baseball01a,thermometer02b,blankImage,blankImage,blankImage,blankImage,blankImage,blankImage,blankImage,ladybug03,,,,,,,,,,,,0,65,65,65,,,,,,,,,,,,,,,,,,,,,,,,,,,,,,,,,,,502.10695239994675,503.11382569989655,503.0970253999112,503.7713063999545,503.6871400999371,None,504.8525773999281,None,left,0.7156623000046238,504.8525773999281,None,505.59762709995266,None,right,0.2275494000641629,505.59762709995266,None,,,,,,,,,,,,,,,,,,,,,,,PPT46,001,2022-07-11_11h04.03.027,ABstudy,2022.1.4,59.87195784571678,
AB,Lag1_T1P_T2P,1,P,P,8,9,7,5,14,Waterfall,Did you see the Waterfall?,0.12,0.016,JPG\,pizza,watch02a,greenolive,cucumber,match,violin,scissors01,waterfall,stapler03a,cherry01,ring01,cigarette,microscope,cellphone,blankImage,blankImage,blankImage,waterfall,,,,,,,,,,,,0,66,66,52,,,,,,,,,,,,,,,,,,,,,,,,,,,,,,,,,,,505.8503785999492,506.8658143999055,506.8324029999785,507.4293249999173,507.4293249999173,None,509.1971889999695,None,right,0.8357949999626726,509.1971889999695,None,510.0526683999924,None,left,0.2515283999964595,510.0526683999924,None,,,,,,,,,,,,,,,,,,,,,,,PPT46,001,2022-07-11_11h04.03.027,ABstudy,2022.1.4,59.87195784571678,
AB,Lag1_T1P_T2A,1,P,A,7,8,6,4,12,Steering wheel,Did you see the Steering wheel?,0.12,0.016,JPG\,alligator,banana01,apple07,tomato01,button01,spoon01,steeringwheel,fork03c,canoftennisballs,potato02b,grape01,leaf02a,blankImage,blankImage,blankImage,blankImage,blankImage,steeringwheel,,,,,,,,,,,,0,67,67,198,,,,,,,,,,,,,,,,,,,,,,,,,,,,,,,,,,,510.3398491999833,511.3533936999738,511.3367336000083,511.83722479990683,511.83722479990683,None,513.3760509999702,None,left,2.5444352999329567,513.3760509999702,None,515.9413769999519,None,right,0.6185706000542268,515.9413769999519,None,,,,,,,,,,,,,,,,,,,,,,,PPT46,001,2022-07-11_11h04.03.027,ABstudy,2022.1.4,59.87195784571678,
AB,Lag5_T1P_T2A,5,P,A,6,11,5,5,16,fish,Did you see the fish?,0.12,0.016,JPG\,cucumber,ring01,lipstick02a,microscope,violin,redlionfish,celery,lighter01,cherry01,sewingmachine01a,belt02a,key01,binoculars01b,medal02b,watermelon01,dice05a,blankImage,redlionfish,,,,,,,,,,,,0,68,68,221,,,,,,,,,,,,,,,,,,,,,,,,,,,,,,,,,,,516.5942225999897,517.6096775999758,517.5762930999044,518.1514880999457,518.1514880999457,None,520.1189691999462,None,right,0.6258020999375731,520.1189691999462,None,520.7630028999411,None,right,0.8939564999891445,520.7630028999411,None,,,,,,,,,,,,,,,,,,,,,,,PPT46,001,2022-07-11_11h04.03.027,ABstudy,2022.1.4,59.87195784571678,
AB,Lag5_T1A_T2P,5,A,P,6,11,5,4,15,butterfly,Did you see the butterfly?,0.12,0.016,JPG\,comb02a,key01,medal02b,battery02b,lighter01,microscope,watermelon01,sandal,pig,cellphone,stapler06,calculator01,cymbal,clock04,cucumber,blankImage,blankImage,uprightpiano01,,,,,,,,,,,,0,69,69,276,,,,,,,,,,,,,,,,,,,,,,,,,,,,,,,,,,,521.6827327999054,522.6982963999035,522.6647783999797,523.2356523999479,523.2356523999479,None,525.0743796000024,None,right,0.8301042000530288,525.0743796000024,None,525.9348074999871,None,left,0.24974250001832843,525.9348074999871,None,,,,,,,,,,,,,,,,,,,,,,,PPT46,001,2022-07-11_11h04.03.027,ABstudy,2022.1.4,59.87195784571678,
AB,Lag5_T1P_T2P,5,P,P,5,10,4,5,15,penguin,Did you see the penguin?,0.12,0.016,JPG\,watermelon01,cigarette,pintofbeer,cymbal,penguin,feather03a,cherry01,broom01,battery02b,stapler05,baseball01a,iron01b,garlic01a,computerkeyboard02,pig,blankImage,blankImage,penguin,,,,,,,,,,,,0,70,70,137,,,,,,,,,,,,,,,,,,,,,,,,,,,,,,,,,,,526.2075035999296,527.2194554999005,527.2028440999566,527.8203085999703,527.8203085999703,None,529.5268900999799,None,left,0.5934460000135005,529.5268900999799,None,530.138412799919,None,left,0.18223509995732456,530.138412799919,None,,,,,,,,,,,,,,,,,,,,,,,PPT46,001,2022-07-11_11h04.03.027,ABstudy,2022.1.4,59.87195784571678,
AB,Lag1_T1P_T2A,1,P,A,6,7,5,3,10,Dragon fly,Did you see the Dragon fly?,0.12,0.016,JPG\,leaf02a,pear01,measuringcup01,cigarette,fan,dragonfly01,teabag,tableknife02,ring01,pencil01,blankImage,blankImage,blankImage,blankImage,blankImage,blankImage,blankImage,dragonfly01,,,,,,,,,,,,0,71,71,185,,,,,,,,,,,,,,,,,,,,,,,,,,,,,,,,,,,530.3420037999749,531.3564893999137,531.3397643999197,531.9743806999177,531.9029259999515,None,533.1745020999806,None,left,1.8821603999240324,533.1745020999806,None,535.0773264999734,None,right,0.538949599955231,535.0773264999734,None,,,,,,,,,,,,,,,,,,,,,,,PPT46,001,2022-07-11_11h04.03.027,ABstudy,2022.1.4,59.87195784571678,
AB,Lag1_T1A_T2P,1,A,P,8,9,7,5,14,calendar,Did you see the calendar?,0.12,0.016,JPG\,foosballtable,candy,envelope03a,microscope,pencil01,leaf02a,scissors01,watermelon01,stapler04b,dandelion,pineapple01a,hammer01,celery,thermometer02b,blankImage,blankImage,blankImage,trampoline,,,,,,,,,,,,0,72,72,245,,,,,,,,,,,,,,,,,,,,,,,,,,,,,,,,,,,535.6525387999136,536.6617137999274,536.6451021999819,537.1455366999144,537.1455366999144,None,538.9424281999236,None,right,1.1215987000614405,538.9424281999236,None,540.0822290999349,None,left,0.2457167999818921,540.0822290999349,None,,,,,,,,,,,,,,,,,,,,,,,PPT46,001,2022-07-11_11h04.03.027,ABstudy,2022.1.4,59.87195784571678,
AB,Lag1_T1P_T2P,1,P,P,8,9,7,3,12,bridge,Did you see the bridge?,0.12,0.016,JPG\,speaker04,sewingmachine01a,eraser,violin,globe,belt02a,sunglasses04,bridge,stapler01,greenolive,alligator,pear01,blankImage,blankImage,blankImage,blankImage,blankImage,bridge,,,,,,,,,,,,0,73,73,78,,,,,,,,,,,,,,,,,,,,,,,,,,,,,,,,,,,540.3543881999794,541.3667468999047,541.3500741999596,541.9309911999153,541.9309911999153,None,543.3988832999021,None,left,0.8824264000868425,543.3988832999021,None,544.3030935999705,None,right,0.6814894999843091,544.3030935999705,None,,,,,,,,,,,,,,,,,,,,,,,PPT46,001,2022-07-11_11h04.03.027,ABstudy,2022.1.4,59.87195784571678,
AB,Lag5_T1P_T2P,5,P,P,5,10,4,5,15,hockey puck,Did you see the hockey puck?,0.12,0.016,JPG\,chain01,pen04b,birthdaycandle,watermelon01,hockeypuck,scissors01,measuringcup01,candle01,hammer01,stapler06,ashtray01,feather03a,sewingmachine01a,thermometer02b,alligator,blankImage,blankImage,hockeypuck,,,,,,,,,,,,0,74,74,110,,,,,,,,,,,,,,,,,,,,,,,,,,,,,,,,,,,545.0111730999779,546.0214309999719,546.0047486999538,546.6030028999085,546.6030028999085,None,548.3484887999948,None,right,1.691558999940753,548.3484887999948,None,550.0587688999949,None,left,0.8376472999807447,550.0587688999949,None,,,,,,,,,,,,,,,,,,,,,,,PPT46,001,2022-07-11_11h04.03.027,ABstudy,2022.1.4,59.87195784571678,
AB,Lag1_T1A_T2P,1,A,P,5,6,4,3,9,Crown,Did you see the Crown?,0.12,0.016,JPG\,leaf02a,pear01,measuringcup01,cigarette,fan,stapler04b,teabag,tableknife02,ring01,blankImage,blankImage,blankImage,blankImage,blankImage,blankImage,blankImage,blankImage,arrow02,,,,,,,,,,,,0,75,75,248,,,,,,,,,,,,,,,,,,,,,,,,,,,,,,,,,,,550.9318411999848,551.9444092999911,551.9276709998958,552.5058754999191,552.5058754999191,None,553.6300682999426,None,right,0.7861760000232607,553.6300682999426,None,554.4469631999964,None,left,0.20929669996257871,554.4469631999964,None,,,,,,,,,,,,,,,,,,,,,,,PPT46,001,2022-07-11_11h04.03.027,ABstudy,2022.1.4,59.87195784571678,
AB,Lag5_T1P_T2P,5,P,P,6,11,5,4,15,fish,Did you see the fish?,0.12,0.016,JPG\,sock01a,spoon01,alligator,comb02a,printer02,rockbass,lamp04a,cymbal,greenolive,computerkeyboard02,stapler03a,scarf,teabag,watermelon01,battery02b,blankImage,blankImage,rockbass,,,,,,,,,,,,0,76,76,115,,,,,,,,,,,,,,,,,,,,,,,,,,,,,,,,,,,554.6879723999882,555.6975644999184,555.6808126999531,556.2653358998941,556.2653358998941,None,558.1722189999418,None,left,0.9244558999780566,558.1722189999418,None,559.1178547999589,None,right,0.3951393000315875,559.1178547999589,None,,,,,,,,,,,,,,,,,,,,,,,PPT46,001,2022-07-11_11h04.03.027,ABstudy,2022.1.4,59.87195784571678,
AB,Lag1_T1P_T2P,1,P,P,5,6,4,5,11,Basketball,Did you see the Basketball?,0.12,0.016,JPG\,pencil01,microscope,banana01,computerkeyboard02,basketball01,stapler04b,scissors01,sock01a,book01b,onion,dice05a,blankImage,blankImage,blankImage,blankImage,blankImage,blankImage,basketball01,,,,,,,,,,,,0,77,77,34,,,,,,,,,,,,,,,,,,,,,,,,,,,,,,,,,,,559.5457774999086,560.552177399979,560.5355614,561.107218899997,561.107218899997,None,562.4286468999926,None,left,1.1569817999843508,562.4286468999926,None,563.6070179999806,None,right,0.27351420000195503,563.6070179999806,None,,,,,,,,,,,,,,,,,,,,,,,PPT46,001,2022-07-11_11h04.03.027,ABstudy,2022.1.4,59.87195784571678,
AB,Lag5_T1P_T2P,5,P,P,6,11,5,4,15,punching bag,Did you see the punching bag?,0.12,0.016,JPG\,foosballtable,cigarette,pen04b,birthdaycandle,hammer01,punchingbag,binoculars01b,chain01,potato02b,cauliflower01,stapler04b,ashtray01,scarf,cellphone,calculator01,blankImage,blankImage,punchingbag,,,,,,,,,,,,0,78,78,156,,,,,,,,,,,,,,,,,,,,,,,,,,,,,,,,,,,563.9177914999891,564.9231778999092,564.9065202999627,565.4069868999068,565.4069868999068,None,567.3397345999256,None,left,0.4367233000230044,567.3397345999256,None,567.7931129999924,None,left,0.2244529000017792,567.7931129999924,None,,,,,,,,,,,,,,,,,,,,,,,PPT46,001,2022-07-11_11h04.03.027,ABstudy,2022.1.4,59.87195784571678,
AB,Lag1_T1A_T2P,1,A,P,8,9,7,3,12,porcupine,Did you see the porcupine?,0.12,0.016,JPG\,celery,orange,scissors01,balloon01b,avocado01,printer02,mushroom01,sewingmachine01a,stapler01,dice05a,ashtray01,fan,blankImage,blankImage,blankImage,blankImage,blankImage,drumstick,,,,,,,,,,,,0,79,79,233,,,,,,,,,,,,,,,,,,,,,,,,,,,,,,,,,,,568.0448550999863,569.0443183999741,569.0276921999175,569.6080420999788,569.6080420999788,None,571.0593582999427,None,right,1.1885411000112072,571.0593582999427,None,572.2656187999528,None,left,0.2784856000216678,572.2656187999528,None,,,,,,,,,,,,,,,,,,,,,,,PPT46,001,2022-07-11_11h04.03.027,ABstudy,2022.1.4,59.87195784571678,
AB,Lag1_T1A_T2P,1,A,P,8,9,7,3,12,elbow,Did you see the elbow?,0.12,0.016,JPG\,watermelon01,cigarette,faucet,cymbal,cauliflower01,feather03a,cherry01,broom01,stapler01,key01,baseball01a,iron01b,blankImage,blankImage,blankImage,blankImage,blankImage,cashregister01,,,,,,,,,,,,0,80,80,251,,,,,,,,,,,,,,,,,,,,,,,,,,,,,,,,,,,572.6402540999698,573.6488768999698,573.6322476000059,574.2130683999276,574.2130683999276,None,575.6260904999217,None,right,1.2382178000407293,575.6260904999217,None,576.8854989999672,None,right,0.8992409999482334,576.8854989999672,None,,,,,,,,,,,,,,,,,,,,,,,PPT46,001,2022-07-11_11h04.03.027,ABstudy,2022.1.4,59.87195784571678,
AB,Lag5_T1P_T2P,5,P,P,8,13,7,3,16,church,Did you see the church?,0.12,0.016,JPG\,clock01a,cellphone,toaster01,toothbrush03b,cauliflower01,microscope,comb02a,church,scarf,clock04,sponge01,iron01b,stapler06,celery,ring01,ashtray01,blankImage,church,,,,,,,,,,,,0,81,81,129,,,,,,,,,,,,,,,,,,,,,,,,,,,,,,,,,,,577.8072353999596,578.8210927000036,578.8039680999937,579.4032142999349,579.4032142999349,None,581.33294569992,None,right,1.0765643999911845,581.33294569992,None,582.4417597999563,None,left,0.26264830003492534,582.4417597999563,None,,,,,,,,,,,,,,,,,,,,,,,PPT46,001,2022-07-11_11h04.03.027,ABstudy,2022.1.4,59.87195784571678,
AB,Lag1_T1P_T2P,1,P,P,5,6,4,5,11,football,Did you see the football?,0.12,0.016,JPG\,globe,belt02a,sponge01,violin,soccerball,stapler01,clock01a,microscope,balloon01b,scarf,teabag,blankImage,blankImage,blankImage,blankImage,blankImage,blankImage,soccerball,,,,,,,,,,,,0,82,82,26,,,,,,,,,,,,,,,,,,,,,,,,,,,,,,,,,,,582.7970502999378,583.8090350999264,583.7923886999488,584.3873027999653,584.3873027999653,None,585.6335840999382,None,left,0.8946765000000596,585.6335840999382,None,586.5451355999103,None,left,0.35910290002357215,586.5451355999103,None,,,,,,,,,,,,,,,,,,,,,,,PPT46,001,2022-07-11_11h04.03.027,ABstudy,2022.1.4,59.87195784571678,
AB,Lag5_T1A_T2P,5,A,P,5,10,4,3,13,License Plate,Did you see the License Plate?,0.12,0.016,JPG\,tomato01,pen04b,shirt02,carrot01,lamp04a,key01,pizza,avocado01,sewingmachine01a,stapler06,iron01b,book01b,chain01,blankImage,blankImage,blankImage,blankImage,porcupine,,,,,,,,,,,,0,83,83,270,,,,,,,,,,,,,,,,,,,,,,,,,,,,,,,,,,,586.9308008999797,587.9297380999196,587.9132034999784,588.4899919999298,588.4899919999298,None,590.1060269000009,None,right,0.8627995999995619,590.1060269000009,None,590.9995233999798,None,left,0.3284954000264406,590.9995233999798,None,,,,,,,,,,,,,,,,,,,,,,,PPT46,001,2022-07-11_11h04.03.027,ABstudy,2022.1.4,59.87195784571678,
AB,Lag1_T1P_T2P,1,P,P,5,6,4,5,11,owl,Did you see the owl?,0.12,0.016,JPG\,cellphone,tomato01,comb02a,candy,barnowl,stapler03a,toaster01,fan,feather03a,pen04b,lemon02,blankImage,blankImage,blankImage,blankImage,blankImage,blankImage,barnowl,,,,,,,,,,,,0,84,84,33,,,,,,,,,,,,,,,,,,,,,,,,,,,,,,,,,,,591.3548525999067,592.3675379999913,592.3509022999788,592.9590708999895,592.9590708999895,None,594.3184493998997,None,left,1.0013860000763088,594.3184493998997,None,595.337192799896,None,right,0.2957723999861628,595.337192799896,None,,,,,,,,,,,,,,,,,,,,,,,PPT46,001,2022-07-11_11h04.03.027,ABstudy,2022.1.4,59.87195784571678,
AB,Lag1_T1P_T2A,1,P,A,6,7,5,5,12,foot,Did you see the foot?,0.12,0.016,JPG\,watermelon01,cigarette,weight04a,cymbal,cauliflower01,foot,cherry01,broom01,battery02b,key01,baseball01a,iron01b,blankImage,blankImage,blankImage,blankImage,blankImage,foot,,,,,,,,,,,,0,85,85,188,,,,,,,,,,,,,,,,,,,,,,,,,,,,,,,,,,,595.6602953999536,596.6718623999041,596.6551949999994,597.2476947999094,597.2476947999094,None,598.7386402999982,None,right,0.7252510999096557,598.7386402999982,None,599.4911527999211,None,right,1.3647761999163777,599.4911527999211,None,,,,,,,,,,,,,,,,,,,,,,,PPT46,001,2022-07-11_11h04.03.027,ABstudy,2022.1.4,59.87195784571678,
AB,Lag1_T1A_T2P,1,A,P,8,9,7,3,12,seal,Did you see the seal?,0.12,0.016,JPG\,dice05a,watch02a,pig,lighter01,button01,strawberry,paintbrush01,microscope,stapler03a,pen04b,feather03a,8ball,blankImage,blankImage,blankImage,blankImage,blankImage,hockeystick,,,,,,,,,,,,0,86,86,235,,,,,,,,,,,,,,,,,,,,,,,,,,,,,,,,,,,600.8909787999,601.8935560999671,601.8601929999422,602.4607559998985,602.4607559998985,None,603.9481259000022,None,right,1.308711399906315,603.9481259000022,None,605.2802499999525,None,left,1.0962906000204384,605.2802499999525,None,,,,,,,,,,,,,,,,,,,,,,,PPT46,001,2022-07-11_11h04.03.027,ABstudy,2022.1.4,59.87195784571678,
AB,Lag5_T1P_T2A,5,P,A,5,10,4,3,13,cork,Did you see the cork?,0.12,0.016,JPG\,clock01a,grape01,plate01b,key01,cork02,feather03a,pineapple01a,iron01b,toothbrush03b,comb02a,broom01,toaster01,pizza,blankImage,blankImage,blankImage,blankImage,cork02,,,,,,,,,,,,0,87,87,209,,,,,,,,,,,,,,,,,,,,,,,,,,,,,,,,,,,606.4005589999724,607.4156627999619,607.3823132999241,607.9645197999198,607.9645197999198,None,609.6580069999909,None,right,0.8220358999678865,609.6580069999909,None,610.5023081999971,None,right,0.7944673999445513,610.5023081999971,None,,,,,,,,,,,,,,,,,,,,,,,PPT46,001,2022-07-11_11h04.03.027,ABstudy,2022.1.4,59.87195784571678,
AB,Lag5_T1P_T2P,5,P,P,5,10,4,5,15,scorpion,Did you see the scorpion?,0.12,0.016,JPG\,fan,tomato01,candy,screwdriver04b,scorpion,cd,thermometer02b,apple07,button01,stapler01,brownsugar,lighter01,clock01a,envelope03a,clock04,blankImage,blankImage,scorpion,,,,,,,,,,,,0,88,88,97,,,,,,,,,,,,,,,,,,,,,,,,,,,,,,,,,,,611.3260186999105,612.3373935999116,612.3206783999922,612.9316506999312,612.9316506999312,None,614.710651399917,None,left,1.1371504000853747,614.710651399917,None,615.8740629999666,None,right,1.1497694000136107,615.8740629999666,None,,,,,,,,,,,,,,,,,,,,,,,PPT46,001,2022-07-11_11h04.03.027,ABstudy,2022.1.4,59.87195784571678,
AB,Lag1_T1A_T2P,1,A,P,8,9,7,5,14,clock,Did you see the clock?,0.12,0.016,JPG\,speaker04,sewingmachine01a,eraser,violin,globe,belt02a,sunglasses04,cymbal,stapler01,greenolive,alligator,pear01,watch02a,screwdriver04b,blankImage,blankImage,blankImage,peacock,,,,,,,,,,,,0,89,89,240,,,,,,,,,,,,,,,,,,,,,,,,,,,,,,,,,,,617.0443727999227,618.0595740999561,618.0262006999692,618.6164827999892,618.6164827999892,None,620.3384869999718,None,right,0.9815779000055045,620.3384869999718,None,621.346417499939,None,right,1.9498851000098512,621.346417499939,None,,,,,,,,,,,,,,,,,,,,,,,PPT46,001,2022-07-11_11h04.03.027,ABstudy,2022.1.4,59.87195784571678,
AB,Lag5_T1P_T2P,5,P,P,6,11,5,4,15,saxophone,Did you see the saxophone?,0.12,0.016,JPG\,pizza,strawberry,potato02b,speaker04,battery02b,saxophone,dice05a,cellphone,globe,banana01,stapler03b,baseball01a,toaster01,broom01,ring01,blankImage,blankImage,saxophone,,,,,,,,,,,,0,90,90,117,,,,,,,,,,,,,,,,,,,,,,,,,,,,,,,,,,,623.3213413999183,624.3327152999118,624.3160646999022,624.9072757998947,624.9072757998947,None,626.7279421999119,None,left,0.36945170001126826,626.7279421999119,None,627.11886399996,None,left,0.23323670006357133,627.11886399996,None,,,,,,,,,,,,,,,,,,,,,,,PPT46,001,2022-07-11_11h04.03.027,ABstudy,2022.1.4,59.87195784571678,
AB,Lag1_T1P_T2P,1,P,P,8,9,7,3,12,mail box,Did you see the mail box?,0.12,0.016,JPG\,paintbrush01,dice05a,watermelon01,broccoli01a,hammer01,leaf02a,match,mailbox01,stapler05,fan,lipstick02a,grape01,blankImage,blankImage,blankImage,blankImage,blankImage,mailbox01,,,,,,,,,,,,0,91,91,20,,,,,,,,,,,,,,,,,,,,,,,,,,,,,,,,,,,627.4367072999012,628.4371421999531,628.4205376999453,629.0096627000021,629.0096627000021,None,630.3983694999479,None,right,0.9778893999755383,630.3983694999479,None,631.4069791999646,None,left,0.1933295999187976,631.4069791999646,None,,,,,,,,,,,,,,,,,,,,,,,PPT46,001,2022-07-11_11h04.03.027,ABstudy,2022.1.4,59.87195784571678,
AB,Lag1_T1P_T2P,1,P,P,6,7,5,4,11,no parking sign,Did you see the no parking sign?,0.12,0.016,JPG\,fork03c,belt02a,grape01,computerkeyboard02,lemon02,parkingsign,stapler05,toiletpaper01a,toaster01,lipstick02a,book01b,blankImage,blankImage,blankImage,blankImage,blankImage,blankImage,parkingsign,,,,,,,,,,,,0,92,92,47,,,,,,,,,,,,,,,,,,,,,,,,,,,,,,,,,,,631.6360940999584,632.6414347999962,632.6246818999061,633.2097400999628,633.2097400999628,None,634.615329299937,None,left,2.641929400037043,634.615329299937,None,637.2787039999384,None,left,0.833654300076887,637.2787039999384,None,,,,,,,,,,,,,,,,,,,,,,,PPT46,001,2022-07-11_11h04.03.027,ABstudy,2022.1.4,59.87195784571678,
AB,Lag1_T1A_T2P,1,A,P,5,6,4,3,9,chimney,Did you see the chimney?,0.12,0.016,JPG\,cucumber,sponge01,alligator,pear01,ashtray01,stapler06,clock04,battery02b,fork03c,blankImage,blankImage,blankImage,blankImage,blankImage,blankImage,blankImage,blankImage,trophy01,,,,,,,,,,,,0,93,93,246,,,,,,,,,,,,,,,,,,,,,,,,,,,,,,,,,,,638.1319174999371,639.1472431999864,639.113862899947,639.6986809999216,639.6986809999216,None,640.8241631999845,None,right,1.543730599922128,640.8241631999845,None,642.400488199899,None,left,0.6953342999331653,642.400488199899,None,,,,,,,,,,,,,,,,,,,,,,,PPT46,001,2022-07-11_11h04.03.027,ABstudy,2022.1.4,59.87195784571678,
AB,Lag5_T1P_T2P,5,P,P,7,12,6,5,17,flower,Did you see the flower?,0.12,0.016,JPG\,leaf02a,pear01,measuringcup01,cigarette,fan,lemon02,lily,tableknife02,ring01,pencil01,cellphone,stapler01,carrot01,binoculars01b,sock01a,book01b,blankImage,lily,,,,,,,,,,,,0,94,94,134,,,,,,,,,,,,,,,,,,,,,,,,,,,,,,,,,,,643.1207549999235,644.1357827999163,644.1022540999111,644.6770201999461,644.6770201999461,None,646.7367861999664,None,left,0.3516171999508515,646.7367861999664,None,647.1054056999274,None,left,0.23881160002201796,647.1054056999274,None,,,,,,,,,,,,,,,,,,,,,,,PPT46,001,2022-07-11_11h04.03.027,ABstudy,2022.1.4,59.87195784571678,
AB,Lag1_T1A_T2A,1,A,A,5,6,4,4,10,rose,Did you see the rose?,0.12,0.016,JPG\,sock01a,spoon01,alligator,comb02a,printer02,medal02b,lamp04a,cymbal,greenolive,computerkeyboard02,blankImage,blankImage,blankImage,blankImage,blankImage,blankImage,blankImage,cruiseship,,,,,,,,,,,,0,95,95,293,,,,,,,,,,,,,,,,,,,,,,,,,,,,,,,,,,,647.371817199979,648.3731388999149,648.3564205999719,648.9525635999162,648.9525635999162,None,650.2268583999248,None,right,0.9092109000775963,650.2268583999248,None,651.159387899912,None,right,0.7457346000010148,651.159387899912,None,,,,,,,,,,,,,,,,,,,,,,,PPT46,001,2022-07-11_11h04.03.027,ABstudy,2022.1.4,59.87195784571678,
AB,Lag5_T1P_T2A,5,P,A,5,10,4,4,14,Ship in a bottle,Did you see the Ship in a bottle?,0.12,0.016,JPG\,sewingmachine01a,thermometer02b,sponge01,eraser,shipinabottle,fork03c,pizza,violin,belt02a,medal02b,pineapple01a,tennisball01b,dandelion,cauliflower01,blankImage,blankImage,blankImage,shipinabottle,,,,,,,,,,,,0,96,96,208,,,,,,,,,,,,,,,,,,,,,,,,,,,,,,,,,,,651.9336473000003,652.9445731999585,652.9278302999446,653.5180422998965,653.5180422998965,None,655.2794891999802,None,left,0.9282095999224111,655.2794891999802,None,656.2322055998957,None,right,0.3360052000498399,656.2322055998957,None,,,,,,,,,,,,,,,,,,,,,,,PPT46,001,2022-07-11_11h04.03.027,ABstudy,2022.1.4,59.87195784571678,
AB,Lag1_T1P_T2A,1,P,A,7,8,6,3,11,Seagull,Did you see the Seagull?,0.12,0.016,JPG\,toiletpaper01a,mushroom01,medal02b,sandal,rice,cd,seagull,pizza,candle08b,garlic01a,toaster01,blankImage,blankImage,blankImage,blankImage,blankImage,blankImage,seagull,,,,,,,,,,,,0,97,97,176,,,,,,,,,,,,,,,,,,,,,,,,,,,,,,,,,,,656.600254299934,657.6156077999622,657.5823499999242,658.1956945999991,658.1956945999991,None,659.540367999929,None,left,0.7958197999978438,659.540367999929,None,660.3686090999981,None,right,0.4793918998911977,660.3686090999981,None,,,,,,,,,,,,,,,,,,,,,,,PPT46,001,2022-07-11_11h04.03.027,ABstudy,2022.1.4,59.87195784571678,
AB,Lag5_T1A_T2P,5,A,P,6,11,5,3,14,keys,Did you see the keys?,0.12,0.016,JPG\,pencil01,microscope,banana01,computerkeyboard02,celery,cellphone,scissors01,sock01a,book01b,onion,stapler03a,binoculars01b,baseball01a,iron01b,blankImage,blankImage,blankImage,treadmill,,,,,,,,,,,,0,98,98,275,,,,,,,,,,,,,,,,,,,,,,,,,,,,,,,,,,,660.8722015999956,661.8867464999203,661.8533270999324,662.4209113999968,662.4209113999968,None,664.2206931998953,None,right,1.3067878000438213,664.2206931998953,None,665.5569363998948,None,left,0.25143099995329976,665.5569363998948,None,,,,,,,,,,,,,,,,,,,,,,,PPT46,001,2022-07-11_11h04.03.027,ABstudy,2022.1.4,59.87195784571678,
AB,Lag1_T1P_T2A,1,P,A,7,8,6,3,11,fish,Did you see the fish?,0.12,0.016,JPG\,rice,watermelon01,tableknife02,scarf,computerkeyboard02,cauliflower01,salmon,binoculars01b,book01b,sandal,sponge01,blankImage,blankImage,blankImage,blankImage,blankImage,blankImage,salmon,,,,,,,,,,,,0,99,99,179,,,,,,,,,,,,,,,,,,,,,,,,,,,,,,,,,,,665.84275969991,666.8582172999159,666.8248395998962,667.4046451000031,667.4046451000031,None,668.7567446999019,None,right,1.0755241999868304,668.7567446999019,None,669.8611453999765,None,right,0.7383919999701902,669.8611453999765,None,,,,,,,,,,,,,,,,,,,,,,,PPT46,001,2022-07-11_11h04.03.027,ABstudy,2022.1.4,59.87195784571678,
AB,Lag5_T1A_T2A,5,A,A,5,10,4,5,15,sword,Did you see the sword?,0.12,0.016,JPG\,pencil01,broccoli01a,button01,sponge01,watermelon01,lipstick02a,comb02a,fan,lighter01,sock01a,spoon01,blueberry01,belt02a,onion,grape01,blankImage,blankImage,parachute,,,,,,,,,,,,0,100,100,298,,,,,,,,,,,,,,,,,,,,,,,,,,,,,,,,,,,670.6311955999117,671.6462773999665,671.6129001999507,672.1910079999361,672.1910079999361,None,674.080505699967,None,right,0.928049199981615,674.080505699967,None,675.0330419999082,None,left,0.29539099999237806,675.0330419999082,None,,,,,,,,,,,,,,,,,,,,,,,PPT46,001,2022-07-11_11h04.03.027,ABstudy,2022.1.4,59.87195784571678,
AB,Lag1_T1P_T2P,1,P,P,7,8,6,3,11,cloud,Did you see the cloud?,0.12,0.016,JPG\,lighter01,hammer01,spoon01,chain01,cymbal,sponge01,cloud,stapler06,pig,watermelon01,cauliflower01,blankImage,blankImage,blankImage,blankImage,blankImage,blankImage,cloud,,,,,,,,,,,,0,101,101,36,,,,,,,,,,,,,,,,,,,,,,,,,,,,,,,,,,,675.3650305999909,676.3676309000002,676.3342329999432,676.9117013999494,676.9117013999494,None,678.2865725999,None,left,0.6579427000833675,678.2865725999,None,678.9704602999846,None,right,0.8292298999149352,678.9704602999846,None,,,,,,,,,,,,,,,,,,,,,,,PPT46,001,2022-07-11_11h04.03.027,ABstudy,2022.1.4,59.87195784571678,
AB,Lag5_T1P_T2P,5,P,P,5,10,4,5,15,Eye,Did you see the Eye?,0.12,0.016,JPG\,apple07,toiletpaper01a,pizza,dandelion,eye,eraser,microscope,violin,orange,stapler01,balloon01b,sandal,lighter01,fan,book01b,blankImage,blankImage,eye,,,,,,,,,,,,0,102,102,171,,,,,,,,,,,,,,,,,,,,,,,,,,,,,,,,,,,679.8216517999535,680.8223930000095,680.8057848999742,681.3961421999848,681.3961421999848,None,683.220370199997,None,left,0.8513113000662997,683.220370199997,None,684.0930947999004,None,right,0.2586174999596551,684.0930947999004,None,,,,,,,,,,,,,,,,,,,,,,,PPT46,001,2022-07-11_11h04.03.027,ABstudy,2022.1.4,59.87195784571678,
AB,Lag1_T1A_T2P,1,A,P,8,9,7,5,14,Wolf,Did you see the Wolf?,0.12,0.016,JPG\,carrot01,watch02a,clock04,microscope,toiletpaper01a,potato02b,alligator,ring01,stapler03b,watermelon01,cd,pencil01,measuringcup01,balloon01b,blankImage,blankImage,blankImage,dreamcatcher,,,,,,,,,,,,0,103,103,253,,,,,,,,,,,,,,,,,,,,,,,,,,,,,,,,,,,684.3867074999725,685.3933654999128,685.3766561999219,685.9563444999512,685.9563444999512,None,687.6759112,None,right,0.7241271999664605,687.6759112,None,688.4295942999888,None,left,0.16233960003592074,688.4295942999888,None,,,,,,,,,,,,,,,,,,,,,,,PPT46,001,2022-07-11_11h04.03.027,ABstudy,2022.1.4,59.87195784571678,
AB,Lag1_T1A_T2P,1,A,P,5,6,4,5,11,rake,Did you see the rake?,0.12,0.016,JPG\,candy,brownsugar,dice05a,cd,sock01a,stapler01,button01,potato02b,feather03a,grape01,dandelion,blankImage,blankImage,blankImage,blankImage,blankImage,blankImage,greatwhiteshark,,,,,,,,,,,,0,104,104,256,,,,,,,,,,,,,,,,,,,,,,,,,,,,,,,,,,,688.6152246999554,689.6308511999669,689.5974555999273,690.1735357999569,690.1735357999569,None,691.4494627999375,None,left,0.935268500004895,691.4494627999375,None,692.4169918999542,None,left,1.0705760000273585,692.4169918999542,None,,,,,,,,,,,,,,,,,,,,,,,PPT46,001,2022-07-11_11h04.03.027,ABstudy,2022.1.4,59.87195784571678,
AB,Lag5_T1P_T2P,5,P,P,8,13,7,5,18,bed,Did you see the bed?,0.12,0.016,JPG\,pencil01,broccoli01a,button01,sponge01,watermelon01,lipstick02a,comb02a,bed,lighter01,sock01a,spoon01,blueberry01,stapler04b,onion,grape01,avocado01,blankImage,bed,,,,,,,,,,,,0,105,105,124,,,,,,,,,,,,,,,,,,,,,,,,,,,,,,,,,,,693.5210580999264,694.5357284999918,694.5023486999562,695.0724562999094,695.0724562999094,None,697.0133496999042,None,left,0.9071757000638172,697.0133496999042,None,697.939320400008,None,left,0.3250642999773845,697.939320400008,None,,,,,,,,,,,,,,,,,,,,,,,PPT46,001,2022-07-11_11h04.03.027,ABstudy,2022.1.4,59.87195784571678,
AB,Lag1_T1A_T2P,1,A,P,8,9,7,4,13,Fireplace,Did you see the Fireplace?,0.12,0.016,JPG\,scissors01,ashtray01,garlic01a,medal02b,cigarette,candle08b,leaf02a,envelope03a,stapler06,rice,toiletpaper01a,greenolive,cymbal,blankImage,blankImage,blankImage,blankImage,dartboard,,,,,,,,,,,,0,106,106,252,,,,,,,,,,,,,,,,,,,,,,,,,,,,,,,,,,,698.2959150999086,699.3073460999876,699.2907275999896,699.864282399998,699.864282399998,None,701.3589051999152,None,right,1.2564493999816477,701.3589051999152,None,702.6440310999751,None,left,0.33223389997147024,702.6440310999751,None,,,,,,,,,,,,,,,,,,,,,,,PPT46,001,2022-07-11_11h04.03.027,ABstudy,2022.1.4,59.87195784571678,
AB,Lag1_T1P_T2P,1,P,P,6,7,5,3,10,spider web,Did you see the spider web?,0.12,0.016,JPG\,toaster01,chain01,sponge01,baseball01a,carrot01,spiderweb,stapler03b,iron01b,grape01,brick,blankImage,blankImage,blankImage,blankImage,blankImage,blankImage,blankImage,spiderweb,,,,,,,,,,,,0,107,107,72,,,,,,,,,,,,,,,,,,,,,,,,,,,,,,,,,,,703.0017508999445,704.0120335000101,703.9954693999607,704.5676215999993,704.5676215999993,None,705.8387476999778,None,left,1.5926562999375165,705.8387476999778,None,707.4485830999911,None,left,0.24707659997511655,707.4485830999911,None,,,,,,,,,,,,,,,,,,,,,,,PPT46,001,2022-07-11_11h04.03.027,ABstudy,2022.1.4,59.87195784571678,
AB,Lag5_T1P_T2P,5,P,P,7,12,6,5,17,tie,Did you see the tie?,0.12,0.016,JPG\,iron01b,orange,birthdaycandle,potato02b,cauliflower01,pencil01,tie02,candle08b,celery,tableknife02,pen04b,stapler06,ring01,rice,lemon02,tomato01,blankImage,tie02,,,,,,,,,,,,0,108,108,161,,,,,,,,,,,,,,,,,,,,,,,,,,,,,,,,,,,707.7178533999249,708.7331670999993,708.6998367999913,709.2733566999668,709.2733566999668,None,711.2279814999783,None,left,0.8597395999822766,711.2279814999783,None,712.1199524999829,None,left,0.22405499999877065,712.1199524999829,None,,,,,,,,,,,,,,,,,,,,,,,PPT46,001,2022-07-11_11h04.03.027,ABstudy,2022.1.4,59.87195784571678,
AB,Lag5_T1P_T2P,5,P,P,8,13,7,4,17,butterfly,Did you see the butterfly?,0.12,0.016,JPG\,speaker04,sewingmachine01a,eraser,violin,globe,belt02a,sunglasses04,butterfly,cd,greenolive,alligator,pear01,stapler01,screwdriver04b,banana01,cigarette,blankImage,butterfly,,,,,,,,,,,,0,109,109,126,,,,,,,,,,,,,,,,,,,,,,,,,,,,,,,,,,,712.3740761999507,713.387875599903,713.3711899999762,713.9616613999242,713.9616613999242,None,715.8793741998961,None,left,0.8320767000550404,715.8793741998961,None,716.7411919999868,None,left,1.298848900012672,716.7411919999868,None,,,,,,,,,,,,,,,,,,,,,,,PPT46,001,2022-07-11_11h04.03.027,ABstudy,2022.1.4,59.87195784571678,
AB,Lag5_T1P_T2P,5,P,P,8,13,7,3,16,Chefs hat,Did you see the Chefs hat?,0.12,0.016,JPG\,rice,watermelon01,tableknife02,scarf,computerkeyboard02,cauliflower01,battery02b,chefshat,book01b,sandal,sponge01,microscope,stapler01,fork03c,thermometer02b,apple07,blankImage,chefshat,,,,,,,,,,,,0,110,110,128,,,,,,,,,,,,,,,,,,,,,,,,,,,,,,,,,,,718.1108229999663,719.1104290999938,719.0937091999222,719.6698096999899,719.6698096999899,None,721.604311699979,None,right,0.6029583000345156,721.604311699979,None,722.2309243999189,None,left,0.4573810000438243,722.2309243999189,None,,,,,,,,,,,,,,,,,,,,,,,PPT46,001,2022-07-11_11h04.03.027,ABstudy,2022.1.4,59.87195784571678,
AB,Lag5_T1P_T2P,5,P,P,6,11,5,5,16,Parking meter,Did you see the Parking meter?,0.12,0.016,JPG\,dice05a,watch02a,pig,lighter01,button01,parkingmeter,paintbrush01,microscope,plate01b,pen04b,stapler03b,weight04a,carrot01,shirt02,globe,garlic01a,blankImage,parkingmeter,,,,,,,,,,,,0,111,111,172,,,,,,,,,,,,,,,,,,,,,,,,,,,,,,,,,,,722.7212881000014,723.7317166998982,723.7149936999194,724.3072604999179,724.3072604999179,None,726.3028312999522,None,right,1.0732666000258178,726.3028312999522,None,727.4018026998965,None,right,0.6459132999880239,727.4018026998965,None,,,,,,,,,,,,,,,,,,,,,,,PPT46,001,2022-07-11_11h04.03.027,ABstudy,2022.1.4,59.87195784571678,
AB,Lag5_T1A_T2P,5,A,P,7,12,6,3,15,hockey puck,Did you see the hockey puck?,0.12,0.016,JPG\,toiletpaper01a,lipstick02a,potato02b,speaker04,globe,strawberry,carrot01,plate01b,sock01a,candle08b,pen04b,stapler04b,foosballtable,brick,pear01,blankImage,blankImage,frisbee,,,,,,,,,,,,0,112,112,260,,,,,,,,,,,,,,,,,,,,,,,,,,,,,,,,,,,728.0723239999497,729.0868510999717,729.070166099933,729.660509099951,729.660509099951,None,731.4659338999772,None,right,0.5107284999685362,731.4659338999772,None,732.007022799924,None,right,0.7282834999496117,732.007022799924,None,,,,,,,,,,,,,,,,,,,,,,,PPT46,001,2022-07-11_11h04.03.027,ABstudy,2022.1.4,59.87195784571678,
AB,Lag5_T1P_T2P,5,P,P,7,12,6,5,17,statue,Did you see the statue?,0.12,0.016,JPG\,pear01,clock01a,cymbal,match,ashtray01,globe,statue,button01,lemon02,pen04b,dice05a,stapler06,toothbrush03b,screwdriver04b,feather03a,key01,blankImage,statue,,,,,,,,,,,,0,113,113,100,,,,,,,,,,,,,,,,,,,,,,,,,,,,,,,,,,,732.7611413999693,733.7749864999205,733.7583513999125,734.3402242999291,734.3402242999291,None,736.3278663000092,None,left,0.7998907999135554,736.3278663000092,None,737.1450870999834,None,left,0.26275440002791584,737.1450870999834,None,,,,,,,,,,,,,,,,,,,,,,,PPT46,001,2022-07-11_11h04.03.027,ABstudy,2022.1.4,59.87195784571678,
AB,Lag1_T1A_T2A,1,A,A,8,9,7,4,13,sword fish,Did you see the sword fish?,0.12,0.016,JPG\,pizza,strawberry,potato02b,speaker04,battery02b,iron01b,dice05a,cellphone,globe,banana01,medal02b,baseball01a,toaster01,blankImage,blankImage,blankImage,blankImage,ear,,,,,,,,,,,,0,114,114,295,,,,,,,,,,,,,,,,,,,,,,,,,,,,,,,,,,,737.4367800999898,738.4463520999998,738.4297155999811,739.0101966999937,739.0101966999937,None,740.5911018999759,None,right,1.0097736000316218,740.5911018999759,None,741.6327442999464,None,right,0.2792775999987498,741.6327442999464,None,,,,,,,,,,,,,,,,,,,,,,,PPT46,001,2022-07-11_11h04.03.027,ABstudy,2022.1.4,59.87195784571678,
AB,Lag1_T1A_T2A,1,A,A,6,7,5,5,12,flamingo,Did you see the flamingo?,0.12,0.016,JPG\,chain01,pen04b,birthdaycandle,watermelon01,broom01,scissors01,measuringcup01,candle01,hammer01,calculator01,ashtray01,feather03a,blankImage,blankImage,blankImage,blankImage,blankImage,witchhat,,,,,,,,,,,,0,115,115,288,,,,,,,,,,,,,,,,,,,,,,,,,,,,,,,,,,,741.9387209999841,742.950803799904,742.9341014999663,743.510765099898,743.510765099898,None,744.9615592999617,None,right,0.9181359999347478,744.9615592999617,None,745.9038193000015,None,right,0.5917147001018748,745.9038193000015,None,,,,,,,,,,,,,,,,,,,,,,,PPT46,001,2022-07-11_11h04.03.027,ABstudy,2022.1.4,59.87195784571678,
AB,Lag5_T1P_T2P,5,P,P,7,12,6,4,16,Bird feeder,Did you see the Bird feeder?,0.12,0.016,JPG\,watermelon01,banana01,ring01,pencil01,tomato01,speaker04,birdfeeder,thermometer02b,key01,foosballtable,violin,stapler06,clock04,dice05a,pen04b,mushroom01,blankImage,birdfeeder,,,,,,,,,,,,0,116,116,164,,,,,,,,,,,,,,,,,,,,,,,,,,,,,,,,,,,746.5279349999037,747.5384852999123,747.5218025000067,748.1100344998995,748.1100344998995,None,750.0847015999025,None,right,0.8430919999955222,750.0847015999025,None,750.95944399992,None,left,0.23198779998347163,750.95944399992,None,,,,,,,,,,,,,,,,,,,,,,,PPT46,001,2022-07-11_11h04.03.027,ABstudy,2022.1.4,59.87195784571678,
AB,Lag1_T1P_T2P,1,P,P,5,6,4,5,11,candy cane,Did you see the candy cane?,0.12,0.016,JPG\,shirt02,match,screw02,foosballtable,candycane01a,stapler04b,sewingmachine01a,watch02a,button01,comb02a,dice05a,blankImage,blankImage,blankImage,blankImage,blankImage,blankImage,candycane01a,,,,,,,,,,,,0,117,117,9,,,,,,,,,,,,,,,,,,,,,,,,,,,,,,,,,,,751.2641474999255,752.2785252999747,752.2617381999735,752.8957816999173,752.8957816999173,None,754.1747573999455,None,left,1.1854821000015363,754.1747573999455,None,755.3799231000012,None,right,0.46030840009916574,755.3799231000012,None,,,,,,,,,,,,,,,,,,,,,,,PPT46,001,2022-07-11_11h04.03.027,ABstudy,2022.1.4,59.87195784571678,
AB,Lag1_T1P_T2P,1,P,P,8,9,7,5,14,lawn mower,Did you see the lawn mower?,0.12,0.016,JPG\,battery02b,sunglasses04,pear01,tennisball01b,clock01a,speaker04,binoculars01b,lawnmower,stapler05,pineapple01a,avocado01,grape01,blueberry01,violin,blankImage,blankImage,blankImage,lawnmower,,,,,,,,,,,,0,118,118,46,,,,,,,,,,,,,,,,,,,,,,,,,,,,,,,,,,,755.8696246999316,756.8809554999461,756.8642361999955,757.4481116000097,757.4481116000097,None,759.2596304999897,None,left,0.3890699000330642,759.2596304999897,None,759.6674381999765,None,left,0.1802384000038728,759.6674381999765,None,,,,,,,,,,,,,,,,,,,,,,,PPT46,001,2022-07-11_11h04.03.027,ABstudy,2022.1.4,59.87195784571678,
AB,Lag5_T1P_T2P,5,P,P,6,11,5,5,16,Car,Did you see the Car?,0.12,0.016,JPG\,leaf02a,apple07,cd,pineapple01a,envelope03a,car,pig,canoftennisballs,rice,feather03a,stapler03a,balloon01b,avocado01,calculator01,watermelon01,teabag,blankImage,car,,,,,,,,,,,,0,119,119,127,,,,,,,,,,,,,,,,,,,,,,,,,,,,,,,,,,,759.872679199907,760.8853317999747,760.8685968999052,761.4573513999349,761.4573513999349,None,763.4152447999222,None,left,0.39285459998063743,763.4152447999222,None,763.8382653999142,None,left,0.21002970007248223,763.8382653999142,None,,,,,,,,,,,,,,,,,,,,,,,PPT46,001,2022-07-11_11h04.03.027,ABstudy,2022.1.4,59.87195784571678,
AB,Lag5_T1P_T2A,5,P,A,8,13,7,4,17,knife,Did you see the knife?,0.12,0.016,JPG\,lighter01,hammer01,spoon01,chain01,cymbal,sponge01,lipstick02a,knife03,pig,watermelon01,cauliflower01,lemon02,broccoli01a,tableknife02,tennisball01b,toothbrush03b,blankImage,knife03,,,,,,,,,,,,0,120,120,214,,,,,,,,,,,,,,,,,,,,,,,,,,,,,,,,,,,764.0771186999045,765.0893239999423,765.0726676000049,765.6727736999746,765.6727736999746,None,767.5979591999203,None,left,0.8412767000263557,767.5979591999203,None,768.4605380999856,None,right,0.987537799985148,768.4605380999856,None,,,,,,,,,,,,,,,,,,,,,,,PPT46,001,2022-07-11_11h04.03.027,ABstudy,2022.1.4,59.87195784571678,
AB,Lag5_T1A_T2P,5,A,P,6,11,5,5,16,bed,Did you see the bed?,0.12,0.016,JPG\,cellphone,tomato01,comb02a,candy,celery,cucumber,toaster01,fan,feather03a,pen04b,stapler03b,blueberry01,plate01b,cherry01,baseball01a,candle08b,blankImage,toolbox02,,,,,,,,,,,,0,121,121,274,,,,,,,,,,,,,,,,,,,,,,,,,,,,,,,,,,,769.4866141999373,770.4946762999753,770.4779890999198,771.0621892999625,771.0621892999625,None,773.0202877999982,None,right,0.8748189999023452,773.0202877999982,None,773.9147095999215,None,right,1.0296811999287456,773.9147095999215,None,,,,,,,,,,,,,,,,,,,,,,,PPT46,001,2022-07-11_11h04.03.027,ABstudy,2022.1.4,59.87195784571678,
AB,Lag5_T1P_T2P,5,P,P,6,11,5,5,16,motorcycle,Did you see the motorcycle?,0.12,0.016,JPG\,cucumber,ring01,lipstick02a,microscope,violin,motorcycle,celery,lighter01,cherry01,sewingmachine01a,stapler04b,key01,binoculars01b,medal02b,watermelon01,dice05a,blankImage,motorcycle,,,,,,,,,,,,0,122,122,93,,,,,,,,,,,,,,,,,,,,,,,,,,,,,,,,,,,774.9681309999432,775.983464299934,775.9501276999945,776.5327973999083,776.5327973999083,None,778.5123266999144,None,left,0.390940000070259,778.5123266999144,None,778.919733399991,None,left,0.2554760000202805,778.919733399991,None,,,,,,,,,,,,,,,,,,,,,,,PPT46,001,2022-07-11_11h04.03.027,ABstudy,2022.1.4,59.87195784571678,
AB,Lag1_T1P_T2A,1,P,A,5,6,4,4,10,paper airplane,Did you see the paper airplane?,0.12,0.016,JPG\,thermometer02b,avocado01,scissors01,tennisball01b,paperairplane,banana01,strawberry,cigarette,potato02b,pineapple01a,blankImage,blankImage,blankImage,blankImage,blankImage,blankImage,blankImage,paperairplane,,,,,,,,,,,,0,123,123,191,,,,,,,,,,,,,,,,,,,,,,,,,,,,,,,,,,,779.2074007999618,780.2212277000071,780.2045696999412,780.7959084999748,780.7959084999748,None,782.025063399924,None,right,1.0140749000711367,782.025063399924,None,783.0574239999987,None,right,0.9742179999593645,783.0574239999987,None,,,,,,,,,,,,,,,,,,,,,,,PPT46,001,2022-07-11_11h04.03.027,ABstudy,2022.1.4,59.87195784571678,
AB,Lag5_T1P_T2P,5,P,P,6,11,5,4,15,Witch hat,Did you see the Witch hat?,0.12,0.016,JPG\,pizza,watch02a,greenolive,cucumber,match,witchhat,scissors01,broom01,globe,cherry01,stapler03a,cigarette,microscope,cellphone,speaker04,blankImage,blankImage,witchhat,,,,,,,,,,,,0,124,124,101,,,,,,,,,,,,,,,,,,,,,,,,,,,,,,,,,,,784.1142226000084,785.1264801999787,785.1098650000058,785.7095485999016,785.7095485999016,None,787.427481599967,None,left,0.4212915999814868,787.427481599967,None,787.8788877999177,None,left,0.16811470000538975,787.8788877999177,None,,,,,,,,,,,,,,,,,,,,,,,PPT46,001,2022-07-11_11h04.03.027,ABstudy,2022.1.4,59.87195784571678,
AB,Lag1_T1P_T2P,1,P,P,6,7,5,4,11,Bow,Did you see the Bow?,0.12,0.016,JPG\,broom01,plate01b,scissors01,garlic01a,paintbrush01,bow,stapler03a,shirt02,speaker04,celery,sandal,blankImage,blankImage,blankImage,blankImage,blankImage,blankImage,bow,,,,,,,,,,,,0,125,125,53,,,,,,,,,,,,,,,,,,,,,,,,,,,,,,,,,,,788.0835985000012,789.0967664999189,789.0800662999973,789.7212637999328,789.6506821999792,None,791.0942376999883,None,left,0.6332066999748349,791.0942376999883,None,791.7492258999264,None,right,0.9544955999590456,791.7492258999264,None,,,,,,,,,,,,,,,,,,,,,,,PPT46,001,2022-07-11_11h04.03.027,ABstudy,2022.1.4,59.87195784571678,
AB,Lag5_T1A_T2P,5,A,P,7,12,6,4,16,hand,Did you see the hand?,0.12,0.016,JPG\,celery,tennisball01b,calculator01,pear01,screw02,orange,button01,cellphone,onion,apple07,iron01b,stapler05,banana01,paintbrush01,dandelion,toothbrush03b,blankImage,bull,,,,,,,,,,,,0,126,126,281,,,,,,,,,,,,,,,,,,,,,,,,,,,,,,,,,,,792.7486636999529,793.7508127999026,793.7175537999719,794.3035290999105,794.3035290999105,None,796.249339699978,None,right,0.7338670999743044,796.249339699978,None,797.0045946999453,None,right,0.6121130000101402,797.0045946999453,None,,,,,,,,,,,,,,,,,,,,,,,PPT46,001,2022-07-11_11h04.03.027,ABstudy,2022.1.4,59.87195784571678,
AB,Lag5_T1P_T2P,5,P,P,7,12,6,5,17,elbow,Did you see the elbow?,0.12,0.016,JPG\,candle01,fork03c,plate01b,violin,computerkeyboard02,candy,elbow,paintbrush01,cherry01,sock01a,teabag,stapler01,cd,lighter01,book01b,tennisball01b,blankImage,elbow,,,,,,,,,,,,0,127,127,87,,,,,,,,,,,,,,,,,,,,,,,,,,,,,,,,,,,797.6441742999014,798.6562261999352,798.6394339998951,799.2184815999353,799.2184815999353,None,801.2838747999631,None,left,0.012215599999763072,801.2838747999631,None,801.3114260999719,None,left,0.20887470000889152,801.3114260999719,None,,,,,,,,,,,,,,,,,,,,,,,PPT46,001,2022-07-11_11h04.03.027,ABstudy,2022.1.4,59.87195784571678,
AB,Lag5_T1P_T2P,5,P,P,5,10,4,3,13,Jellyfish,Did you see the Jellyfish?,0.12,0.016,JPG\,printer02,envelope03a,potato02b,calculator01,jellyfish,cigarette,ashtray01,pig,broom01,stapler06,candle08b,battery02b,strawberry,blankImage,blankImage,blankImage,blankImage,jellyfish,,,,,,,,,,,,0,128,128,91,,,,,,,,,,,,,,,,,,,,,,,,,,,,,,,,,,,801.5500168999424,802.5602920999518,802.543577299919,803.1361577999778,803.1361577999778,None,804.713967599906,None,left,0.3900312000187114,804.713967599906,None,805.1294268999482,None,left,0.11771520006004721,805.1294268999482,None,,,,,,,,,,,,,,,,,,,,,,,PPT46,001,2022-07-11_11h04.03.027,ABstudy,2022.1.4,59.87195784571678,
AB,Lag5_T1P_T2P,5,P,P,7,12,6,4,16,Fireplace,Did you see the Fireplace?,0.12,0.016,JPG\,printer02,leaf02a,cauliflower01,sock01a,brownsugar,paintbrush01,fireplace,orange,belt02a,shirt02,key01,stapler01,cigarette,scissors01,envelope03a,blueberry01,blankImage,fireplace,,,,,,,,,,,,0,129,129,88,,,,,,,,,,,,,,,,,,,,,,,,,,,,,,,,,,,805.2828620999353,806.2972439998994,806.2638701999094,806.8550497998949,806.8550497998949,None,808.7864614999853,None,left,0.8934860998997465,808.7864614999853,None,809.7004272999475,None,left,0.18037710001226515,809.7004272999475,None,,,,,,,,,,,,,,,,,,,,,,,PPT46,001,2022-07-11_11h04.03.027,ABstudy,2022.1.4,59.87195784571678,
AB,Lag5_T1P_T2P,5,P,P,5,10,4,5,15,Bee,Did you see the Bee?,0.12,0.016,JPG\,fork03c,dandelion,dice05a,belt02a,honeybee,watch02a,key01,globe,eraser,stapler03a,greenolive,shirt02,candle08b,cigarette,garlic01a,blankImage,blankImage,honeybee,,,,,,,,,,,,0,130,130,149,,,,,,,,,,,,,,,,,,,,,,,,,,,,,,,,,,,809.9035322999116,810.9182616999606,810.8849750999361,811.4554195000092,811.4554195000092,None,813.3610314999241,None,left,0.39049660007003695,813.3610314999241,None,813.7714989999076,None,left,0.18841190007515252,813.7714989999076,None,,,,,,,,,,,,,,,,,,,,,,,PPT46,001,2022-07-11_11h04.03.027,ABstudy,2022.1.4,59.87195784571678,
AB,Lag1_T1A_T2P,1,A,P,6,7,5,5,12,Treadmill,Did you see the Treadmill?,0.12,0.016,JPG\,pencil01,broccoli01a,button01,sponge01,watermelon01,lipstick02a,stapler04b,fan,lighter01,sock01a,spoon01,blueberry01,blankImage,blankImage,blankImage,blankImage,blankImage,magneticcompass,,,,,,,,,,,,0,131,131,238,,,,,,,,,,,,,,,,,,,,,,,,,,,,,,,,,,,813.9924687999301,815.0058800999541,814.9892065000022,815.5749997999519,815.5749997999519,None,817.060976699926,None,right,0.9958515000762418,817.060976699926,None,818.07554599992,None,left,0.4286729000741616,818.07554599992,None,,,,,,,,,,,,,,,,,,,,,,,PPT46,001,2022-07-11_11h04.03.027,ABstudy,2022.1.4,59.87195784571678,
AB,Lag5_T1P_T2P,5,P,P,7,12,6,4,16,window,Did you see the window?,0.12,0.016,JPG\,cigarette,pig,banana01,strawberry,clock01a,plate01b,dormer,blueberry01,battery02b,pineapple01a,chain01,stapler01,candy,pen04b,teabag,birthdaycandle,blankImage,dormer,,,,,,,,,,,,0,132,132,170,,,,,,,,,,,,,,,,,,,,,,,,,,,,,,,,,,,818.5303204999072,819.543702099938,819.5270629998995,820.138908199966,820.138908199966,None,821.9622069000034,None,left,0.31775799999013543,821.9622069000034,None,822.2980484999716,None,left,0.3176158999558538,822.2980484999716,None,,,,,,,,,,,,,,,,,,,,,,,PPT46,001,2022-07-11_11h04.03.027,ABstudy,2022.1.4,59.87195784571678,
AB,Lag5_T1P_T2P,5,P,P,7,12,6,5,17,Badminton Racket,Did you see the Badminton Racket?,0.12,0.016,JPG\,paintbrush01,dice05a,watermelon01,broccoli01a,hammer01,leaf02a,badmintonracket,tennisball01b,lemon02,fan,lipstick02a,stapler04b,envelope03a,sponge01,foosballtable,orange,blankImage,badmintonracket,,,,,,,,,,,,0,133,133,163,,,,,,,,,,,,,,,,,,,,,,,,,,,,,,,,,,,822.6537122000009,823.6643813999835,823.6479074999224,824.2176250999328,824.2176250999328,None,826.1503831999144,None,left,0.3925961999921128,826.1503831999144,None,826.5674527999945,None,left,1.048097199993208,826.5674527999945,None,,,,,,,,,,,,,,,,,,,,,,,PPT46,001,2022-07-11_11h04.03.027,ABstudy,2022.1.4,59.87195784571678,
AB,Lag5_T1P_T2A,5,P,A,8,13,7,3,16,Shelves,Did you see the Shelves?,0.12,0.016,JPG\,pineapple01a,leaf02a,grape01,toiletpaper01a,match,tennisball01b,spoon01,shelves,pig,measuringcup01,ring01,lemon02,dice05a,pizza,potato02b,eraser,blankImage,shelves,,,,,,,,,,,,0,134,134,222,,,,,,,,,,,,,,,,,,,,,,,,,,,,,,,,,,,827.6751201999141,828.6866582999937,828.6699916999787,829.2630572000053,829.2630572000053,None,831.17086069996,None,left,1.092566299950704,831.17086069996,None,832.2895207999973,None,right,0.22971380001399666,832.2895207999973,None,,,,,,,,,,,,,,,,,,,,,,,PPT46,001,2022-07-11_11h04.03.027,ABstudy,2022.1.4,59.87195784571678,
AB,Lag5_T1A_T2P,5,A,P,5,10,4,4,14,Chefs hat,Did you see the Chefs hat?,0.12,0.016,JPG\,candle01,fork03c,plate01b,violin,computerkeyboard02,candy,calculator01,paintbrush01,cherry01,stapler06,teabag,banana01,cd,lighter01,blankImage,blankImage,blankImage,horseshoe,,,,,,,,,,,,0,135,135,278,,,,,,,,,,,,,,,,,,,,,,,,,,,,,,,,,,,832.542996199918,833.557463599951,833.5240657998947,834.0937114999397,834.0937114999397,None,835.8656402999768,None,right,0.8933683999348432,835.8656402999768,None,836.7773794999812,None,right,1.7103099999949336,836.7773794999812,None,,,,,,,,,,,,,,,,,,,,,,,PPT46,001,2022-07-11_11h04.03.027,ABstudy,2022.1.4,59.87195784571678,
AB,Lag1_T1A_T2P,1,A,P,5,6,4,3,9,Spider,Did you see the Spider?,0.12,0.016,JPG\,pen04b,speaker04,lighter01,cherry01,8ball,stapler04b,sock01a,toothbrush03b,broom01,blankImage,blankImage,blankImage,blankImage,blankImage,blankImage,blankImage,blankImage,bridge,,,,,,,,,,,,0,136,136,250,,,,,,,,,,,,,,,,,,,,,,,,,,,,,,,,,,,838.5151677998947,839.5301248999313,839.496771999984,840.0677353999345,840.0677353999345,None,841.216708599939,None,right,1.3432206000434235,841.216708599939,None,842.5833009999478,None,right,0.7925300999777392,842.5833009999478,None,,,,,,,,,,,,,,,,,,,,,,,PPT46,001,2022-07-11_11h04.03.027,ABstudy,2022.1.4,59.87195784571678,
AB,Lag1_T1A_T2P,1,A,P,5,6,4,4,10,Bull,Did you see the Bull?,0.12,0.016,JPG\,celery,pencil01,fan,foosballtable,iron01b,stapler01,potato02b,fork03c,button01,pineapple01a,blankImage,blankImage,blankImage,blankImage,blankImage,blankImage,blankImage,spiderweb,,,,,,,,,,,,0,137,137,244,,,,,,,,,,,,,,,,,,,,,,,,,,,,,,,,,,,843.4059712999733,844.4184346999973,844.4017372999806,844.9818388998974,844.9818388998974,None,846.2787779999198,None,right,0.6486509999958798,846.2787779999198,None,846.9541372999083,None,left,0.26215989992488176,846.9541372999083,None,,,,,,,,,,,,,,,,,,,,,,,PPT46,001,2022-07-11_11h04.03.027,ABstudy,2022.1.4,59.87195784571678,
