TrialType,CondType,Lag,T1_PA,T2_PA,T1Loc,T2Loc,PreDistractor,PostDistractor,TotalImg,cueWord,T1cue,StimLength,isi,PicFolder,Img1,Img2,Img3,Img4,Img5,Img6,Img7,Img8,Img9,Img10,Img11,Img12,Img13,Img14,Img15,Img16,Img17,T1_Identity,ImageType,T1PA,T2PA,Picture,Image,FullPathName,FilePath,Practice_Trials.thisRepN,Practice_Trials.thisTrialN,Practice_Trials.thisN,Practice_Trials.thisIndex,trials.thisRepN,trials.thisTrialN,trials.thisN,trials.thisIndex,trials_2.thisRepN,trials_2.thisTrialN,trials_2.thisN,trials_2.thisIndex,Practice_Ins.started,Practice_Ins.stopped,End_Prac_Ins.keys,End_Prac_Ins.rt,End_Prac_Ins.started,End_Prac_Ins.stopped,text_2.started,text_2.stopped,Fixation_Cross_2.started,Fixation_Cross_2.stopped,Rapid_Image_Present_2.started,Rapid_Image_Present_2.stopped,key_resp.keys,key_resp.rt,key_resp.started,key_resp.stopped,T1Response_2.started,T1Response_2.stopped,T2Response_2.started,T2Response_2.stopped,key_resp_4.keys,key_resp_4.rt,key_resp_4.started,key_resp_4.stopped,text.started,text.stopped,End_Instructions.keys,End_Instructions.rt,End_Instructions.started,End_Instructions.stopped,text_5.started,text_5.stopped,FC.started,FC.stopped,Rapid_Image_Present.started,Rapid_Image_Present.stopped,T1Response.started,T1Response.stopped,key_resp_2.keys,key_resp_2.rt,key_resp_2.started,key_resp_2.stopped,T2Response.started,T2Response.stopped,key_resp_3.keys,key_resp_3.rt,key_resp_3.started,key_resp_3.stopped,text_6.started,text_6.stopped,Fin_ins.keys,Fin_ins.rt,Fin_ins.started,Fin_ins.stopped,MemTest.started,MemTest.stopped,MemResponse.keys,MemResponse.rt,MemResponse.started,MemResponse.stopped,Display.started,Display.stopped,text_7.started,text_7.stopped,endOfExperiment.started,endOfExperiment.stopped,key_resp_5.keys,key_resp_5.rt,key_resp_5.started,key_resp_5.stopped,participant,session,date,expName,psychopyVersion,frameRate,
,,,,,,,,,,,,,,,,,,,,,,,,,,,,,,,,,,,,,,,,,,,,,,,,,,,,13.000214300001971,None,space,9.564952800050378,13.000214300001971,None,,,,,,,,,,,,,,,,,,,,,,,,,,,,,,,,,,,,,,,,,,,,,,,,,,,,,,,,,,,,,,,,,PPT49,001,2022-07-11_14h57.30.434,ABstudy,2022.1.4,59.95096010413987,
AB_Prac,Lag5_T1P_T2A,5,P,A,6,11,5,5,16,bread,Did you see the bread?,0.5,0.016,JPG\,cleaver01,clipboard,dustpan,hikingshoe01,notebook03a,baguette01,playingcard,pliers02b,styrofoamcup,rollingpin01a,swimgoggles,wineglass01,fryingpan02a,safetypin,syringe01,thimble,blankImage,baguette01,,,,,,,,0,0,0,8,,,,,,,,,,,,,,,22.645791899994947,23.6458200000925,23.6458200000925,24.295734000043012,24.223670900100842,None,left,1.1366944999899715,32.36535930004902,None,32.36535930004902,None,33.524913800065406,None,right,0.6170393999200314,33.524913800065406,None,,,,,,,,,,,,,,,,,,,,,,,,,,,,,,,,,,,,,,,,,,,,,,,PPT49,001,2022-07-11_14h57.30.434,ABstudy,2022.1.4,59.95096010413987,
AB_Prac,Lag5_T1P_T2P,5,P,P,7,12,6,3,15,vacuum,Did you see the vacuum?,0.5,0.016,JPG\,fork07b,lightbulb01,manshoe,saw02b,shoelace,soap03a,vacuumcleaner01,floortile01,necklace,doll,cabbage,stapler03a,hanger02a,laptop01a,nailpolish03b,blankImage,blankImage,vacuumcleaner01,,,,,,,,0,1,1,2,,,,,,,,,,,,,,,34.182400900055654,35.19097019999754,35.174330300069414,35.75704850000329,35.75704850000329,None,left,0.45844050007872283,43.314641000004485,None,43.314641000004485,None,43.79930529999547,None,left,0.31010529992636293,43.79930529999547,None,,,,,,,,,,,,,,,,,,,,,,,,,,,,,,,,,,,,,,,,,,,,,,,PPT49,001,2022-07-11_14h57.30.434,ABstudy,2022.1.4,59.95096010413987,
AB_Prac,Lag1_T1P_T2P,1,P,P,6,7,5,5,12,triangle,Did you see the triangle?,0.5,0.016,JPG\,ginger,mousetrap,plum01,slipper01b,dropper01,triangle,stapler04b,pants,raspberry01,rope03,scale01a,vase01,blankImage,blankImage,blankImage,blankImage,blankImage,triangle,,,,,,,,0,2,2,1,,,,,,,,,,,,,,,44.13825760001782,45.150742300087586,45.134023000020534,45.72645429999102,45.72645429999102,None,left,0.6169545999728143,51.852262400090694,None,51.852262400090694,None,52.491182400030084,None,left,0.6018655000953004,52.491182400030084,None,,,,,,,,,,,,,,,,,,,,,,,,,,,,,,,,,,,,,,,,,,,,,,,PPT49,001,2022-07-11_14h57.30.434,ABstudy,2022.1.4,59.95096010413987,
AB_Prac,Lag5_T1P_T2P,5,P,P,5,10,4,5,15,Vulture,Did you see the Vulture?,0.5,0.016,JPG\,shorts01,toast,ramekin01,bib,vulture,cracker02,date,glasses01a,hat03b,stapler01,measuringtape01,nail,pill,drum01,starfish01,blankImage,blankImage,vulture,,,,,,,,0,3,3,3,,,,,,,,,,,,,,,53.13392630009912,54.1433481000131,54.12653280002996,54.72516960010398,54.72516960010398,None,left,0.42684760002885014,62.243588000070304,None,62.243588000070304,None,62.704083100077696,None,left,0.26102249999530613,62.704083100077696,None,,,,,,,,,,,,,,,,,,,,,,,,,,,,,,,,,,,,,,,,,,,,,,,PPT49,001,2022-07-11_14h57.30.434,ABstudy,2022.1.4,59.95096010413987,
AB_Prac,Lag5_T1A_T2P,5,A,P,6,11,5,3,14,dog,Did you see the dog?,0.5,0.016,JPG\,bucket01a,doorlock,cookiecutter,fireextinguisher01,gluestick,highlighter02b,sportbag,spraybottle01,suitcase,thread02,stapler05,walnut01c,icecubetray01a,vikingmask01b,blankImage,blankImage,blankImage,None,,,,,,,,0,4,4,9,,,,,,,,,,,,,,,62.98726280010305,64.0029112000484,63.96944660006557,64.56405460007954,64.56405460007954,None,right,1.128247700049542,71.56550360005349,None,71.56550360005349,None,72.72415200003888,None,left,0.38497279991861433,72.72415200003888,None,,,,,,,,,,,,,,,,,,,,,,,,,,,,,,,,,,,,,,,,,,,,,,,PPT49,001,2022-07-11_14h57.30.434,ABstudy,2022.1.4,59.95096010413987,
AB_Prac,Lag5_T1P_T2P,5,P,P,5,10,4,5,15,washing machine,Did you see the washing machine?,0.5,0.016,JPG\,waterbottle03,wheel01,flashlight02b,zucchini01,washingmachine,headphones02b,nutcracker01,paintroller01,paperclip03,stapler06,ribbon04,electricrazor,bottleofredwine01,pitabread,pot02a,blankImage,blankImage,washingmachine,,,,,,,,0,5,5,4,,,,,,,,,,,,,,,73.13682180002797,74.14672990003601,74.13110890006647,74.73705580004025,74.73705580004025,None,left,0.48593549989163876,82.23154569999315,None,82.23154569999315,None,82.73764500010293,None,left,0.30727329989895225,82.73764500010293,None,,,,,,,,,,,,,,,,,,,,,,,,,,,,,,,,,,,,,,,,,,,,,,,PPT49,001,2022-07-11_14h57.30.434,ABstudy,2022.1.4,59.95096010413987,
AB_Prac,Lag1_T1A_T2A,1,A,A,8,9,7,3,12,Moose,Did you see the Moose?,0.5,0.016,JPG\,clothespin03b,corkscrew03a,drillbit03a,fusilli03a,needlenosepliers01,perfume01a,pistachio,scrubbingbrush05b,spatula03,toothpastetube,hinge,toydinosaur,blankImage,blankImage,blankImage,blankImage,blankImage,None,,,,,,,,0,6,6,10,,,,,,,,,,,,,,,83.17639780009631,84.18963890010491,84.17294519999996,84.74967070005368,84.74967070005368,None,right,2.0952576000709087,90.75020220002625,None,90.75020220002625,None,92.86765620007645,None,right,0.537576699978672,92.86765620007645,None,,,,,,,,,,,,,,,,,,,,,,,,,,,,,,,,,,,,,,,,,,,,,,,PPT49,001,2022-07-11_14h57.30.434,ABstudy,2022.1.4,59.95096010413987,
AB_Prac,Lag5_T1A_T2A,5,A,A,6,11,5,5,16,castle,Did you see the castle?,0.5,0.016,JPG\,tape02a,englishmuffin,flask,ladle02a,monitor,peach01,keychain,squeegee01b,telephone01b,whisk,walkman,syringe02,baguette01,coaster,box01a,coffeepot03a,blankImage,None,,,,,,,,0,7,7,11,,,,,,,,,,,,,,,93.44192900008056,94.44961530005094,94.4329917000141,95.08192820008844,95.08192820008844,None,right,1.1230416999896988,103.07374960009474,None,103.07374960009474,None,104.22616050008219,None,right,0.5066501999972388,104.22616050008219,None,,,,,,,,,,,,,,,,,,,,,,,,,,,,,,,,,,,,,,,,,,,,,,,PPT49,001,2022-07-11_14h57.30.434,ABstudy,2022.1.4,59.95096010413987,
AB_Prac,Lag1_T1P_T2A,1,P,A,8,9,7,5,14,flower,Did you see the flower?,0.5,0.016,JPG\,razor01,axe01,binder03b,bowl01,kettle01,lettuce,lime,plasticflower01b,mitten04,pencilcase01,plunger02,strawbasket01,toothpick02,wallet02a,blankImage,blankImage,blankImage,plasticflower01b,,,,,,,,0,8,8,5,,,,,,,,,,,,,,,104.7675792000955,105.7777135000797,105.76098330004606,106.33853270008694,106.33853270008694,None,left,0.7640093000372872,113.36923700000625,None,113.36923700000625,None,114.15268930001184,None,right,0.33343040000181645,114.15268930001184,None,,,,,,,,,,,,,,,,,,,,,,,,,,,,,,,,,,,,,,,,,,,,,,,PPT49,001,2022-07-11_14h57.30.434,ABstudy,2022.1.4,59.95096010413987,
AB_Prac,Lag1_T1P_T2P,1,P,P,8,9,7,5,14,Tennis racket,Did you see the Tennis racket?,0.5,0.016,JPG\,coconut,computermouse06,croissant01,deodorant02a,pillow01a,peanut01,boot02b,tennisracket,stapler03b,crayon,eggplant,marker01a,plant01,radish01,blankImage,blankImage,blankImage,tennisracket,,,,,,,,0,9,9,0,,,,,,,,,,,,,,,114.51130830007605,115.52069170004688,115.50401660008356,116.10020079999231,116.10020079999231,None,left,0.5062966999830678,123.12269360001665,None,123.12269360001665,None,123.64581800007727,None,left,0.27136889996472746,123.64581800007727,None,,,,,,,,,,,,,,,,,,,,,,,,,,,,,,,,,,,,,,,,,,,,,,,PPT49,001,2022-07-11_14h57.30.434,ABstudy,2022.1.4,59.95096010413987,
AB_Prac,Lag1_T1P_T2A,1,P,A,5,6,4,5,11,Webcam,Did you see the Webcam?,0.5,0.016,JPG\,pictureframe04,binder03b,straw,adjustablewrench01b,webcam,cane,hairdryer02a,icepack,kitchenscale01a,lifejacket,piggybank,blankImage,blankImage,blankImage,blankImage,blankImage,blankImage,webcam,,,,,,,,0,10,10,6,,,,,,,,,,,,,,,123.9550256000366,124.96342090005055,124.94673760002479,125.53334860003088,125.53334860003088,None,left,0.7856294999364763,131.17980939999688,None,131.17980939999688,None,131.98882730002515,None,right,0.3445037000346929,131.98882730002515,None,,,,,,,,,,,,,,,,,,,,,,,,,,,,,,,,,,,,,,,,,,,,,,,PPT49,001,2022-07-11_14h57.30.434,ABstudy,2022.1.4,59.95096010413987,
AB_Prac,Lag5_T1P_T2A,5,P,A,6,11,5,5,16,Wheat,Did you see the Wheat?,0.5,0.016,JPG\,bottleopener01,dentalfloss03b,cooler01,icecreamcone01a,paperclip01b,wheat,pencilsharpener02a,plasticbasket01a,toycar04,apricot,hairclip02,rock01a,honeydewmelon,antenna,blackberry,cardboardbox,blankImage,wheat,,,,,,,,0,11,11,7,,,,,,,,,,,,,,,132.3575947000645,133.3718089000322,133.3386290000053,133.9168568000896,133.9168568000896,None,left,0.5718326999340206,141.9457348000724,None,141.9457348000724,None,142.547850400093,None,left,0.3054515999974683,142.547850400093,None,,,,,,,,,,,,,,,,,,,,,,,,,,,,,,,,,,,,,,,,,,,,,,,PPT49,001,2022-07-11_14h57.30.434,ABstudy,2022.1.4,59.95096010413987,
,,,,,,,,,,,,,,,,,,,,,,,,,,,,,,,,,,,,,,,,,,,,,,,,,,,,,,,,,,,,,,,,,,,,,,,,,,,,142.88266910007223,None,space,3.929939299938269,142.88266910007223,None,,,,,,,,,,,,,,,,,,,,,,,,,,,,,,,,,,,,,,,,,PPT49,001,2022-07-11_14h57.30.434,ABstudy,2022.1.4,59.95096010413987,
AB,Lag1_T1A_T2P,1,A,P,5,6,4,3,9,chimney,Did you see the chimney?,0.12,0.016,JPG\,cucumber,sponge01,alligator,pear01,ashtray01,stapler06,clock04,battery02b,fork03c,blankImage,blankImage,blankImage,blankImage,blankImage,blankImage,blankImage,blankImage,trophy01,,,,,,,,,,,,0,0,0,246,,,,,,,,,,,,,,,,,,,,,,,,,,,,,,,,,,,147.44887910003308,148.45365160005167,148.42030100000557,149.03202600008808,149.03202600008808,None,150.09267520008143,None,right,2.0164572999347,150.09267520008143,None,152.14315420005005,None,right,0.7582620999310166,152.14315420005005,None,,,,,,,,,,,,,,,,,,,,,,,PPT49,001,2022-07-11_14h57.30.434,ABstudy,2022.1.4,59.95096010413987,
AB,Lag1_T1P_T2P,1,P,P,8,9,7,5,14,finger print,Did you see the finger print?,0.12,0.016,JPG\,chain01,pen04b,birthdaycandle,watermelon01,broom01,scissors01,measuringcup01,fingerprint,stapler01,calculator01,ashtray01,feather03a,sewingmachine01a,thermometer02b,blankImage,blankImage,blankImage,fingerprint,,,,,,,,,,,,0,1,1,62,,,,,,,,,,,,,,,,,,,,,,,,,,,,,,,,,,,152.95941060001496,153.9591510000173,153.94235990010202,154.52611060009804,154.52611060009804,None,156.18425720010418,None,left,0.7169139999896288,156.18425720010418,None,156.9296469000401,None,left,0.3085711000021547,156.9296469000401,None,,,,,,,,,,,,,,,,,,,,,,,PPT49,001,2022-07-11_14h57.30.434,ABstudy,2022.1.4,59.95096010413987,
AB,Lag5_T1P_T2P,5,P,P,7,12,6,3,15,mail box,Did you see the mail box?,0.12,0.016,JPG\,key01,apple07,ring01,leaf02a,hammer01,tableknife02,postalmailbox01,sponge01,baseball01a,thermometer02b,celery,stapler06,grape01,cucumber,tennisball01b,blankImage,blankImage,postalmailbox01,,,,,,,,,,,,0,2,2,113,,,,,,,,,,,,,,,,,,,,,,,,,,,,,,,,,,,157.27299060008954,158.2805654000258,158.2649161000736,158.8740197001025,158.8740197001025,None,160.68475230003241,None,right,0.8321920000016689,160.68475230003241,None,161.53364420006983,None,left,0.9192551999585703,161.53364420006983,None,,,,,,,,,,,,,,,,,,,,,,,PPT49,001,2022-07-11_14h57.30.434,ABstudy,2022.1.4,59.95096010413987,
AB,Lag1_T1P_T2P,1,P,P,6,7,5,3,10,jelly beans,Did you see the jelly beans?,0.12,0.016,JPG\,lipstick02a,cucumber,candle08b,printer02,grape01,jellybean,stapler01,lighter01,belt02a,balloon01b,blankImage,blankImage,blankImage,blankImage,blankImage,blankImage,blankImage,jellybean,,,,,,,,,,,,0,3,3,15,,,,,,,,,,,,,,,,,,,,,,,,,,,,,,,,,,,162.49411100009456,163.50208090001252,163.48547240009066,164.07179240009282,164.07179240009282,None,165.26160920003895,None,left,0.8720949999988079,165.26160920003895,None,166.15553840005305,None,right,0.618011899990961,166.15553840005305,None,,,,,,,,,,,,,,,,,,,,,,,PPT49,001,2022-07-11_14h57.30.434,ABstudy,2022.1.4,59.95096010413987,
AB,Lag1_T1A_T2P,1,A,P,7,8,6,3,11,lion,Did you see the lion?,0.12,0.016,JPG\,sock01a,spoon01,alligator,comb02a,printer02,medal02b,lamp04a,stapler01,greenolive,computerkeyboard02,cauliflower01,blankImage,blankImage,blankImage,blankImage,blankImage,blankImage,bullet,,,,,,,,,,,,0,4,4,229,,,,,,,,,,,,,,,,,,,,,,,,,,,,,,,,,,,166.80924229999073,167.8230462000938,167.80638349999208,168.40690030006226,168.40690030006226,None,169.69204150000587,None,left,1.257581900106743,169.69204150000587,None,170.97628220007755,None,right,0.4052079999819398,170.97628220007755,None,,,,,,,,,,,,,,,,,,,,,,,PPT49,001,2022-07-11_14h57.30.434,ABstudy,2022.1.4,59.95096010413987,
AB,Lag5_T1P_T2P,5,P,P,8,13,7,5,18,sock,Did you see the sock?,0.12,0.016,JPG\,thermometer02b,avocado01,scissors01,tennisball01b,medal02b,banana01,strawberry,athleticsock,potato02b,pineapple01a,microscope,cymbal,stapler03b,celery,garlic01a,sunglasses04,blankImage,athleticsock,,,,,,,,,,,,0,5,5,141,,,,,,,,,,,,,,,,,,,,,,,,,,,,,,,,,,,171.41549030004535,172.42750950006302,172.41094830003567,173.01215180009604,173.01215180009604,None,174.92467580002267,None,left,1.9040163999889046,174.92467580002267,None,176.84832940006163,None,left,0.48504729999694973,176.84832940006163,None,,,,,,,,,,,,,,,,,,,,,,,PPT49,001,2022-07-11_14h57.30.434,ABstudy,2022.1.4,59.95096010413987,
AB,Lag1_T1P_T2P,1,P,P,8,9,7,5,14,bullet,Did you see the bullet?,0.12,0.016,JPG\,measuringcup01,dice05a,greenolive,lipstick02a,feather03a,balloon01b,lighter01,bullet,stapler04b,plate01b,microscope,brick,thermometer02b,screw02,blankImage,blankImage,blankImage,bullet,,,,,,,,,,,,0,6,6,57,,,,,,,,,,,,,,,,,,,,,,,,,,,,,,,,,,,177.36775610002223,178.38320750009734,178.34981620009057,178.97390890005045,178.97390890005045,None,180.60814260004554,None,left,0.9168812000425532,180.60814260004554,None,181.55302190000657,None,right,0.34803919994737953,181.55302190000657,None,,,,,,,,,,,,,,,,,,,,,,,PPT49,001,2022-07-11_14h57.30.434,ABstudy,2022.1.4,59.95096010413987,
AB,Lag5_T1P_T2P,5,P,P,6,11,5,3,14,Poker chips,Did you see the Poker chips?,0.12,0.016,JPG\,iron01b,brick,broccoli01a,balloon01b,tomato01,pokerchips,sandal,teabag,scissors01,pineapple01a,stapler04b,measuringcup01,sock01a,book01b,blankImage,blankImage,blankImage,pokerchips,,,,,,,,,,,,0,7,7,154,,,,,,,,,,,,,,,,,,,,,,,,,,,,,,,,,,,181.92669260001276,182.93858370010275,182.92284460004885,183.53006650006864,183.53006650006864,None,185.2734347000951,None,left,0.5158573999069631,185.2734347000951,None,185.80944189999718,None,left,0.43555880000349134,185.80944189999718,None,,,,,,,,,,,,,,,,,,,,,,,PPT49,001,2022-07-11_14h57.30.434,ABstudy,2022.1.4,59.95096010413987,
AB,Lag5_T1P_T2A,5,P,A,6,11,5,3,14,Balcony,Did you see the Balcony?,0.12,0.016,JPG\,tomato01,pen04b,shirt02,carrot01,lamp04a,balcony02,pizza,avocado01,sewingmachine01a,apple07,iron01b,book01b,chain01,sock01a,blankImage,blankImage,blankImage,balcony02,,,,,,,,,,,,0,8,8,207,,,,,,,,,,,,,,,,,,,,,,,,,,,,,,,,,,,186.2842272000853,187.29274820000865,187.2771214999957,187.92383610003162,187.92383610003162,None,189.57266760000493,None,left,0.8722719000652432,189.57266760000493,None,190.46228690003045,None,right,0.3346229000017047,190.46228690003045,None,,,,,,,,,,,,,,,,,,,,,,,PPT49,001,2022-07-11_14h57.30.434,ABstudy,2022.1.4,59.95096010413987,
AB,Lag1_T1P_T2P,1,P,P,5,6,4,3,9,hockey stick,Did you see the hockey stick?,0.12,0.016,JPG\,violin,pizza,toothbrush03b,pineapple01a,hockeystick,stapler03b,candy,dandelion,clock04,blankImage,blankImage,blankImage,blankImage,blankImage,blankImage,blankImage,blankImage,hockeystick,,,,,,,,,,,,0,9,9,63,,,,,,,,,,,,,,,,,,,,,,,,,,,,,,,,,,,190.8361393000232,191.8468697000062,191.83008720004,192.4190867000725,192.4190867000725,None,193.68326600000728,None,left,0.7939804000779986,193.68326600000728,None,194.499616599991,None,right,0.4335452999221161,194.499616599991,None,,,,,,,,,,,,,,,,,,,,,,,PPT49,001,2022-07-11_14h57.30.434,ABstudy,2022.1.4,59.95096010413987,
AB,Lag5_T1P_T2P,5,P,P,5,10,4,5,15,funnel,Did you see the funnel?,0.12,0.016,JPG\,pineapple01a,tennisball01b,computerkeyboard02,feather03a,funnel,acorn,violin,blueberry01,medal02b,stapler01,greenolive,screwdriver04b,potato02b,fork03c,cymbal,blankImage,blankImage,funnel,,,,,,,,,,,,0,10,10,109,,,,,,,,,,,,,,,,,,,,,,,,,,,,,,,,,,,194.95571080001537,195.96757560002152,195.95103700004984,196.52199050004128,196.52199050004128,None,198.27120180008933,None,left,0.4452539999037981,198.27120180008933,None,198.73721210006624,None,left,0.2834677000064403,198.73721210006624,None,,,,,,,,,,,,,,,,,,,,,,,PPT49,001,2022-07-11_14h57.30.434,ABstudy,2022.1.4,59.95096010413987,
AB,Lag1_T1P_T2P,1,P,P,8,9,7,3,12,Wheelchair,Did you see the Wheelchair?,0.12,0.016,JPG\,cigarette,pig,banana01,strawberry,clock01a,plate01b,spoon01,wheelchair,stapler03b,pineapple01a,chain01,paintbrush01,blankImage,blankImage,blankImage,blankImage,blankImage,wheelchair,,,,,,,,,,,,0,11,11,27,,,,,,,,,,,,,,,,,,,,,,,,,,,,,,,,,,,199.04352810001,200.05500120006036,200.03847430006135,200.5990254000062,200.5990254000062,None,202.06223390006926,None,left,0.7675097000319511,202.06223390006926,None,202.85722520004492,None,right,0.5322091999696568,202.85722520004492,None,,,,,,,,,,,,,,,,,,,,,,,PPT49,001,2022-07-11_14h57.30.434,ABstudy,2022.1.4,59.95096010413987,
AB,Lag1_T1P_T2P,1,P,P,8,9,7,3,12,apron,Did you see the apron?,0.12,0.016,JPG\,avocado01,tambourine02,match,cauliflower01,paintbrush01,clock01a,pig,apron,stapler03a,cellphone,watch02a,pear01,blankImage,blankImage,blankImage,blankImage,blankImage,apron,,,,,,,,,,,,0,12,12,32,,,,,,,,,,,,,,,,,,,,,,,,,,,,,,,,,,,203.4419713000534,204.44289579999167,204.42617500002962,205.03137900005095,205.03137900005095,None,206.48104640003294,None,left,0.9164336000103503,206.48104640003294,None,207.43184850004036,None,right,0.2607433999655768,207.43184850004036,None,,,,,,,,,,,,,,,,,,,,,,,PPT49,001,2022-07-11_14h57.30.434,ABstudy,2022.1.4,59.95096010413987,
AB,Lag5_T1P_T2A,5,P,A,5,10,4,3,13,cork,Did you see the cork?,0.12,0.016,JPG\,clock01a,grape01,plate01b,key01,cork02,feather03a,pineapple01a,iron01b,toothbrush03b,comb02a,broom01,toaster01,pizza,blankImage,blankImage,blankImage,blankImage,cork02,,,,,,,,,,,,0,13,13,209,,,,,,,,,,,,,,,,,,,,,,,,,,,,,,,,,,,207.72373830003198,208.7301229001023,208.71347240009345,209.31612830003724,209.31612830003724,None,210.99427720007952,None,left,0.7952460999367759,210.99427720007952,None,211.81796920008492,None,right,0.3145008999854326,211.81796920008492,None,,,,,,,,,,,,,,,,,,,,,,,PPT49,001,2022-07-11_14h57.30.434,ABstudy,2022.1.4,59.95096010413987,
AB,Lag5_T1P_T2P,5,P,P,7,12,6,5,17,tie,Did you see the tie?,0.12,0.016,JPG\,iron01b,orange,birthdaycandle,potato02b,cauliflower01,pencil01,tie02,candle08b,celery,tableknife02,pen04b,stapler06,ring01,rice,lemon02,tomato01,blankImage,tie02,,,,,,,,,,,,0,14,14,161,,,,,,,,,,,,,,,,,,,,,,,,,,,,,,,,,,,212.15401560009923,213.16811070009135,213.13486920006108,213.71213210001588,213.71213210001588,None,215.66306789999362,None,left,0.6060006000334397,215.66306789999362,None,216.28807970008347,None,right,0.30998539994470775,216.28807970008347,None,,,,,,,,,,,,,,,,,,,,,,,PPT49,001,2022-07-11_14h57.30.434,ABstudy,2022.1.4,59.95096010413987,
AB,Lag1_T1P_T2P,1,P,P,7,8,6,3,11,Daddy Long Legs,Did you see the Daddy Long Legs?,0.12,0.016,JPG\,lighter01,hammer01,spoon01,chain01,cymbal,sponge01,daddylonglegs,stapler03b,pig,watermelon01,cauliflower01,blankImage,blankImage,blankImage,blankImage,blankImage,blankImage,daddylonglegs,,,,,,,,,,,,0,15,15,86,,,,,,,,,,,,,,,,,,,,,,,,,,,,,,,,,,,216.62975419999566,217.63937920005992,217.6226394000696,218.19835040008184,218.19835040008184,None,219.52756180008873,None,left,0.7414154999423772,219.52756180008873,None,220.2915900000371,None,right,0.36138109990861267,220.2915900000371,None,,,,,,,,,,,,,,,,,,,,,,,PPT49,001,2022-07-11_14h57.30.434,ABstudy,2022.1.4,59.95096010413987,
AB,Lag1_T1P_T2P,1,P,P,5,6,4,5,11,Guitar case,Did you see the Guitar case?,0.12,0.016,JPG\,broccoli01a,scissors01,toothbrush03b,foosballtable,guitarcase,stapler05,hammer01,toiletpaper01a,cd,garlic01a,carrot01,blankImage,blankImage,blankImage,blankImage,blankImage,blankImage,guitarcase,,,,,,,,,,,,0,16,16,14,,,,,,,,,,,,,,,,,,,,,,,,,,,,,,,,,,,220.68153639999218,221.69301829999313,221.67633060005028,222.27872930001467,222.27872930001467,None,223.6208503000671,None,left,0.4242858999641612,223.6208503000671,None,224.0617225000169,None,left,0.3033172000432387,224.0617225000169,None,,,,,,,,,,,,,,,,,,,,,,,PPT49,001,2022-07-11_14h57.30.434,ABstudy,2022.1.4,59.95096010413987,
AB,Lag1_T1P_T2A,1,P,A,8,9,7,5,14,Sausage,Did you see the Sausage?,0.12,0.016,JPG\,pencil01,broccoli01a,button01,sponge01,watermelon01,lipstick02a,comb02a,sausage,lighter01,sock01a,spoon01,blueberry01,belt02a,onion,blankImage,blankImage,blankImage,sausage,,,,,,,,,,,,0,17,17,175,,,,,,,,,,,,,,,,,,,,,,,,,,,,,,,,,,,224.4046009000158,225.41353880008683,225.39686300000176,226.01438510010485,226.01438510010485,None,227.71508160000667,None,left,0.9060489000985399,227.71508160000667,None,228.65026760008186,None,right,0.2509704999392852,228.65026760008186,None,,,,,,,,,,,,,,,,,,,,,,,PPT49,001,2022-07-11_14h57.30.434,ABstudy,2022.1.4,59.95096010413987,
AB,Lag5_T1A_T2A,5,A,A,7,12,6,4,16,Eye,Did you see the Eye?,0.12,0.016,JPG\,rice,watermelon01,tableknife02,scarf,computerkeyboard02,cauliflower01,battery02b,binoculars01b,book01b,sandal,sponge01,microscope,tomato01,fork03c,thermometer02b,apple07,blankImage,scooter,,,,,,,,,,,,0,18,18,302,,,,,,,,,,,,,,,,,,,,,,,,,,,,,,,,,,,228.9413957000943,229.95157640008256,229.93491090007592,230.52767400001176,230.52767400001176,None,232.50620830000844,None,left,1.4984906000318006,232.50620830000844,None,234.02231200004462,None,right,0.598032100009732,234.02231200004462,None,,,,,,,,,,,,,,,,,,,,,,,PPT49,001,2022-07-11_14h57.30.434,ABstudy,2022.1.4,59.95096010413987,
AB,Lag5_T1P_T2A,5,P,A,5,10,4,3,13,martini glass,Did you see the martini glass?,0.12,0.016,JPG\,brick,eraser,cucumber,ashtray01,martiniglass01b,binoculars01b,lipstick02a,screwdriver04b,grape01,brownsugar,battery02b,iron01b,dice05a,blankImage,blankImage,blankImage,blankImage,martiniglass01b,,,,,,,,,,,,0,19,19,217,,,,,,,,,,,,,,,,,,,,,,,,,,,,,,,,,,,234.64478570001666,235.65728720009793,235.64033660001587,236.22348899999633,236.22348899999633,None,237.83585120004136,None,left,1.4103258999530226,237.83585120004136,None,239.27959050005302,None,left,0.3014680000487715,239.27959050005302,None,,,,,,,,,,,,,,,,,,,,,,,PPT49,001,2022-07-11_14h57.30.434,ABstudy,2022.1.4,59.95096010413987,
AB,Lag5_T1P_T2P,5,P,P,8,13,7,4,17,surf board,Did you see the surf board?,0.12,0.016,JPG\,candy,brownsugar,dice05a,cd,sock01a,blueberry01,button01,surfboard,feather03a,grape01,dandelion,scissors01,stapler03b,candle08b,book01b,globe,blankImage,surfboard,,,,,,,,,,,,0,20,20,142,,,,,,,,,,,,,,,,,,,,,,,,,,,,,,,,,,,239.6236184000736,240.6291963000549,240.6135563000571,241.20974990003742,241.20974990003742,None,243.19236190000083,None,left,0.3648289000848308,243.19236190000083,None,243.58427900006063,None,left,0.3641076000640169,243.58427900006063,None,,,,,,,,,,,,,,,,,,,,,,,PPT49,001,2022-07-11_14h57.30.434,ABstudy,2022.1.4,59.95096010413987,
AB,Lag1_T1P_T2P,1,P,P,5,6,4,5,11,golf ball,Did you see the golf ball?,0.12,0.016,JPG\,foosballtable,cigarette,pen04b,birthdaycandle,golfball,stapler05,binoculars01b,chain01,potato02b,cauliflower01,paintbrush01,blankImage,blankImage,blankImage,blankImage,blankImage,blankImage,golfball,,,,,,,,,,,,0,21,21,13,,,,,,,,,,,,,,,,,,,,,,,,,,,,,,,,,,,243.9652936999919,244.96635870006867,244.94954739999957,245.45022630004678,245.45022630004678,None,246.96936850005295,None,left,0.7790612999815494,246.96936850005295,None,247.76937510003336,None,right,0.28379060002043843,247.76937510003336,None,,,,,,,,,,,,,,,,,,,,,,,PPT49,001,2022-07-11_14h57.30.434,ABstudy,2022.1.4,59.95096010413987,
AB,Lag1_T1P_T2P,1,P,P,7,8,6,5,13,tiger,Did you see the tiger?,0.12,0.016,JPG\,globe,broccoli01a,binoculars01b,iron01b,avocado01,dandelion,tiger02,stapler03b,fan,pizza,celery,blueberry01,sewingmachine01a,blankImage,blankImage,blankImage,blankImage,tiger02,,,,,,,,,,,,0,22,22,50,,,,,,,,,,,,,,,,,,,,,,,,,,,,,,,,,,,248.073164200061,249.08718310005497,249.07041780010331,249.6785791000584,249.6785791000584,None,251.2198703000322,None,left,0.689051500055939,251.2198703000322,None,251.94189350004308,None,right,0.28697130002547055,251.94189350004308,None,,,,,,,,,,,,,,,,,,,,,,,PPT49,001,2022-07-11_14h57.30.434,ABstudy,2022.1.4,59.95096010413987,
AB,Lag5_T1A_T2P,5,A,P,5,10,4,3,13,flower,Did you see the flower?,0.12,0.016,JPG\,cucumber,ring01,lipstick02a,microscope,violin,garlic01a,celery,lighter01,cherry01,stapler03a,belt02a,key01,binoculars01b,blankImage,blankImage,blankImage,blankImage,christmastree,,,,,,,,,,,,0,23,23,284,,,,,,,,,,,,,,,,,,,,,,,,,,,,,,,,,,,252.2674100000877,253.27431270002853,253.25761990004685,253.8392645000713,253.8392645000713,None,255.44625190005172,None,left,0.7342252000235021,255.44625190005172,None,256.21078890003264,None,right,0.626584600075148,256.21078890003264,None,,,,,,,,,,,,,,,,,,,,,,,PPT49,001,2022-07-11_14h57.30.434,ABstudy,2022.1.4,59.95096010413987,
AB,Lag1_T1P_T2A,1,P,A,6,7,5,5,12,Barn,Did you see the Barn?,0.12,0.016,JPG\,celery,pencil01,fan,foosballtable,iron01b,barn,potato02b,fork03c,button01,pineapple01a,baseball01a,printer02,blankImage,blankImage,blankImage,blankImage,blankImage,barn,,,,,,,,,,,,0,24,24,181,,,,,,,,,,,,,,,,,,,,,,,,,,,,,,,,,,,256.86664800008293,257.879153600079,257.86248820007313,258.45112490002066,258.45112490002066,None,259.91867390007246,None,left,0.6703817999223247,259.91867390007246,None,260.6181467000861,None,right,0.3638021999504417,260.6181467000861,None,,,,,,,,,,,,,,,,,,,,,,,PPT49,001,2022-07-11_14h57.30.434,ABstudy,2022.1.4,59.95096010413987,
AB,Lag1_T1P_T2P,1,P,P,6,7,5,3,10,Pool table,Did you see the Pool table?,0.12,0.016,JPG\,tomato01,pen04b,shirt02,carrot01,lamp04a,pooltable,stapler06,avocado01,sewingmachine01a,apple07,blankImage,blankImage,blankImage,blankImage,blankImage,blankImage,blankImage,pooltable,,,,,,,,,,,,0,25,25,29,,,,,,,,,,,,,,,,,,,,,,,,,,,,,,,,,,,261.0032515000785,262.0165352000622,261.99987310008146,262.6089272000827,262.6089272000827,None,263.84334580006544,None,left,0.609123699949123,263.84334580006544,None,264.48336740001105,None,right,0.3383198999799788,264.48336740001105,None,,,,,,,,,,,,,,,,,,,,,,,PPT49,001,2022-07-11_14h57.30.434,ABstudy,2022.1.4,59.95096010413987,
AB,Lag1_T1P_T2A,1,P,A,5,6,4,4,10,bird,Did you see the bird?,0.12,0.016,JPG\,toaster01,scarf,toiletpaper01a,calculator01,swallow,sewingmachine01a,fan,teabag,strawberry,balloon01b,blankImage,blankImage,blankImage,blankImage,blankImage,blankImage,blankImage,swallow,,,,,,,,,,,,0,26,26,195,,,,,,,,,,,,,,,,,,,,,,,,,,,,,,,,,,,264.86062190006487,265.87033890001476,265.8536152000306,266.4413705000188,266.4413705000188,None,267.65837640000973,None,left,0.7386612000409514,267.65837640000973,None,268.42324360006023,None,right,0.42980209994129837,268.42324360006023,None,,,,,,,,,,,,,,,,,,,,,,,PPT49,001,2022-07-11_14h57.30.434,ABstudy,2022.1.4,59.95096010413987,
AB,Lag1_T1P_T2A,1,P,A,7,8,6,3,11,Armadillo,Did you see the Armadillo?,0.12,0.016,JPG\,clock01a,cellphone,toaster01,toothbrush03b,cauliflower01,microscope,armadillo,paintbrush01,scarf,clock04,sponge01,blankImage,blankImage,blankImage,blankImage,blankImage,blankImage,armadillo,,,,,,,,,,,,0,27,27,180,,,,,,,,,,,,,,,,,,,,,,,,,,,,,,,,,,,268.8827489000978,269.8913257000968,269.87456810008734,270.44844790000934,270.44844790000934,None,271.8312745000003,None,right,1.3495941000292078,271.8312745000003,None,273.21093300008215,None,left,0.4831704000243917,273.21093300008215,None,,,,,,,,,,,,,,,,,,,,,,,PPT49,001,2022-07-11_14h57.30.434,ABstudy,2022.1.4,59.95096010413987,
AB,Lag1_T1P_T2P,1,P,P,5,6,4,5,11,squirrel,Did you see the squirrel?,0.12,0.016,JPG\,pencil01,orange,clock01a,sponge01,squirrel,stapler05,lipstick02a,strawberry,book01b,mushroom01,envelope03a,blankImage,blankImage,blankImage,blankImage,blankImage,blankImage,squirrel,,,,,,,,,,,,0,28,28,5,,,,,,,,,,,,,,,,,,,,,,,,,,,,,,,,,,,273.7177195000695,274.72912999999244,274.7124681000132,275.29409119999036,275.29409119999036,None,276.63129210006446,None,left,0.6137465999927372,276.63129210006446,None,277.2656721000094,None,right,0.3554277000948787,277.2656721000094,None,,,,,,,,,,,,,,,,,,,,,,,PPT49,001,2022-07-11_14h57.30.434,ABstudy,2022.1.4,59.95096010413987,
AB,Lag1_T1P_T2P,1,P,P,7,8,6,4,12,Dog House,Did you see the Dog House?,0.12,0.016,JPG\,pineapple01a,leaf02a,grape01,toiletpaper01a,match,tennisball01b,doghouse,stapler03b,pig,measuringcup01,ring01,lemon02,blankImage,blankImage,blankImage,blankImage,blankImage,doghouse,,,,,,,,,,,,0,29,29,44,,,,,,,,,,,,,,,,,,,,,,,,,,,,,,,,,,,277.65837690001354,278.66660670004785,278.6498949000379,279.2415663000429,279.2415663000429,None,280.71821409999393,None,right,1.4862219000933692,280.71821409999393,None,282.23662580002565,None,left,0.311659500002861,282.23662580002565,None,,,,,,,,,,,,,,,,,,,,,,,PPT49,001,2022-07-11_14h57.30.434,ABstudy,2022.1.4,59.95096010413987,
AB,Lag5_T1A_T2A,5,A,A,5,10,4,5,15,sword,Did you see the sword?,0.12,0.016,JPG\,pencil01,broccoli01a,button01,sponge01,watermelon01,lipstick02a,comb02a,fan,lighter01,sock01a,spoon01,blueberry01,belt02a,onion,grape01,blankImage,blankImage,parachute,,,,,,,,,,,,0,30,30,298,,,,,,,,,,,,,,,,,,,,,,,,,,,,,,,,,,,282.5725709000835,283.58792459999677,283.55470010009594,284.1516349000158,284.1516349000158,None,285.95056450006086,None,right,1.6059177999850363,285.95056450006086,None,287.5755973000778,None,right,0.884858199977316,287.5755973000778,None,,,,,,,,,,,,,,,,,,,,,,,PPT49,001,2022-07-11_14h57.30.434,ABstudy,2022.1.4,59.95096010413987,
AB,Lag5_T1P_T2P,5,P,P,8,13,7,5,18,spice rack,Did you see the spice rack?,0.12,0.016,JPG\,lamp04a,broccoli01a,alligator,garlic01a,dandelion,brownsugar,avocado01,spicerack,leaf02a,cellphone,medal02b,cd,stapler05,sunglasses04,strawberry,eraser,blankImage,spicerack,,,,,,,,,,,,0,31,31,140,,,,,,,,,,,,,,,,,,,,,,,,,,,,,,,,,,,288.49810550000984,289.5107651000144,289.4940273000393,290.07332760002464,290.07332760002464,None,292.00598550005816,None,right,1.510599899920635,292.00598550005816,None,293.5507290000096,None,left,1.054581300006248,293.5507290000096,None,,,,,,,,,,,,,,,,,,,,,,,PPT49,001,2022-07-11_14h57.30.434,ABstudy,2022.1.4,59.95096010413987,
AB,Lag1_T1P_T2P,1,P,P,6,7,5,4,11,no parking sign,Did you see the no parking sign?,0.12,0.016,JPG\,fork03c,belt02a,grape01,computerkeyboard02,lemon02,parkingsign,stapler05,toiletpaper01a,toaster01,lipstick02a,book01b,blankImage,blankImage,blankImage,blankImage,blankImage,blankImage,parkingsign,,,,,,,,,,,,0,32,32,47,,,,,,,,,,,,,,,,,,,,,,,,,,,,,,,,,,,294.6362667999929,295.6499819000019,295.6333298000973,296.2299501000671,296.2299501000671,None,297.5704512000084,None,left,0.8747385999886319,297.5704512000084,None,298.46941610006616,None,right,0.3269067000364885,298.46941610006616,None,,,,,,,,,,,,,,,,,,,,,,,PPT49,001,2022-07-11_14h57.30.434,ABstudy,2022.1.4,59.95096010413987,
AB,Lag5_T1P_T2P,5,P,P,5,10,4,5,15,hockey puck,Did you see the hockey puck?,0.12,0.016,JPG\,chain01,pen04b,birthdaycandle,watermelon01,hockeypuck,scissors01,measuringcup01,candle01,hammer01,stapler06,ashtray01,feather03a,sewingmachine01a,thermometer02b,alligator,blankImage,blankImage,hockeypuck,,,,,,,,,,,,0,33,33,110,,,,,,,,,,,,,,,,,,,,,,,,,,,,,,,,,,,298.8722915000981,299.8877754000714,299.8709758000914,300.4930452000117,300.4930452000117,None,302.14857170009054,None,left,0.4481576000107452,302.14857170009054,None,302.623946000007,None,left,0.30956270010210574,302.623946000007,None,,,,,,,,,,,,,,,,,,,,,,,PPT49,001,2022-07-11_14h57.30.434,ABstudy,2022.1.4,59.95096010413987,
AB,Lag5_T1P_T2P,5,P,P,5,10,4,5,15,ear,Did you see the ear?,0.12,0.016,JPG\,fork03c,plate01b,toiletpaper01a,greenolive,ear,blueberry01,onion,calculator01,envelope03a,stapler06,book01b,pencil01,sewingmachine01a,brick,watermelon01,blankImage,blankImage,ear,,,,,,,,,,,,0,34,34,107,,,,,,,,,,,,,,,,,,,,,,,,,,,,,,,,,,,302.95744350005407,303.95843410003,303.9417397000361,304.5294237000635,304.5294237000635,None,306.43326170009095,None,left,0.3394823999842629,306.43326170009095,None,306.7948340000585,None,left,0.34509519999846816,306.7948340000585,None,,,,,,,,,,,,,,,,,,,,,,,PPT49,001,2022-07-11_14h57.30.434,ABstudy,2022.1.4,59.95096010413987,
AB,Lag1_T1P_T2A,1,P,A,8,9,7,5,14,Fridge,Did you see the Fridge?,0.12,0.016,JPG\,cherry01,cymbal,envelope03a,foosballtable,shirt02,cellphone,sewingmachine01a,fridge,battery02b,apple07,pencil01,screwdriver04b,strawberry,sunglasses04,blankImage,blankImage,blankImage,fridge,,,,,,,,,,,,0,35,35,173,,,,,,,,,,,,,,,,,,,,,,,,,,,,,,,,,,,307.1622499000514,308.1624815000687,308.1457846000558,308.79879280005116,308.79879280005116,None,310.40819029998966,None,left,0.6048519999021664,310.40819029998966,None,311.0318138001021,None,right,0.43672339990735054,311.0318138001021,None,,,,,,,,,,,,,,,,,,,,,,,PPT49,001,2022-07-11_14h57.30.434,ABstudy,2022.1.4,59.95096010413987,
AB,Lag5_T1A_T2P,5,A,P,7,12,6,4,16,hand,Did you see the hand?,0.12,0.016,JPG\,celery,tennisball01b,calculator01,pear01,screw02,orange,button01,cellphone,onion,apple07,iron01b,stapler05,banana01,paintbrush01,dandelion,toothbrush03b,blankImage,bull,,,,,,,,,,,,0,36,36,281,,,,,,,,,,,,,,,,,,,,,,,,,,,,,,,,,,,311.5023247000063,312.5171194000868,312.48371310008224,313.06210900004953,313.06210900004953,None,315.04640760004986,None,right,1.5509576000040397,315.04640760004986,None,316.62086520006415,None,left,0.35228910006117076,316.62086520006415,None,,,,,,,,,,,,,,,,,,,,,,,PPT49,001,2022-07-11_14h57.30.434,ABstudy,2022.1.4,59.95096010413987,
AB,Lag5_T1A_T2A,5,A,A,5,10,4,5,15,window,Did you see the window?,0.12,0.016,JPG\,leaf02a,apple07,cd,pineapple01a,envelope03a,paintbrush01,pig,canoftennisballs,rice,feather03a,lemon02,balloon01b,avocado01,calculator01,watermelon01,blankImage,blankImage,saxophone,,,,,,,,,,,,0,37,37,301,,,,,,,,,,,,,,,,,,,,,,,,,,,,,,,,,,,317.0068291000789,318.02244229998905,317.9890249000164,318.5689747000579,318.5689747000579,None,320.4059225000674,None,right,1.2465511000482365,320.4059225000674,None,321.6763911000453,None,right,1.2560951999621466,321.6763911000453,None,,,,,,,,,,,,,,,,,,,,,,,PPT49,001,2022-07-11_14h57.30.434,ABstudy,2022.1.4,59.95096010413987,
AB,Lag1_T1P_T2P,1,P,P,8,9,7,4,13,kite,Did you see the kite?,0.12,0.016,JPG\,scissors01,balloon01b,eraser,feather03a,banana01,candle01,measuringcup01,kite,stapler04b,strawberry,pear01,carrot01,globe,blankImage,blankImage,blankImage,blankImage,kite,,,,,,,,,,,,0,38,38,17,,,,,,,,,,,,,,,,,,,,,,,,,,,,,,,,,,,322.9659741000505,323.9785328001017,323.9618195000803,324.68014430010226,324.5826258000452,None,326.17819560004864,None,left,0.8823184999637306,326.17819560004864,None,327.0814320000354,None,right,0.4763874999480322,327.0814320000354,None,,,,,,,,,,,,,,,,,,,,,,,PPT49,001,2022-07-11_14h57.30.434,ABstudy,2022.1.4,59.95096010413987,
AB,Lag1_T1P_T2P,1,P,P,8,9,7,4,13,Hula hoop,Did you see the Hula hoop?,0.12,0.016,JPG\,brownsugar,candle01,match,printer02,broom01,balloon01b,belt02a,hulahoop,stapler04b,feather03a,rice,mushroom01,pencil01,blankImage,blankImage,blankImage,blankImage,hulahoop,,,,,,,,,,,,0,39,39,64,,,,,,,,,,,,,,,,,,,,,,,,,,,,,,,,,,,327.58441950008273,328.5996598000638,328.5663599000545,329.0669374000281,329.0669374000281,None,330.74125359999016,None,right,1.0796334000770003,330.74125359999016,None,331.85296630009543,None,left,0.3355603999225423,331.85296630009543,None,,,,,,,,,,,,,,,,,,,,,,,PPT49,001,2022-07-11_14h57.30.434,ABstudy,2022.1.4,59.95096010413987,
AB,Lag5_T1P_T2P,5,P,P,7,12,6,5,17,elbow,Did you see the elbow?,0.12,0.016,JPG\,candle01,fork03c,plate01b,violin,computerkeyboard02,candy,elbow,paintbrush01,cherry01,sock01a,teabag,stapler01,cd,lighter01,book01b,tennisball01b,blankImage,elbow,,,,,,,,,,,,0,40,40,87,,,,,,,,,,,,,,,,,,,,,,,,,,,,,,,,,,,332.22324910003226,333.2376187000191,333.22079819999635,333.8100739000365,333.8100739000365,None,335.7399839001009,None,left,0.6244704999262467,335.7399839001009,None,336.39103729999624,None,left,0.4056505999760702,336.39103729999624,None,,,,,,,,,,,,,,,,,,,,,,,PPT49,001,2022-07-11_14h57.30.434,ABstudy,2022.1.4,59.95096010413987,
AB,Lag5_T1P_T2P,5,P,P,6,11,5,5,16,sword,Did you see the sword?,0.12,0.016,JPG\,chain01,speaker04,avocado01,watermelon01,scarf,sword01,lamp04a,fork03c,toaster01,slipper03b,stapler03a,cucumber,teabag,ashtray01,computerkeyboard02,book01b,blankImage,sword01,,,,,,,,,,,,0,41,41,143,,,,,,,,,,,,,,,,,,,,,,,,,,,,,,,,,,,336.8289436000632,337.8421783000231,337.8254479999887,338.40327400004026,338.40327400004026,None,340.4213226001011,None,left,0.5673289999831468,340.4213226001011,None,341.01338770007715,None,left,0.3355087999952957,341.01338770007715,None,,,,,,,,,,,,,,,,,,,,,,,PPT49,001,2022-07-11_14h57.30.434,ABstudy,2022.1.4,59.95096010413987,
AB,Lag1_T1P_T2P,1,P,P,7,8,6,4,12,trophy,Did you see the trophy?,0.12,0.016,JPG\,cherry01,cymbal,envelope03a,foosballtable,shirt02,cellphone,trophy01,stapler04b,battery02b,apple07,pencil01,screwdriver04b,blankImage,blankImage,blankImage,blankImage,blankImage,trophy01,,,,,,,,,,,,0,42,42,74,,,,,,,,,,,,,,,,,,,,,,,,,,,,,,,,,,,341.38629040005617,342.3967172000557,342.3803720000433,342.954564100015,342.954564100015,None,344.4178823000984,None,left,0.6665349999675527,344.4178823000984,None,345.1161288000876,None,right,0.3125278999796137,345.1161288000876,None,,,,,,,,,,,,,,,,,,,,,,,PPT49,001,2022-07-11_14h57.30.434,ABstudy,2022.1.4,59.95096010413987,
AB,Lag5_T1P_T2P,5,P,P,6,11,5,3,14,fish,Did you see the fish?,0.12,0.016,JPG\,broom01,globe,cellphone,tableknife02,cauliflower01,holdfast,ring01,alligator,rice,toaster01,stapler03b,grape01,microscope,cucumber,blankImage,blankImage,blankImage,holdfast,,,,,,,,,,,,0,43,43,133,,,,,,,,,,,,,,,,,,,,,,,,,,,,,,,,,,,345.4537505999906,346.4675169000402,346.4507672000909,347.03069680009503,347.03069680009503,None,348.74790730001405,None,left,0.4971116000087932,348.74790730001405,None,349.2703320001019,None,left,0.34333259996492416,349.2703320001019,None,,,,,,,,,,,,,,,,,,,,,,,PPT49,001,2022-07-11_14h57.30.434,ABstudy,2022.1.4,59.95096010413987,
AB,Lag1_T1P_T2P,1,P,P,6,7,5,5,12,bat,Did you see the bat?,0.12,0.016,JPG\,comb02a,key01,medal02b,battery02b,lighter01,bat,stapler05,sandal,pig,cellphone,computerkeyboard02,calculator01,blankImage,blankImage,blankImage,blankImage,blankImage,bat,,,,,,,,,,,,0,44,44,35,,,,,,,,,,,,,,,,,,,,,,,,,,,,,,,,,,,349.6405156000983,350.65496270009317,350.6215135999955,351.208842299995,351.208842299995,None,352.6865885000443,None,left,0.6057966999942437,352.6865885000443,None,353.32664680003654,None,right,0.2616434999508783,353.32664680003654,None,,,,,,,,,,,,,,,,,,,,,,,PPT49,001,2022-07-11_14h57.30.434,ABstudy,2022.1.4,59.95096010413987,
AB,Lag5_T1P_T2P,5,P,P,6,11,5,4,15,Bumper car,Did you see the Bumper car?,0.12,0.016,JPG\,eraser,measuringcup01,chain01,birthdaycandle,ring01,bumpercar,weight04a,pig,cauliflower01,celery,stapler01,sunglasses04,greenolive,candy,strawberry,blankImage,blankImage,bumpercar,,,,,,,,,,,,0,45,45,104,,,,,,,,,,,,,,,,,,,,,,,,,,,,,,,,,,,353.68212890008,354.6922732000239,354.67560670000967,355.261211700039,355.261211700039,None,357.0782331000082,None,right,0.6217928000260144,357.0782331000082,None,357.728808300104,None,right,0.39541200001258403,357.728808300104,None,,,,,,,,,,,,,,,,,,,,,,,PPT49,001,2022-07-11_14h57.30.434,ABstudy,2022.1.4,59.95096010413987,
AB,Lag1_T1P_T2A,1,P,A,7,8,6,3,11,walkie talkie,Did you see the walkie talkie?,0.12,0.016,JPG\,teabag,envelope03a,cellphone,apple07,cauliflower01,orange,walkietalkie,book01b,hammer01,feather03a,toaster01,blankImage,blankImage,blankImage,blankImage,blankImage,blankImage,walkietalkie,,,,,,,,,,,,0,46,46,197,,,,,,,,,,,,,,,,,,,,,,,,,,,,,,,,,,,358.1531526000472,359.1634866000386,359.146763500059,359.71536380006,359.71536380006,None,361.1242474000901,None,left,0.6412254000315443,361.1242474000901,None,361.78249310003594,None,right,0.35013310005888343,361.78249310003594,None,,,,,,,,,,,,,,,,,,,,,,,PPT49,001,2022-07-11_14h57.30.434,ABstudy,2022.1.4,59.95096010413987,
AB,Lag1_T1P_T2A,1,P,A,6,7,5,5,12,foot,Did you see the foot?,0.12,0.016,JPG\,watermelon01,cigarette,weight04a,cymbal,cauliflower01,foot,cherry01,broom01,battery02b,key01,baseball01a,iron01b,blankImage,blankImage,blankImage,blankImage,blankImage,foot,,,,,,,,,,,,0,47,47,188,,,,,,,,,,,,,,,,,,,,,,,,,,,,,,,,,,,362.15194860007614,363.1671740000602,363.13379630004056,363.7190323000541,363.7190323000541,None,365.18396210006904,None,left,0.9563979000085965,365.18396210006904,None,366.1701780000003,None,left,0.4102143000345677,366.1701780000003,None,,,,,,,,,,,,,,,,,,,,,,,PPT49,001,2022-07-11_14h57.30.434,ABstudy,2022.1.4,59.95096010413987,
AB,Lag5_T1P_T2P,5,P,P,6,11,5,5,16,microwave,Did you see the microwave?,0.12,0.016,JPG\,pen04b,speaker04,lighter01,cherry01,weight04a,microwave,sock01a,toothbrush03b,broom01,sewingmachine01a,stapler06,iron01b,clock01a,sandal,cd,blueberry01,blankImage,microwave,,,,,,,,,,,,0,48,48,136,,,,,,,,,,,,,,,,,,,,,,,,,,,,,,,,,,,366.6062015000498,367.6052761001047,367.58859120006673,368.16654120001476,368.16654120001476,None,370.11257640004624,None,left,0.3637256999500096,370.11257640004624,None,370.51023560005706,None,left,0.21400500007439405,370.51023560005706,None,,,,,,,,,,,,,,,,,,,,,,,PPT49,001,2022-07-11_14h57.30.434,ABstudy,2022.1.4,59.95096010413987,
AB,Lag5_T1A_T2P,5,A,P,5,10,4,4,14,mail box,Did you see the mail box?,0.12,0.016,JPG\,button01,celery,birthdaycandle,apple07,avocado01,tennisball01b,dice05a,teabag,clock01a,stapler05,tomato01,scarf,orange,battery02b,blankImage,blankImage,blankImage,jeep,,,,,,,,,,,,0,49,49,263,,,,,,,,,,,,,,,,,,,,,,,,,,,,,,,,,,,370.75406569999177,371.7598001000006,371.7442519000033,372.4150610000361,372.3354835000355,None,374.0885519000003,None,right,0.9721801000414416,374.0885519000003,None,375.0794598000357,None,right,1.1491458000382408,375.0794598000357,None,,,,,,,,,,,,,,,,,,,,,,,PPT49,001,2022-07-11_14h57.30.434,ABstudy,2022.1.4,59.95096010413987,
AB,Lag5_T1P_T2P,5,P,P,6,11,5,4,15,sword,Did you see the sword?,0.12,0.016,JPG\,8ball,banana01,scissors01,pig,shirt02,broadsword,pear01,sponge01,fork03c,tableknife02,stapler06,match,toothbrush03b,birthdaycandle,candle01,blankImage,blankImage,broadsword,,,,,,,,,,,,0,50,50,167,,,,,,,,,,,,,,,,,,,,,,,,,,,,,,,,,,,376.25107640004717,377.26480210002046,377.24804000009317,377.81934370007366,377.81934370007366,None,379.6389244000893,None,left,0.5492440999951214,379.6389244000893,None,380.2179127000272,None,right,0.2743403000058606,380.2179127000272,None,,,,,,,,,,,,,,,,,,,,,,,PPT49,001,2022-07-11_14h57.30.434,ABstudy,2022.1.4,59.95096010413987,
AB,Lag1_T1P_T2P,1,P,P,8,9,7,3,12,Fire hydrant,Did you see the Fire hydrant?,0.12,0.016,JPG\,foosballtable,candy,envelope03a,microscope,pencil01,leaf02a,scissors01,firehydrant,stapler01,dandelion,pineapple01a,hammer01,blankImage,blankImage,blankImage,blankImage,blankImage,firehydrant,,,,,,,,,,,,0,51,51,83,,,,,,,,,,,,,,,,,,,,,,,,,,,,,,,,,,,380.5202079000883,381.5190751000773,381.50255660002586,382.0029526000144,382.0029526000144,None,383.5175072000129,None,left,0.7188457000302151,383.5175072000129,None,384.2552222000668,None,right,0.31757449998985976,384.2552222000668,None,,,,,,,,,,,,,,,,,,,,,,,PPT49,001,2022-07-11_14h57.30.434,ABstudy,2022.1.4,59.95096010413987,
AB,Lag5_T1A_T2P,5,A,P,5,10,4,5,15,Sushi,Did you see the Sushi?,0.12,0.016,JPG\,pineapple01a,leaf02a,grape01,toiletpaper01a,match,tennisball01b,spoon01,chain01,pig,stapler04b,ring01,lemon02,dice05a,pizza,potato02b,blankImage,blankImage,crown,,,,,,,,,,,,0,52,52,285,,,,,,,,,,,,,,,,,,,,,,,,,,,,,,,,,,,384.6524405000964,385.65643930004444,385.6397143000504,386.23586460005026,386.23586460005026,None,388.0527599999914,None,left,1.2480917000211775,388.0527599999914,None,389.3269088000525,None,left,1.2467130000004545,389.3269088000525,None,,,,,,,,,,,,,,,,,,,,,,,PPT49,001,2022-07-11_14h57.30.434,ABstudy,2022.1.4,59.95096010413987,
AB,Lag1_T1A_T2P,1,A,P,6,7,5,3,10,curtain,Did you see the curtain?,0.12,0.016,JPG\,carrot01,greenolive,fork03c,chain01,ashtray01,watermelon01,stapler06,printer02,comb02a,toaster01,blankImage,blankImage,blankImage,blankImage,blankImage,blankImage,blankImage,birdhouse,,,,,,,,,,,,0,53,53,249,,,,,,,,,,,,,,,,,,,,,,,,,,,,,,,,,,,390.5989822000265,391.6124146000948,391.5956121000927,392.18494910001755,392.18494910001755,None,393.4359084001044,None,right,1.68880319991149,393.4359084001044,None,395.1496373000555,None,left,0.3679264000384137,395.1496373000555,None,,,,,,,,,,,,,,,,,,,,,,,PPT49,001,2022-07-11_14h57.30.434,ABstudy,2022.1.4,59.95096010413987,
AB,Lag1_T1P_T2A,1,P,A,6,7,5,3,10,Dragon fly,Did you see the Dragon fly?,0.12,0.016,JPG\,leaf02a,pear01,measuringcup01,cigarette,fan,dragonfly01,teabag,tableknife02,ring01,pencil01,blankImage,blankImage,blankImage,blankImage,blankImage,blankImage,blankImage,dragonfly01,,,,,,,,,,,,0,54,54,185,,,,,,,,,,,,,,,,,,,,,,,,,,,,,,,,,,,395.62778380000964,396.6339776000241,396.6174062000355,397.20467050001025,397.20467050001025,None,398.3185289000394,None,left,1.4705078999977559,398.3185289000394,None,399.8205779000418,None,right,0.3433673999970779,399.8205779000418,None,,,,,,,,,,,,,,,,,,,,,,,PPT49,001,2022-07-11_14h57.30.434,ABstudy,2022.1.4,59.95096010413987,
AB,Lag5_T1P_T2P,5,P,P,5,10,4,3,13,Sushi,Did you see the Sushi?,0.12,0.016,JPG\,carrot01,greenolive,fork03c,chain01,makiroll,watermelon01,tableknife02,printer02,comb02a,stapler03b,orange,rice,fan,blankImage,blankImage,blankImage,blankImage,makiroll,,,,,,,,,,,,0,55,55,135,,,,,,,,,,,,,,,,,,,,,,,,,,,,,,,,,,,400.1933480000589,401.20533650007565,401.1887970000971,401.7543965000659,401.7543965000659,None,403.3996065000538,None,left,0.46103679994121194,403.3996065000538,None,403.89129210007377,None,left,0.2965161999454722,403.89129210007377,None,,,,,,,,,,,,,,,,,,,,,,,PPT49,001,2022-07-11_14h57.30.434,ABstudy,2022.1.4,59.95096010413987,
AB,Lag1_T1A_T2P,1,A,P,6,7,5,5,12,Ostrich,Did you see the Ostrich?,0.12,0.016,JPG\,thermometer02b,candle08b,comb02a,toothbrush03b,brick,computerkeyboard02,stapler05,pineapple01a,candy,birthdaycandle,clock04,hairclip03,blankImage,blankImage,blankImage,blankImage,blankImage,discoball,,,,,,,,,,,,0,56,56,232,,,,,,,,,,,,,,,,,,,,,,,,,,,,,,,,,,,404.2164639000548,405.2256119000958,405.2093996000476,405.7808267000364,405.7808267000364,None,407.23823690006975,None,right,1.1335132999811321,407.23823690006975,None,408.39612130005844,None,left,0.4556716999504715,408.39612130005844,None,,,,,,,,,,,,,,,,,,,,,,,PPT49,001,2022-07-11_14h57.30.434,ABstudy,2022.1.4,59.95096010413987,
AB,Lag5_T1P_T2P,5,P,P,7,12,6,3,15,lips,Did you see the lips?,0.12,0.016,JPG\,cigarette,fork03c,greenolive,broccoli01a,avocado01,tennisball01b,lip,leaf02a,pig,fan,clock01a,stapler03a,envelope03a,birthdaycandle,teabag,blankImage,blankImage,lip,,,,,,,,,,,,0,57,57,95,,,,,,,,,,,,,,,,,,,,,,,,,,,,,,,,,,,408.8847493000794,409.897253000061,409.88056850002613,410.4979295000667,410.4979295000667,None,412.3026685999939,None,left,0.5907019999576733,412.3026685999939,None,412.9171794001013,None,right,0.3997526998864487,412.9171794001013,None,,,,,,,,,,,,,,,,,,,,,,,PPT49,001,2022-07-11_14h57.30.434,ABstudy,2022.1.4,59.95096010413987,
AB,Lag1_T1P_T2P,1,P,P,7,8,6,4,12,Christmas Tree,Did you see the Christmas Tree?,0.12,0.016,JPG\,sandal,fan,printer02,cellphone,mushroom01,candle08b,firtree,stapler03a,lamp04a,hammer01,teabag,aceofdiamond,blankImage,blankImage,blankImage,blankImage,blankImage,firtree,,,,,,,,,,,,0,58,58,6,,,,,,,,,,,,,,,,,,,,,,,,,,,,,,,,,,,413.3464393999893,414.35129980009515,414.3346248000162,414.91951040003914,414.91951040003914,None,416.370484800078,None,left,0.6416428999509662,416.370484800078,None,417.0384190999903,None,right,0.29505439999047667,417.0384190999903,None,,,,,,,,,,,,,,,,,,,,,,,PPT49,001,2022-07-11_14h57.30.434,ABstudy,2022.1.4,59.95096010413987,
AB,Lag1_T1P_T2P,1,P,P,8,9,7,5,14,helicopter,Did you see the helicopter?,0.12,0.016,JPG\,broom01,globe,cellphone,tableknife02,cauliflower01,scissors01,ring01,helicopter,stapler01,toaster01,cigarette,grape01,microscope,cucumber,blankImage,blankImage,blankImage,helicopter,,,,,,,,,,,,0,59,59,85,,,,,,,,,,,,,,,,,,,,,,,,,,,,,,,,,,,417.35999890009407,418.37237480003387,418.3556455000071,418.9394382000901,418.9394382000901,None,420.6392038000049,None,left,0.5083469999954104,420.6392038000049,None,421.17519249999896,None,right,0.3574465001001954,421.17519249999896,None,,,,,,,,,,,,,,,,,,,,,,,PPT49,001,2022-07-11_14h57.30.434,ABstudy,2022.1.4,59.95096010413987,
AB,Lag1_T1P_T2P,1,P,P,8,9,7,5,14,lawn mower,Did you see the lawn mower?,0.12,0.016,JPG\,battery02b,sunglasses04,pear01,tennisball01b,clock01a,speaker04,binoculars01b,lawnmower,stapler05,pineapple01a,avocado01,grape01,blueberry01,violin,blankImage,blankImage,blankImage,lawnmower,,,,,,,,,,,,0,60,60,46,,,,,,,,,,,,,,,,,,,,,,,,,,,,,,,,,,,421.5609093999956,422.56021840008907,422.54455950006377,423.1973722000839,423.1973722000839,None,424.8226860000286,None,left,0.7499759000493214,424.8226860000286,None,425.59643630008213,None,right,0.7041383000323549,425.59643630008213,None,,,,,,,,,,,,,,,,,,,,,,,PPT49,001,2022-07-11_14h57.30.434,ABstudy,2022.1.4,59.95096010413987,
AB,Lag5_T1P_T2P,5,P,P,7,12,6,4,16,window,Did you see the window?,0.12,0.016,JPG\,cigarette,pig,banana01,strawberry,clock01a,plate01b,dormer,blueberry01,battery02b,pineapple01a,chain01,stapler01,candy,pen04b,teabag,birthdaycandle,blankImage,dormer,,,,,,,,,,,,0,61,61,170,,,,,,,,,,,,,,,,,,,,,,,,,,,,,,,,,,,426.334181800019,427.34792550001293,427.33118430001196,427.9101338000037,427.9101338000037,None,429.7675254000351,None,left,0.4043445000424981,429.7675254000351,None,430.2002417000476,None,left,0.22759789996780455,430.2002417000476,None,,,,,,,,,,,,,,,,,,,,,,,PPT49,001,2022-07-11_14h57.30.434,ABstudy,2022.1.4,59.95096010413987,
AB,Lag5_T1P_T2A,5,P,A,7,12,6,3,15,Toy soldier,Did you see the Toy soldier?,0.12,0.016,JPG\,binoculars01b,cymbal,pizza,candy,paintbrush01,sponge01,toysoldier01b,thermometer02b,speaker04,lemon02,lipstick02a,strawberry,candle01,acorn,plate01b,blankImage,blankImage,toysoldier01b,,,,,,,,,,,,0,62,62,203,,,,,,,,,,,,,,,,,,,,,,,,,,,,,,,,,,,430.453831300023,431.4685092000291,431.43513250001706,432.0315325000556,432.0315325000556,None,433.8790887000505,None,left,0.5092601999640465,433.8790887000505,None,434.4049768000841,None,right,0.2874025999335572,434.4049768000841,None,,,,,,,,,,,,,,,,,,,,,,,PPT49,001,2022-07-11_14h57.30.434,ABstudy,2022.1.4,59.95096010413987,
AB,Lag5_T1P_T2P,5,P,P,6,11,5,3,14,ladder,Did you see the ladder?,0.12,0.016,JPG\,celery,orange,scissors01,balloon01b,avocado01,stepladder,mushroom01,sewingmachine01a,lighter01,dice05a,stapler01,fan,cd,sock01a,blankImage,blankImage,blankImage,stepladder,,,,,,,,,,,,0,63,63,119,,,,,,,,,,,,,,,,,,,,,,,,,,,,,,,,,,,434.7263103000587,435.74006300000474,435.7243791000219,436.32971369998995,436.32971369998995,None,437.9867524000583,None,right,1.4583247000118718,437.9867524000583,None,439.4765115000773,None,right,0.431393799954094,439.4765115000773,None,,,,,,,,,,,,,,,,,,,,,,,PPT49,001,2022-07-11_14h57.30.434,ABstudy,2022.1.4,59.95096010413987,
AB,Lag5_T1P_T2P,5,P,P,8,13,7,3,16,church,Did you see the church?,0.12,0.016,JPG\,clock01a,cellphone,toaster01,toothbrush03b,cauliflower01,microscope,comb02a,church,scarf,clock04,sponge01,iron01b,stapler06,celery,ring01,ashtray01,blankImage,church,,,,,,,,,,,,0,64,64,129,,,,,,,,,,,,,,,,,,,,,,,,,,,,,,,,,,,439.9292120001046,440.94466660008766,440.91130330006126,441.4927112000296,441.4927112000296,None,443.5084373001009,None,left,1.2795239998959005,443.5084373001009,None,444.81552699999884,None,right,0.3094829000765458,444.81552699999884,None,,,,,,,,,,,,,,,,,,,,,,,PPT49,001,2022-07-11_14h57.30.434,ABstudy,2022.1.4,59.95096010413987,
AB,Lag1_T1P_T2P,1,P,P,6,7,5,3,10,cupcake,Did you see the cupcake?,0.12,0.016,JPG\,printer02,leaf02a,cauliflower01,sock01a,brownsugar,cupcake,stapler01,orange,belt02a,shirt02,blankImage,blankImage,blankImage,blankImage,blankImage,blankImage,blankImage,cupcake,,,,,,,,,,,,0,65,65,38,,,,,,,,,,,,,,,,,,,,,,,,,,,,,,,,,,,445.15407940000296,446.1666597001022,446.1501278000651,446.72871320007835,446.72871320007835,None,447.93426660005935,None,left,0.6135487999999896,447.93426660005935,None,448.56994820002,None,left,0.3059336000587791,448.56994820002,None,,,,,,,,,,,,,,,,,,,,,,,PPT49,001,2022-07-11_14h57.30.434,ABstudy,2022.1.4,59.95096010413987,
AB,Lag1_T1P_T2P,1,P,P,8,9,7,3,12,bridge,Did you see the bridge?,0.12,0.016,JPG\,speaker04,sewingmachine01a,eraser,violin,globe,belt02a,sunglasses04,bridge,stapler01,greenolive,alligator,pear01,blankImage,blankImage,blankImage,blankImage,blankImage,bridge,,,,,,,,,,,,0,66,66,78,,,,,,,,,,,,,,,,,,,,,,,,,,,,,,,,,,,448.9081286001019,449.9208453000756,449.90528020006604,450.4986259000143,450.4986259000143,None,451.96530879999045,None,left,0.5905764000490308,451.96530879999045,None,452.57328390004113,None,left,0.23848289996385574,452.57328390004113,None,,,,,,,,,,,,,,,,,,,,,,,PPT49,001,2022-07-11_14h57.30.434,ABstudy,2022.1.4,59.95096010413987,
AB,Lag5_T1P_T2A,5,P,A,8,13,7,4,17,Tarantula,Did you see the Tarantula?,0.12,0.016,JPG\,binoculars01b,speaker04,sandal,envelope03a,plate01b,comb02a,battery02b,tarantula,measuringcup01,key01,medal02b,lamp04a,tennisball01b,pizza,cigarette,sunglasses04,blankImage,tarantula,,,,,,,,,,,,0,67,67,201,,,,,,,,,,,,,,,,,,,,,,,,,,,,,,,,,,,452.84619410010055,453.85766700003296,453.8411007000832,454.42398870002944,454.42398870002944,None,456.3270698999986,None,left,0.40521220001392066,456.3270698999986,None,456.76033160008956,None,right,0.2598829000489786,456.76033160008956,None,,,,,,,,,,,,,,,,,,,,,,,PPT49,001,2022-07-11_14h57.30.434,ABstudy,2022.1.4,59.95096010413987,
AB,Lag1_T1A_T2P,1,A,P,8,9,7,3,12,seal,Did you see the seal?,0.12,0.016,JPG\,dice05a,watch02a,pig,lighter01,button01,strawberry,paintbrush01,microscope,stapler03a,pen04b,feather03a,8ball,blankImage,blankImage,blankImage,blankImage,blankImage,hockeystick,,,,,,,,,,,,0,68,68,235,,,,,,,,,,,,,,,,,,,,,,,,,,,,,,,,,,,457.04758980008774,458.0619347000029,458.0286594000645,458.6010416999925,458.6010416999925,None,460.15787910006475,None,right,0.7834352999925613,460.15787910006475,None,460.964939000085,None,left,0.6866625999100506,460.964939000085,None,,,,,,,,,,,,,,,,,,,,,,,PPT49,001,2022-07-11_14h57.30.434,ABstudy,2022.1.4,59.95096010413987,
AB,Lag1_T1A_T2P,1,A,P,8,9,7,3,12,porcupine,Did you see the porcupine?,0.12,0.016,JPG\,celery,orange,scissors01,balloon01b,avocado01,printer02,mushroom01,sewingmachine01a,stapler01,dice05a,ashtray01,fan,blankImage,blankImage,blankImage,blankImage,blankImage,drumstick,,,,,,,,,,,,0,69,69,233,,,,,,,,,,,,,,,,,,,,,,,,,,,,,,,,,,,461.688526700018,462.69991100009065,462.68325390003156,463.2514711000258,463.2514711000258,None,464.6991359000094,None,right,1.009375900030136,464.6991359000094,None,465.7363665000303,None,left,0.4761350000044331,465.7363665000303,None,,,,,,,,,,,,,,,,,,,,,,,PPT49,001,2022-07-11_14h57.30.434,ABstudy,2022.1.4,59.95096010413987,
AB,Lag5_T1A_T2P,5,A,P,6,11,5,3,14,keys,Did you see the keys?,0.12,0.016,JPG\,pencil01,microscope,banana01,computerkeyboard02,celery,cellphone,scissors01,sock01a,book01b,onion,stapler03a,binoculars01b,baseball01a,iron01b,blankImage,blankImage,blankImage,treadmill,,,,,,,,,,,,0,70,70,275,,,,,,,,,,,,,,,,,,,,,,,,,,,,,,,,,,,466.2416882000398,467.2544216000242,467.23781510000117,467.8314600000158,467.8314600000158,None,469.5692957000574,None,right,0.8665862999623641,469.5692957000574,None,470.457751500071,None,right,0.8500563999405131,470.457751500071,None,,,,,,,,,,,,,,,,,,,,,,,PPT49,001,2022-07-11_14h57.30.434,ABstudy,2022.1.4,59.95096010413987,
AB,Lag1_T1P_T2P,1,P,P,6,7,5,3,10,windmill,Did you see the windmill?,0.12,0.016,JPG\,pizza,printer02,medal02b,spoon01,grape01,windmill,stapler04b,watermelon01,celery,battery02b,blankImage,blankImage,blankImage,blankImage,blankImage,blankImage,blankImage,windmill,,,,,,,,,,,,0,71,71,75,,,,,,,,,,,,,,,,,,,,,,,,,,,,,,,,,,,471.32904570002574,472.3431262000231,472.32613270008005,472.89796309999656,472.89796309999656,None,474.13816259999294,None,left,0.7855469000060111,474.13816259999294,None,474.9453579999972,None,right,0.6105232000118122,474.9453579999972,None,,,,,,,,,,,,,,,,,,,,,,,PPT49,001,2022-07-11_14h57.30.434,ABstudy,2022.1.4,59.95096010413987,
AB,Lag1_T1P_T2P,1,P,P,8,9,7,5,14,giraffe,Did you see the giraffe?,0.12,0.016,JPG\,pencil01,foosballtable,banana01,lipstick02a,toaster01,grape01,key01,giraffe,stapler03b,pineapple01a,strawberry,teabag,dandelion,paintbrush01,blankImage,blankImage,blankImage,giraffe,,,,,,,,,,,,0,72,72,0,,,,,,,,,,,,,,,,,,,,,,,,,,,,,,,,,,,475.5854855000507,476.59685329999775,476.58014740003273,477.16265640000347,477.16265640000347,None,478.8415651000105,None,left,0.37057050003204495,478.8415651000105,None,479.23466390010435,None,left,0.3213921000715345,479.23466390010435,None,,,,,,,,,,,,,,,,,,,,,,,PPT49,001,2022-07-11_14h57.30.434,ABstudy,2022.1.4,59.95096010413987,
AB,Lag1_T1A_T2P,1,A,P,8,9,7,4,13,Fireplace,Did you see the Fireplace?,0.12,0.016,JPG\,scissors01,ashtray01,garlic01a,medal02b,cigarette,candle08b,leaf02a,envelope03a,stapler06,rice,toiletpaper01a,greenolive,cymbal,blankImage,blankImage,blankImage,blankImage,dartboard,,,,,,,,,,,,0,73,73,252,,,,,,,,,,,,,,,,,,,,,,,,,,,,,,,,,,,479.5855023000622,480.6011882000603,480.56775460008066,481.1298581000883,481.1298581000883,None,482.65460180002265,None,right,0.725831100018695,482.65460180002265,None,483.4039091001032,None,right,1.6160253999987617,483.4039091001032,None,,,,,,,,,,,,,,,,,,,,,,,PPT49,001,2022-07-11_14h57.30.434,ABstudy,2022.1.4,59.95096010413987,
AB,Lag1_T1A_T2P,1,A,P,8,9,7,5,14,clock,Did you see the clock?,0.12,0.016,JPG\,speaker04,sewingmachine01a,eraser,violin,globe,belt02a,sunglasses04,cymbal,stapler01,greenolive,alligator,pear01,watch02a,screwdriver04b,blankImage,blankImage,blankImage,peacock,,,,,,,,,,,,0,74,74,240,,,,,,,,,,,,,,,,,,,,,,,,,,,,,,,,,,,485.03836150001734,486.0393032000866,486.0226588000078,486.62105170008726,486.62105170008726,None,488.3338173000375,None,right,0.7427164999535307,488.3338173000375,None,489.09232410008553,None,right,0.6315758998971432,489.09232410008553,None,,,,,,,,,,,,,,,,,,,,,,,PPT49,001,2022-07-11_14h57.30.434,ABstudy,2022.1.4,59.95096010413987,
AB,Lag5_T1P_T2P,5,P,P,7,12,6,3,15,Eye patch,Did you see the Eye patch?,0.12,0.016,JPG\,candle01,paintbrush01,scissors01,fan,microscope,toothbrush03b,eyepatch,watermelon01,teabag,pencil01,lemon02,stapler05,shirt02,cauliflower01,cd,blankImage,blankImage,eyepatch,,,,,,,,,,,,0,75,75,108,,,,,,,,,,,,,,,,,,,,,,,,,,,,,,,,,,,489.74903150007594,490.7609252000693,490.7442369000055,491.32218950008973,491.32218950008973,None,493.1461238000775,None,left,0.5141951999394223,493.1461238000775,None,493.6808159000939,None,left,0.33869339991360903,493.6808159000939,None,,,,,,,,,,,,,,,,,,,,,,,PPT49,001,2022-07-11_14h57.30.434,ABstudy,2022.1.4,59.95096010413987,
AB,Lag1_T1P_T2P,1,P,P,6,7,5,4,11,Bow,Did you see the Bow?,0.12,0.016,JPG\,broom01,plate01b,scissors01,garlic01a,paintbrush01,bow,stapler03a,shirt02,speaker04,celery,sandal,blankImage,blankImage,blankImage,blankImage,blankImage,blankImage,bow,,,,,,,,,,,,0,76,76,53,,,,,,,,,,,,,,,,,,,,,,,,,,,,,,,,,,,494.1151457000524,495.1158897000132,495.1002044000197,495.70599620009307,495.70599620009307,None,496.9936116000172,None,right,0.7465808000415564,496.9936116000172,None,497.76819100009743,None,left,0.6351658999919891,497.76819100009743,None,,,,,,,,,,,,,,,,,,,,,,,PPT49,001,2022-07-11_14h57.30.434,ABstudy,2022.1.4,59.95096010413987,
AB,Lag5_T1P_T2P,5,P,P,7,12,6,3,15,Rollerblade,Did you see the Rollerblade?,0.12,0.016,JPG\,hammer01,sponge01,toaster01,cherry01,feather03a,mushroom01,rollerblade,pencil01,tennisball01b,brick,clock04,stapler06,teabag,garlic01a,envelope03a,blankImage,blankImage,rollerblade,,,,,,,,,,,,0,77,77,116,,,,,,,,,,,,,,,,,,,,,,,,,,,,,,,,,,,498.44513620005455,499.45310780010186,499.4363133000443,500.0083173000021,500.0083173000021,None,501.87284389999695,None,left,0.34716610005125403,501.87284389999695,None,502.24092510004994,None,left,0.2428893999895081,502.24092510004994,None,,,,,,,,,,,,,,,,,,,,,,,PPT49,001,2022-07-11_14h57.30.434,ABstudy,2022.1.4,59.95096010413987,
AB,Lag5_T1A_T2P,5,A,P,5,10,4,4,14,Chefs hat,Did you see the Chefs hat?,0.12,0.016,JPG\,candle01,fork03c,plate01b,violin,computerkeyboard02,candy,calculator01,paintbrush01,cherry01,stapler06,teabag,banana01,cd,lighter01,blankImage,blankImage,blankImage,horseshoe,,,,,,,,,,,,0,78,78,278,,,,,,,,,,,,,,,,,,,,,,,,,,,,,,,,,,,502.5141337000532,503.52388830005657,503.507107200101,504.0735187000828,504.0735187000828,None,505.80931110004894,None,right,1.2359445999609306,505.80931110004894,None,507.07752150006127,None,left,0.3748095999471843,507.07752150006127,None,,,,,,,,,,,,,,,,,,,,,,,PPT49,001,2022-07-11_14h57.30.434,ABstudy,2022.1.4,59.95096010413987,
AB,Lag5_T1P_T2P,5,P,P,5,10,4,4,14,duck,Did you see the duck?,0.12,0.016,JPG\,celery,pencil01,fan,foosballtable,duck01,shirt02,potato02b,fork03c,button01,stapler03a,baseball01a,printer02,cauliflower01,dandelion,blankImage,blankImage,blankImage,duck01,,,,,,,,,,,,0,79,79,130,,,,,,,,,,,,,,,,,,,,,,,,,,,,,,,,,,,507.4821111999918,508.49542870000005,508.4786171000451,509.07300620002206,509.07300620002206,None,510.6656542000128,None,left,0.4737443000776693,510.6656542000128,None,511.16632030007895,None,left,0.2699262999230996,511.16632030007895,None,,,,,,,,,,,,,,,,,,,,,,,PPT49,001,2022-07-11_14h57.30.434,ABstudy,2022.1.4,59.95096010413987,
AB,Lag5_T1P_T2P,5,P,P,7,12,6,5,17,truck,Did you see the truck?,0.12,0.016,JPG\,binoculars01b,speaker04,sandal,envelope03a,plate01b,comb02a,boxtruck,chain01,measuringcup01,key01,medal02b,stapler05,tennisball01b,pizza,cigarette,sunglasses04,blankImage,boxtruck,,,,,,,,,,,,0,80,80,166,,,,,,,,,,,,,,,,,,,,,,,,,,,,,,,,,,,511.469762200024,512.4827463000547,512.4659323000815,513.0637388000032,513.0637388000032,None,514.9507647000719,None,right,0.9809089000336826,514.9507647000719,None,515.9527227000799,None,right,0.8268790000583977,515.9527227000799,None,,,,,,,,,,,,,,,,,,,,,,,PPT49,001,2022-07-11_14h57.30.434,ABstudy,2022.1.4,59.95096010413987,
AB,Lag5_T1A_T2A,5,A,A,7,12,6,4,16,boxing glove,Did you see the boxing glove?,0.12,0.016,JPG\,cherry01,cymbal,envelope03a,foosballtable,shirt02,cellphone,sewingmachine01a,candle08b,battery02b,apple07,pencil01,screwdriver04b,strawberry,sunglasses04,feather03a,rice,blankImage,lollipop04,,,,,,,,,,,,0,81,81,296,,,,,,,,,,,,,,,,,,,,,,,,,,,,,,,,,,,516.8099730000831,517.8209760000464,517.8043117000489,518.3831316001015,518.3831316001015,None,520.2959780000383,None,right,0.6519516999833286,520.2959780000383,None,520.9744000000646,None,left,0.4613835000200197,520.9744000000646,None,,,,,,,,,,,,,,,,,,,,,,,PPT49,001,2022-07-11_14h57.30.434,ABstudy,2022.1.4,59.95096010413987,
AB,Lag5_T1P_T2P,5,P,P,8,13,7,5,18,Kiwi,Did you see the Kiwi?,0.12,0.016,JPG\,violin,pizza,toothbrush03b,pineapple01a,banana01,ashtray01,candy,kiwi03,clock04,sock01a,microscope,speaker04,stapler04b,sunglasses04,lipstick02a,blueberry01,blankImage,kiwi03,,,,,,,,,,,,0,82,82,111,,,,,,,,,,,,,,,,,,,,,,,,,,,,,,,,,,,521.4677141000284,522.4761479001027,522.4592842001002,523.0463210000889,523.0463210000889,None,525.0742292000214,None,left,0.225122099975124,525.0742292000214,None,525.3282655000221,None,left,0.3078913000645116,525.3282655000221,None,,,,,,,,,,,,,,,,,,,,,,,PPT49,001,2022-07-11_14h57.30.434,ABstudy,2022.1.4,59.95096010413987,
AB,Lag5_T1A_T2P,5,A,P,8,13,7,3,16,ladder,Did you see the ladder?,0.12,0.016,JPG\,apple07,toiletpaper01a,pizza,dandelion,greenolive,eraser,microscope,violin,orange,lipstick02a,balloon01b,sandal,stapler01,fan,book01b,sewingmachine01a,blankImage,ostrich,,,,,,,,,,,,0,83,83,269,,,,,,,,,,,,,,,,,,,,,,,,,,,,,,,,,,,525.6664905000944,526.6802070999984,526.6634475000901,527.2817738000304,527.2817738000304,None,529.2165439000819,None,right,1.0272607998922467,529.2165439000819,None,530.2672645000275,None,left,0.3769107999978587,530.2672645000275,None,,,,,,,,,,,,,,,,,,,,,,,PPT49,001,2022-07-11_14h57.30.434,ABstudy,2022.1.4,59.95096010413987,
AB,Lag5_T1A_T2P,5,A,P,7,12,6,4,16,church,Did you see the church?,0.12,0.016,JPG\,printer02,leaf02a,cauliflower01,sock01a,brownsugar,paintbrush01,pig,orange,belt02a,shirt02,key01,stapler06,cigarette,scissors01,envelope03a,blueberry01,blankImage,ant,,,,,,,,,,,,0,84,84,279,,,,,,,,,,,,,,,,,,,,,,,,,,,,,,,,,,,530.6711040000664,531.6851570000872,531.6683794000419,532.3436902000103,532.2636123000411,None,534.2297058000695,None,right,0.8539631000021473,534.2297058000695,None,535.1055831999984,None,left,1.5298635000362992,535.1055831999984,None,,,,,,,,,,,,,,,,,,,,,,,PPT49,001,2022-07-11_14h57.30.434,ABstudy,2022.1.4,59.95096010413987,
AB,Lag5_T1A_T2P,5,A,P,5,10,4,5,15,Eye patch,Did you see the Eye patch?,0.12,0.016,JPG\,scissors01,balloon01b,eraser,feather03a,banana01,candle01,measuringcup01,calculator01,thermometer02b,stapler03b,pear01,carrot01,globe,baseball01a,leaf02a,blankImage,blankImage,cross01,,,,,,,,,,,,0,85,85,258,,,,,,,,,,,,,,,,,,,,,,,,,,,,,,,,,,,536.663290000055,537.6748829000862,537.659322499996,538.2387045000214,538.2387045000214,None,540.0231343000196,None,right,1.00503340002615,540.0231343000196,None,541.0449085000437,None,right,0.4392187000485137,541.0449085000437,None,,,,,,,,,,,,,,,,,,,,,,,PPT49,001,2022-07-11_14h57.30.434,ABstudy,2022.1.4,59.95096010413987,
AB,Lag5_T1A_T2P,5,A,P,8,13,7,5,18,fish,Did you see the fish?,0.12,0.016,JPG\,scissors01,grape01,mushroom01,toiletpaper01a,greenolive,pizza,cigarette,ashtray01,carrot01,pineapple01a,foosballtable,lipstick02a,stapler04b,tambourine02,potato02b,violin,blankImage,chimney,,,,,,,,,,,,0,86,86,283,,,,,,,,,,,,,,,,,,,,,,,,,,,,,,,,,,,541.5157877000747,542.5292754000984,542.5125898000551,543.0880175000057,543.0880175000057,None,545.0326053000754,None,right,1.6268932999810204,545.0326053000754,None,546.683649500017,None,right,0.255678900051862,546.683649500017,None,,,,,,,,,,,,,,,,,,,,,,,PPT49,001,2022-07-11_14h57.30.434,ABstudy,2022.1.4,59.95096010413987,
AB,Lag1_T1A_T2P,1,A,P,6,7,5,5,12,Treadmill,Did you see the Treadmill?,0.12,0.016,JPG\,pencil01,broccoli01a,button01,sponge01,watermelon01,lipstick02a,stapler04b,fan,lighter01,sock01a,spoon01,blueberry01,blankImage,blankImage,blankImage,blankImage,blankImage,magneticcompass,,,,,,,,,,,,0,87,87,238,,,,,,,,,,,,,,,,,,,,,,,,,,,,,,,,,,,546.9729227999924,547.9848641999997,547.9681636000751,548.5294460000005,548.5294460000005,None,550.0081507000141,None,right,0.8118890000041574,550.0081507000141,None,550.8385506999912,None,right,0.35658150003291667,550.8385506999912,None,,,,,,,,,,,,,,,,,,,,,,,PPT49,001,2022-07-11_14h57.30.434,ABstudy,2022.1.4,59.95096010413987,
AB,Lag1_T1A_T2P,1,A,P,7,8,6,5,13,Ant,Did you see the Ant?,0.12,0.016,JPG\,rice,watermelon01,tableknife02,scarf,computerkeyboard02,cauliflower01,battery02b,stapler03b,book01b,sandal,sponge01,microscope,tomato01,blankImage,blankImage,blankImage,blankImage,sandcastle,,,,,,,,,,,,0,88,88,242,,,,,,,,,,,,,,,,,,,,,,,,,,,,,,,,,,,551.2232730000978,552.2387547000544,552.205391400028,552.7816647000145,552.7816647000145,None,554.4011416001013,None,left,0.48254070000257343,554.4011416001013,None,554.9110514000058,None,right,0.6616115999640897,554.9110514000058,None,,,,,,,,,,,,,,,,,,,,,,,PPT49,001,2022-07-11_14h57.30.434,ABstudy,2022.1.4,59.95096010413987,
AB,Lag5_T1P_T2P,5,P,P,5,10,4,5,15,sword fish,Did you see the sword fish?,0.12,0.016,JPG\,scissors01,balloon01b,eraser,feather03a,swordfish,candle01,measuringcup01,calculator01,thermometer02b,stapler04b,pear01,carrot01,globe,baseball01a,leaf02a,blankImage,blankImage,swordfish,,,,,,,,,,,,0,89,89,160,,,,,,,,,,,,,,,,,,,,,,,,,,,,,,,,,,,555.5967088000616,556.6103793000802,556.5948054000037,557.1892619000282,557.1892619000282,None,558.9690064000897,None,left,0.6662153999786824,558.9690064000897,None,559.6629204000346,None,right,0.3325497000478208,559.6629204000346,None,,,,,,,,,,,,,,,,,,,,,,,PPT49,001,2022-07-11_14h57.30.434,ABstudy,2022.1.4,59.95096010413987,
AB,Lag5_T1P_T2P,5,P,P,5,10,4,3,13,Jellyfish,Did you see the Jellyfish?,0.12,0.016,JPG\,printer02,envelope03a,potato02b,calculator01,jellyfish,cigarette,ashtray01,pig,broom01,stapler06,candle08b,battery02b,strawberry,blankImage,blankImage,blankImage,blankImage,jellyfish,,,,,,,,,,,,0,90,90,91,,,,,,,,,,,,,,,,,,,,,,,,,,,,,,,,,,,560.0597467999905,561.0643874000525,561.0476497000782,561.6407234000508,561.6407234000508,None,563.1771202000091,None,left,0.4663520000176504,563.1771202000091,None,563.6697051000083,None,left,0.18166549992747605,563.6697051000083,None,,,,,,,,,,,,,,,,,,,,,,,PPT49,001,2022-07-11_14h57.30.434,ABstudy,2022.1.4,59.95096010413987,
AB,Lag1_T1P_T2P,1,P,P,5,6,4,3,9,camel,Did you see the camel?,0.12,0.016,JPG\,iron01b,brick,broccoli01a,balloon01b,dromedary,stapler05,sandal,teabag,scissors01,blankImage,blankImage,blankImage,blankImage,blankImage,blankImage,blankImage,blankImage,dromedary,,,,,,,,,,,,0,91,91,11,,,,,,,,,,,,,,,,,,,,,,,,,,,,,,,,,,,563.8965430000098,564.9022889999906,564.8694903000724,565.4630599000957,565.4630599000957,None,566.5950301000848,None,left,0.40857989992946386,566.5950301000848,None,567.0229430000763,None,left,0.18837810005061328,567.0229430000763,None,,,,,,,,,,,,,,,,,,,,,,,PPT49,001,2022-07-11_14h57.30.434,ABstudy,2022.1.4,59.95096010413987,
AB,Lag1_T1P_T2P,1,P,P,8,9,7,3,12,mail box,Did you see the mail box?,0.12,0.016,JPG\,paintbrush01,dice05a,watermelon01,broccoli01a,hammer01,leaf02a,match,mailbox01,stapler05,fan,lipstick02a,grape01,blankImage,blankImage,blankImage,blankImage,blankImage,mailbox01,,,,,,,,,,,,0,92,92,20,,,,,,,,,,,,,,,,,,,,,,,,,,,,,,,,,,,567.2421743000159,568.2549411000218,568.2214573000092,568.8008887000615,568.8008887000615,None,570.324270500103,None,right,1.4554290999658406,570.324270500103,None,571.808829100104,None,left,0.3708806000649929,571.808829100104,None,,,,,,,,,,,,,,,,,,,,,,,PPT49,001,2022-07-11_14h57.30.434,ABstudy,2022.1.4,59.95096010413987,
AB,Lag1_T1A_T2A,1,A,A,8,9,7,3,12,popcorn,Did you see the popcorn?,0.12,0.016,JPG\,brownsugar,candle01,match,printer02,broom01,balloon01b,belt02a,potato02b,computerkeyboard02,feather03a,rice,mushroom01,blankImage,blankImage,blankImage,blankImage,blankImage,banjo,,,,,,,,,,,,0,93,93,290,,,,,,,,,,,,,,,,,,,,,,,,,,,,,,,,,,,572.2142237999942,573.2266093000071,573.2098890000489,573.7101997000864,573.7101997000864,None,575.341690500034,None,right,0.8541123999748379,575.341690500034,None,576.2143676000414,None,right,0.789352499996312,576.2143676000414,None,,,,,,,,,,,,,,,,,,,,,,,PPT49,001,2022-07-11_14h57.30.434,ABstudy,2022.1.4,59.95096010413987,
AB,Lag1_T1P_T2A,1,P,A,7,8,6,4,12,Steering wheel,Did you see the Steering wheel?,0.12,0.016,JPG\,alligator,banana01,apple07,tomato01,button01,spoon01,steeringwheel,fork03c,canoftennisballs,potato02b,grape01,leaf02a,blankImage,blankImage,blankImage,blankImage,blankImage,steeringwheel,,,,,,,,,,,,0,94,94,198,,,,,,,,,,,,,,,,,,,,,,,,,,,,,,,,,,,577.0388846000424,578.0480529000051,578.0313431000104,578.5317693999968,578.5317693999968,None,580.0586026000092,None,left,0.8973313000751659,580.0586026000092,None,580.9840091000078,None,right,0.25281510001514107,580.9840091000078,None,,,,,,,,,,,,,,,,,,,,,,,PPT49,001,2022-07-11_14h57.30.434,ABstudy,2022.1.4,59.95096010413987,
AB,Lag5_T1P_T2P,5,P,P,5,10,4,3,13,rose,Did you see the rose?,0.12,0.016,JPG\,lipstick02a,cucumber,candle08b,printer02,rose,violin,paintbrush01,lighter01,belt02a,stapler03b,thermometer02b,microscope,cigarette,blankImage,blankImage,blankImage,blankImage,rose,,,,,,,,,,,,0,95,95,158,,,,,,,,,,,,,,,,,,,,,,,,,,,,,,,,,,,581.2698796000332,582.2853022000054,582.2521375000942,582.8225129999919,582.8225129999919,None,584.4095319000771,None,left,0.9304002999560907,584.4095319000771,None,585.371992200031,None,left,0.2558732000179589,585.371992200031,None,,,,,,,,,,,,,,,,,,,,,,,PPT49,001,2022-07-11_14h57.30.434,ABstudy,2022.1.4,59.95096010413987,
AB,Lag5_T1A_T2A,5,A,A,6,11,5,3,14,mirror,Did you see the mirror?,0.12,0.016,JPG\,foosballtable,candy,envelope03a,microscope,pencil01,leaf02a,scissors01,watermelon01,grape01,dandelion,pineapple01a,hammer01,celery,thermometer02b,blankImage,blankImage,blankImage,shower,,,,,,,,,,,,0,96,96,305,,,,,,,,,,,,,,,,,,,,,,,,,,,,,,,,,,,585.6594308000058,586.6732513000024,586.6565285000252,587.1583202000475,587.1583202000475,None,588.9551073000766,None,right,0.7765690999804065,588.9551073000766,None,589.7624886000995,None,right,0.3610742000164464,589.7624886000995,None,,,,,,,,,,,,,,,,,,,,,,,PPT49,001,2022-07-11_14h57.30.434,ABstudy,2022.1.4,59.95096010413987,
AB,Lag5_T1P_T2P,5,P,P,6,11,5,5,16,table,Did you see the table?,0.12,0.016,JPG\,birthdaycandle,mushroom01,strawberry,match,cherry01,table01,hammer01,thermometer02b,sock01a,ring01,stapler06,banana01,toiletpaper01a,key01,sponge01,teabag,blankImage,table01,,,,,,,,,,,,0,97,97,144,,,,,,,,,,,,,,,,,,,,,,,,,,,,,,,,,,,590.1529655000195,591.1608198999893,591.144183000084,591.6446427000919,591.6446427000919,None,593.6573297000723,None,left,0.4103513000300154,593.6573297000723,None,594.0996194999898,None,left,0.23279729997739196,594.0996194999898,None,,,,,,,,,,,,,,,,,,,,,,,PPT49,001,2022-07-11_14h57.30.434,ABstudy,2022.1.4,59.95096010413987,
AB,Lag1_T1P_T2P,1,P,P,8,9,7,4,13,bowling ball,Did you see the bowling ball?,0.12,0.016,JPG\,dandelion,pineapple01a,broom01,pen04b,sock01a,sandal,foosballtable,bowlingball,stapler01,toothbrush03b,celery,candle08b,tennisball01b,blankImage,blankImage,blankImage,blankImage,bowlingball,,,,,,,,,,,,0,98,98,7,,,,,,,,,,,,,,,,,,,,,,,,,,,,,,,,,,,594.3705240000272,595.3822823000373,595.366623400012,595.8688788000727,595.8688788000727,None,597.6189169000136,None,left,0.673207400017418,597.6189169000136,None,598.3176565000322,None,left,0.1668622000142932,598.3176565000322,None,,,,,,,,,,,,,,,,,,,,,,,PPT49,001,2022-07-11_14h57.30.434,ABstudy,2022.1.4,59.95096010413987,
AB,Lag5_T1A_T2P,5,A,P,7,12,6,4,16,scooter,Did you see the scooter?,0.12,0.016,JPG\,cigarette,pig,banana01,strawberry,clock01a,plate01b,spoon01,blueberry01,battery02b,pineapple01a,chain01,stapler05,candy,pen04b,teabag,birthdaycandle,blankImage,1nose,,,,,,,,,,,,0,99,99,268,,,,,,,,,,,,,,,,,,,,,,,,,,,,,,,,,,,598.5037020000163,599.5191877000034,599.4857981000096,600.0606667000102,600.0606667000102,None,601.9429550000932,None,right,1.07644800003618,601.9429550000932,None,603.0405494000297,None,left,0.4108076000120491,603.0405494000297,None,,,,,,,,,,,,,,,,,,,,,,,PPT49,001,2022-07-11_14h57.30.434,ABstudy,2022.1.4,59.95096010413987,
AB,Lag5_T1P_T2P,5,P,P,8,13,7,3,16,banjo,Did you see the banjo?,0.12,0.016,JPG\,celery,brownsugar,key01,sunglasses04,leaf02a,toothbrush03b,dice05a,banjo,scarf,globe,paintbrush01,scissors01,stapler03a,battery02b,feather03a,cymbal,blankImage,banjo,,,,,,,,,,,,0,100,100,102,,,,,,,,,,,,,,,,,,,,,,,,,,,,,,,,,,,603.4799567000009,604.4910791000584,604.4745474000229,605.0733175000641,605.0733175000641,None,606.9150451000314,None,left,0.46467260003555566,606.9150451000314,None,607.4128536999924,None,left,0.21486970002297312,607.4128536999924,None,,,,,,,,,,,,,,,,,,,,,,,PPT49,001,2022-07-11_14h57.30.434,ABstudy,2022.1.4,59.95096010413987,
AB,Lag1_T1P_T2P,1,P,P,6,7,5,5,12,exit sign,Did you see the exit sign?,0.12,0.016,JPG\,printer02,envelope03a,potato02b,calculator01,tableknife02,exitsign,stapler01,pig,broom01,greenolive,candle08b,battery02b,blankImage,blankImage,blankImage,blankImage,blankImage,exitsign,,,,,,,,,,,,0,101,101,41,,,,,,,,,,,,,,,,,,,,,,,,,,,,,,,,,,,607.6578027000651,608.6624431000091,608.6466010001022,609.2749015000882,609.2749015000882,None,610.6576224000892,None,right,0.6742507999297231,610.6576224000892,None,611.3643405000912,None,left,0.6866208999417722,611.3643405000912,None,,,,,,,,,,,,,,,,,,,,,,,PPT49,001,2022-07-11_14h57.30.434,ABstudy,2022.1.4,59.95096010413987,
AB,Lag5_T1A_T2P,5,A,P,8,13,7,4,17,wrench,Did you see the wrench?,0.12,0.016,JPG\,clock01a,grape01,plate01b,key01,screwdriver04b,feather03a,pineapple01a,iron01b,toothbrush03b,comb02a,broom01,toaster01,stapler05,garlic01a,match,ashtray01,blankImage,seal,,,,,,,,,,,,0,102,102,272,,,,,,,,,,,,,,,,,,,,,,,,,,,,,,,,,,,612.1247369000921,613.133258100017,613.1163575000828,613.7321587000042,613.7321587000042,None,615.6268606000813,None,right,0.840426699956879,615.6268606000813,None,616.486455700011,None,left,0.6129442000528798,616.486455700011,None,,,,,,,,,,,,,,,,,,,,,,,PPT49,001,2022-07-11_14h57.30.434,ABstudy,2022.1.4,59.95096010413987,
AB,Lag1_T1A_T2A,1,A,A,8,9,7,4,13,Recycling bin,Did you see the Recycling bin?,0.12,0.016,JPG\,brick,plate01b,pen04b,toaster01,screwdriver04b,candle01,envelope03a,feather03a,pig,ring01,orange,clock01a,lighter01,blankImage,blankImage,blankImage,blankImage,bumpercar,,,,,,,,,,,,0,103,103,292,,,,,,,,,,,,,,,,,,,,,,,,,,,,,,,,,,,617.1268242000369,618.1382579000201,618.1226245000726,618.7344766000751,618.7344766000751,None,620.3872307999991,None,right,0.9440960000501946,620.3872307999991,None,621.3572182999924,None,left,0.27825420000590384,621.3572182999924,None,,,,,,,,,,,,,,,,,,,,,,,PPT49,001,2022-07-11_14h57.30.434,ABstudy,2022.1.4,59.95096010413987,
AB,Lag5_T1P_T2A,5,P,A,7,12,6,5,17,shoulder,Did you see the shoulder?,0.12,0.016,JPG\,battery02b,sunglasses04,pear01,tennisball01b,clock01a,speaker04,shoulder,spoon01,alligator,pineapple01a,avocado01,grape01,blueberry01,violin,strawberry,sock01a,blankImage,shoulder,,,,,,,,,,,,0,104,104,224,,,,,,,,,,,,,,,,,,,,,,,,,,,,,,,,,,,621.6621420000447,622.6756953001022,622.6589815000771,623.2600407000864,623.2600407000864,None,625.1888999000657,None,right,0.4223233999218792,625.1888999000657,None,625.629091000068,None,left,0.35123819997534156,625.629091000068,None,,,,,,,,,,,,,,,,,,,,,,,PPT49,001,2022-07-11_14h57.30.434,ABstudy,2022.1.4,59.95096010413987,
AB,Lag5_T1P_T2A,5,P,A,6,11,5,5,16,hat,Did you see the hat?,0.12,0.016,JPG\,apple07,toiletpaper01a,pizza,dandelion,greenolive,pilgrimhat,microscope,violin,orange,lipstick02a,balloon01b,sandal,lighter01,fan,book01b,sewingmachine01a,blankImage,pilgrimhat,,,,,,,,,,,,0,105,105,206,,,,,,,,,,,,,,,,,,,,,,,,,,,,,,,,,,,626.0148287999909,627.0301144000841,626.9966169000836,627.5917498000199,627.5917498000199,None,629.5936705000931,None,right,0.5935085999080911,629.5936705000931,None,630.2180532000493,None,left,0.8260497000301257,630.2180532000493,None,,,,,,,,,,,,,,,,,,,,,,,PPT49,001,2022-07-11_14h57.30.434,ABstudy,2022.1.4,59.95096010413987,
AB,Lag5_T1P_T2P,5,P,P,5,10,4,5,15,penguin,Did you see the penguin?,0.12,0.016,JPG\,watermelon01,cigarette,pintofbeer,cymbal,penguin,feather03a,cherry01,broom01,battery02b,stapler05,baseball01a,iron01b,garlic01a,computerkeyboard02,pig,blankImage,blankImage,penguin,,,,,,,,,,,,0,106,106,137,,,,,,,,,,,,,,,,,,,,,,,,,,,,,,,,,,,631.0732974000275,632.0851683000801,632.0683976000873,632.7164720000001,632.7164720000001,None,634.3872586000944,None,left,0.9127446999773383,634.3872586000944,None,635.3214307000162,None,right,0.33844520000275224,635.3214307000162,None,,,,,,,,,,,,,,,,,,,,,,,PPT49,001,2022-07-11_14h57.30.434,ABstudy,2022.1.4,59.95096010413987,
AB,Lag5_T1P_T2P,5,P,P,8,13,7,4,17,trumpet,Did you see the trumpet?,0.12,0.016,JPG\,toaster01,scarf,toiletpaper01a,calculator01,violin,sewingmachine01a,fan,trumpet,strawberry,balloon01b,brownsugar,eraser,stapler01,rice,ring01,shirt02,blankImage,trumpet,,,,,,,,,,,,0,107,107,145,,,,,,,,,,,,,,,,,,,,,,,,,,,,,,,,,,,635.6921685000416,636.7062207000563,636.6728496000869,637.2836811000016,637.2836811000016,None,639.2694871000713,None,right,0.9899684999836609,639.2694871000713,None,640.2763927000342,None,left,0.44653249997645617,640.2763927000342,None,,,,,,,,,,,,,,,,,,,,,,,PPT49,001,2022-07-11_14h57.30.434,ABstudy,2022.1.4,59.95096010413987,
AB,Lag1_T1P_T2P,1,P,P,5,6,4,5,11,shark,Did you see the shark?,0.12,0.016,JPG\,cucumber,sponge01,alligator,pear01,greatwhiteshark,stapler06,clock04,battery02b,fork03c,binoculars01b,mushroom01,blankImage,blankImage,blankImage,blankImage,blankImage,blankImage,greatwhiteshark,,,,,,,,,,,,0,108,108,84,,,,,,,,,,,,,,,,,,,,,,,,,,,,,,,,,,,640.7500333000207,641.761799900094,641.7462226999924,642.3417903000955,642.3417903000955,None,643.7123357000528,None,left,0.45163709996268153,643.7123357000528,None,644.1818340000464,None,left,0.1568966000340879,644.1818340000464,None,,,,,,,,,,,,,,,,,,,,,,,PPT49,001,2022-07-11_14h57.30.434,ABstudy,2022.1.4,59.95096010413987,
AB,Lag5_T1P_T2P,5,P,P,7,12,6,5,17,flamingo,Did you see the flamingo?,0.12,0.016,JPG\,pig,belt02a,rice,screwdriver04b,candle01,apple07,flamingo,pear01,feather03a,match,thermometer02b,stapler06,lemon02,violin,medal02b,pineapple01a,blankImage,flamingo,,,,,,,,,,,,0,109,109,153,,,,,,,,,,,,,,,,,,,,,,,,,,,,,,,,,,,644.3633369000163,645.3651130000362,645.3484852000838,645.8519039000385,645.8519039000385,None,647.8907799000153,None,left,0.42405949998646975,647.8907799000153,None,648.3346184000839,None,left,0.19645619997754693,648.3346184000839,None,,,,,,,,,,,,,,,,,,,,,,,PPT49,001,2022-07-11_14h57.30.434,ABstudy,2022.1.4,59.95096010413987,
AB,Lag5_T1A_T2P,5,A,P,7,12,6,5,17,Rollerblade,Did you see the Rollerblade?,0.12,0.016,JPG\,binoculars01b,cymbal,pizza,candy,paintbrush01,sponge01,grape01,thermometer02b,speaker04,lemon02,lipstick02a,stapler03b,candle01,8ball,plate01b,pen04b,blankImage,lion,,,,,,,,,,,,0,110,110,266,,,,,,,,,,,,,,,,,,,,,,,,,,,,,,,,,,,648.5579683000688,649.5692798000528,649.5526133000385,650.1281816000119,650.1281816000119,None,652.0679568999913,None,right,1.295272299903445,652.0679568999913,None,653.389713200042,None,left,0.3576013999991119,653.389713200042,None,,,,,,,,,,,,,,,,,,,,,,,PPT49,001,2022-07-11_14h57.30.434,ABstudy,2022.1.4,59.95096010413987,
AB,Lag1_T1P_T2P,1,P,P,5,6,4,5,11,candy cane,Did you see the candy cane?,0.12,0.016,JPG\,shirt02,match,screw02,foosballtable,candycane01a,stapler04b,sewingmachine01a,watch02a,button01,comb02a,dice05a,blankImage,blankImage,blankImage,blankImage,blankImage,blankImage,candycane01a,,,,,,,,,,,,0,111,111,9,,,,,,,,,,,,,,,,,,,,,,,,,,,,,,,,,,,653.7859135000035,654.7911363000749,654.7576941000298,655.3399086000863,655.3399086000863,None,656.6851460000034,None,left,0.5418258999707177,656.6851460000034,None,657.2448998000473,None,left,0.175082299974747,657.2448998000473,None,,,,,,,,,,,,,,,,,,,,,,,PPT49,001,2022-07-11_14h57.30.434,ABstudy,2022.1.4,59.95096010413987,
AB,Lag1_T1A_T2P,1,A,P,5,6,4,3,9,microphone,Did you see the microphone?,0.12,0.016,JPG\,hammer01,sponge01,toaster01,cherry01,feather03a,stapler06,measuringcup01,pencil01,tennisball01b,blankImage,blankImage,blankImage,blankImage,blankImage,blankImage,blankImage,blankImage,cactus,,,,,,,,,,,,0,112,112,230,,,,,,,,,,,,,,,,,,,,,,,,,,,,,,,,,,,657.498915300006,658.5114548000274,658.4946905000834,659.0746045000851,659.0746045000851,None,660.1585213000653,None,right,0.8212118999799713,660.1585213000653,None,660.9974030000158,None,left,0.31813290005084127,660.9974030000158,None,,,,,,,,,,,,,,,,,,,,,,,PPT49,001,2022-07-11_14h57.30.434,ABstudy,2022.1.4,59.95096010413987,
AB,Lag1_T1P_T2P,1,P,P,7,8,6,3,11,swing,Did you see the swing?,0.12,0.016,JPG\,sewingmachine01a,thermometer02b,sponge01,eraser,broccoli01a,fork03c,swing,stapler03b,belt02a,medal02b,pineapple01a,blankImage,blankImage,blankImage,blankImage,blankImage,blankImage,swing,,,,,,,,,,,,0,113,113,30,,,,,,,,,,,,,,,,,,,,,,,,,,,,,,,,,,,661.3509588000597,662.3652846000623,662.3486966000637,663.0141128000105,662.9315676999977,None,664.3197344000218,None,left,0.947332700015977,664.3197344000218,None,665.285261400044,None,left,0.18957080005202442,665.285261400044,None,,,,,,,,,,,,,,,,,,,,,,,PPT49,001,2022-07-11_14h57.30.434,ABstudy,2022.1.4,59.95096010413987,
AB,Lag1_T1P_T2A,1,P,A,5,6,4,5,11,Electric toothbrush,Did you see the Electric toothbrush?,0.12,0.016,JPG\,carrot01,greenolive,fork03c,chain01,electrictoothbrush01c,watermelon01,tableknife02,printer02,comb02a,toaster01,orange,blankImage,blankImage,blankImage,blankImage,blankImage,blankImage,electrictoothbrush01c,,,,,,,,,,,,0,114,114,186,,,,,,,,,,,,,,,,,,,,,,,,,,,,,,,,,,,665.5589746000478,666.5698379999958,666.554491500021,667.2122504001018,667.1287748999894,None,668.4382835000288,None,left,0.8294195000780746,668.4382835000288,None,669.288581400062,None,left,0.16300359996967018,669.288581400062,None,,,,,,,,,,,,,,,,,,,,,,,PPT49,001,2022-07-11_14h57.30.434,ABstudy,2022.1.4,59.95096010413987,
AB,Lag1_T1P_T2P,1,P,P,6,7,5,4,11,bowling pin,Did you see the bowling pin?,0.12,0.016,JPG\,strawberry,leaf02a,clock04,candle01,avocado01,bowlingpin,stapler03a,brownsugar,ring01,lemon02,fork03c,blankImage,blankImage,blankImage,blankImage,blankImage,blankImage,bowlingpin,,,,,,,,,,,,0,115,115,8,,,,,,,,,,,,,,,,,,,,,,,,,,,,,,,,,,,669.4762970000738,670.4904086000752,670.4748533000238,671.1584158000769,671.077669100021,None,672.4331213000696,None,right,1.873781600035727,672.4331213000696,None,674.3275887999916,None,left,1.8194137000245973,674.3275887999916,None,,,,,,,,,,,,,,,,,,,,,,,PPT49,001,2022-07-11_14h57.30.434,ABstudy,2022.1.4,59.95096010413987,
AB,Lag1_T1P_T2P,1,P,P,6,7,5,3,10,elephant,Did you see the elephant?,0.12,0.016,JPG\,clock01a,grape01,plate01b,key01,screwdriver04b,africanelephant,stapler03b,iron01b,toothbrush03b,comb02a,blankImage,blankImage,blankImage,blankImage,blankImage,blankImage,blankImage,africanelephant,,,,,,,,,,,,0,116,116,31,,,,,,,,,,,,,,,,,,,,,,,,,,,,,,,,,,,676.183790900046,677.1971262000734,677.1815013000742,677.7835788000375,677.7835788000375,None,678.9841037000297,None,left,0.578726900042966,678.9841037000297,None,679.5825523000676,None,left,0.15623570000752807,679.5825523000676,None,,,,,,,,,,,,,,,,,,,,,,,PPT49,001,2022-07-11_14h57.30.434,ABstudy,2022.1.4,59.95096010413987,
AB,Lag1_T1P_T2P,1,P,P,7,8,6,5,13,disco ball,Did you see the disco ball?,0.12,0.016,JPG\,candle01,paintbrush01,scissors01,fan,microscope,toothbrush03b,discoball,stapler03b,teabag,pencil01,lemon02,ashtray01,shirt02,blankImage,blankImage,blankImage,blankImage,discoball,,,,,,,,,,,,0,117,117,60,,,,,,,,,,,,,,,,,,,,,,,,,,,,,,,,,,,679.7712518000044,680.7835759000154,680.7668972000247,681.3486817000667,681.3486817000667,None,682.9797663000645,None,left,0.7831404999596998,682.9797663000645,None,683.7864201000193,None,right,0.22537020000163466,683.7864201000193,None,,,,,,,,,,,,,,,,,,,,,,,PPT49,001,2022-07-11_14h57.30.434,ABstudy,2022.1.4,59.95096010413987,
AB,Lag5_T1P_T2A,5,P,A,5,10,4,5,15,Shield,Did you see the Shield?,0.12,0.016,JPG\,cigarette,fork03c,greenolive,broccoli01a,shield02,tennisball01b,balloon01b,leaf02a,pig,fan,clock01a,strawberry,envelope03a,birthdaycandle,teabag,blankImage,blankImage,shield02,,,,,,,,,,,,0,118,118,223,,,,,,,,,,,,,,,,,,,,,,,,,,,,,,,,,,,684.0401278000791,685.0546539000934,685.0213032000465,685.6332800000673,685.6332800000673,None,687.4709454000695,None,left,1.3648402999388054,687.4709454000695,None,688.8580532000633,None,right,0.26648150000255555,688.8580532000633,None,,,,,,,,,,,,,,,,,,,,,,,PPT49,001,2022-07-11_14h57.30.434,ABstudy,2022.1.4,59.95096010413987,
AB,Lag5_T1P_T2A,5,P,A,5,10,4,4,14,Ship in a bottle,Did you see the Ship in a bottle?,0.12,0.016,JPG\,sewingmachine01a,thermometer02b,sponge01,eraser,shipinabottle,fork03c,pizza,violin,belt02a,medal02b,pineapple01a,tennisball01b,dandelion,cauliflower01,blankImage,blankImage,blankImage,shipinabottle,,,,,,,,,,,,0,119,119,208,,,,,,,,,,,,,,,,,,,,,,,,,,,,,,,,,,,689.1465172000462,690.1594385000644,690.1427464000881,690.7524819000391,690.7524819000391,None,692.4054286000319,None,right,0.903226500027813,692.4054286000319,None,693.3295906001003,None,right,0.6351267999270931,693.3295906001003,None,,,,,,,,,,,,,,,,,,,,,,,PPT49,001,2022-07-11_14h57.30.434,ABstudy,2022.1.4,59.95096010413987,
AB,Lag1_T1P_T2A,1,P,A,6,7,5,5,12,Tombstone,Did you see the Tombstone?,0.12,0.016,JPG\,cigarette,ashtray01,envelope03a,sandal,chain01,tombstone,broccoli01a,tomato01,dandelion,candle01,lemon02,button01,blankImage,blankImage,blankImage,blankImage,blankImage,tombstone,,,,,,,,,,,,0,120,120,196,,,,,,,,,,,,,,,,,,,,,,,,,,,,,,,,,,,694.0021039000712,695.0145588000305,694.9979189001024,695.5769662000239,695.5769662000239,None,697.0375953000039,None,left,1.1660854000365362,697.0375953000039,None,698.2367954000365,None,right,0.26208889996632934,698.2367954000365,None,,,,,,,,,,,,,,,,,,,,,,,PPT49,001,2022-07-11_14h57.30.434,ABstudy,2022.1.4,59.95096010413987,
AB,Lag5_T1P_T2P,5,P,P,6,11,5,4,15,boxing glove,Did you see the boxing glove?,0.12,0.016,JPG\,button01,celery,birthdaycandle,apple07,avocado01,boxingglove01,dice05a,teabag,clock01a,feather03a,stapler06,scarf,orange,battery02b,thermometer02b,blankImage,blankImage,boxingglove01,,,,,,,,,,,,0,121,121,165,,,,,,,,,,,,,,,,,,,,,,,,,,,,,,,,,,,698.5315486000618,699.535189300077,699.5186131000519,700.1131669000024,700.1131669000024,None,701.8995449000504,None,left,0.4636492000427097,701.8995449000504,None,702.3884264000226,None,left,0.1907534000929445,702.3884264000226,None,,,,,,,,,,,,,,,,,,,,,,,PPT49,001,2022-07-11_14h57.30.434,ABstudy,2022.1.4,59.95096010413987,
AB,Lag5_T1P_T2A,5,P,A,5,10,4,3,13,fan,Did you see the fan?,0.12,0.016,JPG\,scissors01,grape01,mushroom01,toiletpaper01a,fanheater,pizza,cigarette,ashtray01,carrot01,pineapple01a,foosballtable,lipstick02a,teabag,blankImage,blankImage,blankImage,blankImage,fanheater,,,,,,,,,,,,0,122,122,220,,,,,,,,,,,,,,,,,,,,,,,,,,,,,,,,,,,702.6103403000161,703.6234229000984,703.607814899995,704.2122597000562,704.2122597000562,None,705.7302754000993,None,left,0.6579986999277025,705.7302754000993,None,706.4100323000457,None,right,0.27315769996494055,706.4100323000457,None,,,,,,,,,,,,,,,,,,,,,,,PPT49,001,2022-07-11_14h57.30.434,ABstudy,2022.1.4,59.95096010413987,
AB,Lag1_T1P_T2A,1,P,A,8,9,7,5,14,Parrot,Did you see the Parrot?,0.12,0.016,JPG\,candy,brownsugar,dice05a,cd,sock01a,blueberry01,button01,parrot01,feather03a,grape01,dandelion,scissors01,watch02a,candle08b,blankImage,blankImage,blankImage,parrot01,,,,,,,,,,,,0,123,123,192,,,,,,,,,,,,,,,,,,,,,,,,,,,,,,,,,,,706.78371410002,707.7937805000693,707.7770854000701,708.3652512000408,708.3652512000408,None,709.9857566000428,None,left,0.833495800034143,709.9857566000428,None,710.8471403000876,None,right,0.2759885999839753,710.8471403000876,None,,,,,,,,,,,,,,,,,,,,,,,PPT49,001,2022-07-11_14h57.30.434,ABstudy,2022.1.4,59.95096010413987,
AB,Lag1_T1P_T2A,1,P,A,6,7,5,4,11,bird,Did you see the bird?,0.12,0.016,JPG\,foosballtable,candy,envelope03a,microscope,pencil01,cedarwaxwing,scissors01,watermelon01,grape01,dandelion,pineapple01a,blankImage,blankImage,blankImage,blankImage,blankImage,blankImage,cedarwaxwing,,,,,,,,,,,,0,124,124,182,,,,,,,,,,,,,,,,,,,,,,,,,,,,,,,,,,,711.1503736000741,712.1647915000794,712.1313877000939,712.6327605000697,712.6327605000697,None,714.0494403000921,None,left,0.5535018999362364,714.0494403000921,None,714.6338486000896,None,right,0.3700290999840945,714.6338486000896,None,,,,,,,,,,,,,,,,,,,,,,,PPT49,001,2022-07-11_14h57.30.434,ABstudy,2022.1.4,59.95096010413987,
AB,Lag1_T1P_T2P,1,P,P,8,9,7,4,13,dart board,Did you see the dart board?,0.12,0.016,JPG\,rice,watermelon01,tableknife02,scarf,computerkeyboard02,cauliflower01,battery02b,dartboard,stapler01,sandal,sponge01,microscope,tomato01,blankImage,blankImage,blankImage,blankImage,dartboard,,,,,,,,,,,,0,125,125,80,,,,,,,,,,,,,,,,,,,,,,,,,,,,,,,,,,,715.0368532000575,716.0518688000739,716.0185006000102,716.607848500018,716.607848500018,None,718.1834305000957,None,left,0.34787559998221695,718.1834305000957,None,718.5555736999959,None,left,0.21568550006486475,718.5555736999959,None,,,,,,,,,,,,,,,,,,,,,,,PPT49,001,2022-07-11_14h57.30.434,ABstudy,2022.1.4,59.95096010413987,
AB,Lag5_T1P_T2P,5,P,P,6,11,5,5,16,Car,Did you see the Car?,0.12,0.016,JPG\,leaf02a,apple07,cd,pineapple01a,envelope03a,car,pig,canoftennisballs,rice,feather03a,stapler03a,balloon01b,avocado01,calculator01,watermelon01,teabag,blankImage,car,,,,,,,,,,,,0,126,126,127,,,,,,,,,,,,,,,,,,,,,,,,,,,,,,,,,,,718.7941721000243,719.8058719000546,719.789285600069,720.37282769999,720.37282769999,None,722.3538541001035,None,left,0.7139076000312343,722.3538541001035,None,723.0930387000553,None,left,0.15775459993164986,723.0930387000553,None,,,,,,,,,,,,,,,,,,,,,,,PPT49,001,2022-07-11_14h57.30.434,ABstudy,2022.1.4,59.95096010413987,
AB,Lag5_T1A_T2P,5,A,P,7,12,6,3,15,Car,Did you see the Car?,0.12,0.016,JPG\,lighter01,hammer01,spoon01,chain01,cymbal,sponge01,lipstick02a,alligator,pig,watermelon01,cauliflower01,stapler03b,broccoli01a,tableknife02,tennisball01b,blankImage,blankImage,wallclock,,,,,,,,,,,,0,127,127,277,,,,,,,,,,,,,,,,,,,,,,,,,,,,,,,,,,,723.2781925000018,724.2932005000766,724.2598155000014,724.8473063000711,724.8473063000711,None,726.6467821000842,None,right,1.4680537999374792,726.6467821000842,None,728.1474783000303,None,left,0.33544240007176995,728.1474783000303,None,,,,,,,,,,,,,,,,,,,,,,,PPT49,001,2022-07-11_14h57.30.434,ABstudy,2022.1.4,59.95096010413987,
AB,Lag1_T1P_T2P,1,P,P,7,8,6,5,13,horse,Did you see the horse?,0.12,0.016,JPG\,watermelon01,pencil01,microscope,blueberry01,computerkeyboard02,lamp04a,horse,stapler03b,sock01a,key01,binoculars01b,cauliflower01,ashtray01,blankImage,blankImage,blankImage,blankImage,horse,,,,,,,,,,,,0,128,128,3,,,,,,,,,,,,,,,,,,,,,,,,,,,,,,,,,,,728.5178247001022,729.5321256000316,729.5153954999987,730.1213052000385,730.1213052000385,None,731.6452680000803,None,left,0.37434959993697703,731.6452680000803,None,732.0518331000349,None,left,0.15237020002678037,732.0518331000349,None,,,,,,,,,,,,,,,,,,,,,,,PPT49,001,2022-07-11_14h57.30.434,ABstudy,2022.1.4,59.95096010413987,
AB,Lag5_T1P_T2P,5,P,P,6,11,5,4,15,saxophone,Did you see the saxophone?,0.12,0.016,JPG\,pizza,strawberry,potato02b,speaker04,battery02b,saxophone,dice05a,cellphone,globe,banana01,stapler03b,baseball01a,toaster01,broom01,ring01,blankImage,blankImage,saxophone,,,,,,,,,,,,0,129,129,117,,,,,,,,,,,,,,,,,,,,,,,,,,,,,,,,,,,732.2431628000923,733.2528768000193,733.2374039000133,733.9182567000389,733.8299713000888,None,735.631883700029,None,left,0.5157405000645667,735.631883700029,None,736.1718690000707,None,left,0.3836128000402823,736.1718690000707,None,,,,,,,,,,,,,,,,,,,,,,,PPT49,001,2022-07-11_14h57.30.434,ABstudy,2022.1.4,59.95096010413987,
AB,Lag1_T1A_T2P,1,A,P,5,6,4,3,9,Stool,Did you see the Stool?,0.12,0.016,JPG\,cherry01,cymbal,envelope03a,foosballtable,shirt02,stapler01,sewingmachine01a,candle08b,battery02b,blankImage,blankImage,blankImage,blankImage,blankImage,blankImage,blankImage,blankImage,hulahoop,,,,,,,,,,,,0,130,130,236,,,,,,,,,,,,,,,,,,,,,,,,,,,,,,,,,,,736.5833270000294,737.5899863000959,737.5733042000793,738.1498279999942,738.1498279999942,None,739.2947268000571,None,right,1.1334858000045642,739.2947268000571,None,740.4597179000266,None,right,0.991243900032714,740.4597179000266,None,,,,,,,,,,,,,,,,,,,,,,,PPT49,001,2022-07-11_14h57.30.434,ABstudy,2022.1.4,59.95096010413987,
AB,Lag5_T1P_T2A,5,P,A,6,11,5,3,14,toy truck,Did you see the toy truck?,0.12,0.016,JPG\,globe,belt02a,sponge01,violin,fork03c,bluecheese,clock01a,microscope,balloon01b,scarf,teabag,pen04b,brick,brownsugar,blankImage,blankImage,blankImage,bluecheese,,,,,,,,,,,,0,131,131,204,,,,,,,,,,,,,,,,,,,,,,,,,,,,,,,,,,,741.4827146000462,742.4950274000876,742.4783191001043,743.084084500093,743.084084500093,None,744.6679735000944,None,right,0.7831534000579268,744.6679735000944,None,745.4813397000544,None,right,0.3056938999798149,745.4813397000544,None,,,,,,,,,,,,,,,,,,,,,,,PPT49,001,2022-07-11_14h57.30.434,ABstudy,2022.1.4,59.95096010413987,
AB,Lag1_T1A_T2P,1,A,P,8,9,7,4,13,Rabbit,Did you see the Rabbit?,0.12,0.016,JPG\,lamp04a,broccoli01a,alligator,garlic01a,dandelion,brownsugar,avocado01,ring01,stapler06,cellphone,medal02b,cd,calculator01,blankImage,blankImage,blankImage,blankImage,escalator,,,,,,,,,,,,0,132,132,254,,,,,,,,,,,,,,,,,,,,,,,,,,,,,,,,,,,745.864367900067,746.8661742000841,746.8495663000504,747.4549502000446,747.4549502000446,None,749.0179608000908,None,right,1.2890827999217436,749.0179608000908,None,750.3384214000544,None,right,0.6183498000027612,750.3384214000544,None,,,,,,,,,,,,,,,,,,,,,,,PPT49,001,2022-07-11_14h57.30.434,ABstudy,2022.1.4,59.95096010413987,
AB,Lag5_T1P_T2P,5,P,P,8,13,7,3,16,shrimp,Did you see the shrimp?,0.12,0.016,JPG\,globe,belt02a,sponge01,violin,fork03c,tomato01,clock01a,cocktailshrimp02,balloon01b,scarf,teabag,pen04b,stapler03a,brownsugar,speaker04,screwdriver04b,blankImage,cocktailshrimp02,,,,,,,,,,,,0,133,133,169,,,,,,,,,,,,,,,,,,,,,,,,,,,,,,,,,,,750.9983120000688,752.0043129000114,751.9877037000842,752.5796928000636,752.5796928000636,None,754.5663972999901,None,left,0.46040520002134144,754.5663972999901,None,755.0572804000694,None,left,0.2098260000348091,755.0572804000694,None,,,,,,,,,,,,,,,,,,,,,,,PPT49,001,2022-07-11_14h57.30.434,ABstudy,2022.1.4,59.95096010413987,
AB,Lag5_T1P_T2P,5,P,P,5,10,4,5,15,Bee,Did you see the Bee?,0.12,0.016,JPG\,fork03c,dandelion,dice05a,belt02a,honeybee,watch02a,key01,globe,eraser,stapler03a,greenolive,shirt02,candle08b,cigarette,garlic01a,blankImage,blankImage,honeybee,,,,,,,,,,,,0,134,134,149,,,,,,,,,,,,,,,,,,,,,,,,,,,,,,,,,,,755.2931553000817,756.3085828000912,756.2751584000653,756.8494207999902,756.8494207999902,None,758.6797136000823,None,left,0.4031069999327883,758.6797136000823,None,759.1117066000588,None,left,0.22715819999575615,759.1117066000588,None,,,,,,,,,,,,,,,,,,,,,,,PPT49,001,2022-07-11_14h57.30.434,ABstudy,2022.1.4,59.95096010413987,
AB,Lag1_T1P_T2P,1,P,P,7,8,6,4,12,rooster,Did you see the rooster?,0.12,0.016,JPG\,pizza,strawberry,potato02b,speaker04,battery02b,iron01b,rooster,stapler03b,globe,banana01,medal02b,baseball01a,blankImage,blankImage,blankImage,blankImage,blankImage,rooster,,,,,,,,,,,,0,135,135,69,,,,,,,,,,,,,,,,,,,,,,,,,,,,,,,,,,,759.3612727000145,760.3624441000866,760.3457337000873,760.9348799000727,760.9348799000727,None,762.4103422000771,None,left,0.3855215999064967,762.4103422000771,None,762.8154774000868,None,left,0.20363040000665933,762.8154774000868,None,,,,,,,,,,,,,,,,,,,,,,,PPT49,001,2022-07-11_14h57.30.434,ABstudy,2022.1.4,59.95096010413987,
AB,Lag1_T1P_T2A,1,P,A,7,8,6,4,12,gate,Did you see the gate?,0.12,0.016,JPG\,pen04b,speaker04,lighter01,cherry01,pintofbeer,onion,entrancegate,toothbrush03b,broom01,sewingmachine01a,book01b,iron01b,blankImage,blankImage,blankImage,blankImage,blankImage,entrancegate,,,,,,,,,,,,0,136,136,187,,,,,,,,,,,,,,,,,,,,,,,,,,,,,,,,,,,763.0517733000452,764.0665200999938,764.0331308000023,764.6098321001045,764.6098321001045,None,766.0656158000929,None,left,0.9937257999554276,766.0656158000929,None,767.0863264000509,None,right,0.24502669996581972,767.0863264000509,None,,,,,,,,,,,,,,,,,,,,,,,PPT49,001,2022-07-11_14h57.30.434,ABstudy,2022.1.4,59.95096010413987,
