TrialType,CondType,Lag,T1_PA,T2_PA,T1Loc,T2Loc,PreDistractor,PostDistractor,TotalImg,cueWord,T1cue,StimLength,isi,PicFolder,Img1,Img2,Img3,Img4,Img5,Img6,Img7,Img8,Img9,Img10,Img11,Img12,Img13,Img14,Img15,Img16,Img17,T1_Identity,ImageType,T1PA,T2PA,Picture,Image,FullPathName,FilePath,Practice_Trials.thisRepN,Practice_Trials.thisTrialN,Practice_Trials.thisN,Practice_Trials.thisIndex,trials.thisRepN,trials.thisTrialN,trials.thisN,trials.thisIndex,trials_2.thisRepN,trials_2.thisTrialN,trials_2.thisN,trials_2.thisIndex,Practice_Ins.started,Practice_Ins.stopped,End_Prac_Ins.keys,End_Prac_Ins.rt,End_Prac_Ins.started,End_Prac_Ins.stopped,text_2.started,text_2.stopped,Fixation_Cross_2.started,Fixation_Cross_2.stopped,Rapid_Image_Present_2.started,Rapid_Image_Present_2.stopped,key_resp.keys,key_resp.rt,key_resp.started,key_resp.stopped,T1Response_2.started,T1Response_2.stopped,T2Response_2.started,T2Response_2.stopped,key_resp_4.keys,key_resp_4.rt,key_resp_4.started,key_resp_4.stopped,text.started,text.stopped,End_Instructions.keys,End_Instructions.rt,End_Instructions.started,End_Instructions.stopped,text_5.started,text_5.stopped,FC.started,FC.stopped,Rapid_Image_Present.started,Rapid_Image_Present.stopped,T1Response.started,T1Response.stopped,key_resp_2.keys,key_resp_2.rt,key_resp_2.started,key_resp_2.stopped,T2Response.started,T2Response.stopped,key_resp_3.keys,key_resp_3.rt,key_resp_3.started,key_resp_3.stopped,text_6.started,text_6.stopped,Fin_ins.keys,Fin_ins.rt,Fin_ins.started,Fin_ins.stopped,MemTest.started,MemTest.stopped,MemResponse.keys,MemResponse.rt,MemResponse.started,MemResponse.stopped,Display.started,Display.stopped,text_7.started,text_7.stopped,endOfExperiment.started,endOfExperiment.stopped,key_resp_5.keys,key_resp_5.rt,key_resp_5.started,key_resp_5.stopped,participant,session,date,expName,psychopyVersion,frameRate,
,,,,,,,,,,,,,,,,,,,,,,,,,,,,,,,,,,,,,,,,,,,,,,,,,,,,24.088780699996278,None,space,5.450283800018951,24.088780699996278,None,,,,,,,,,,,,,,,,,,,,,,,,,,,,,,,,,,,,,,,,,,,,,,,,,,,,,,,,,,,,,,,,,PPT43,001,2022-07-08_10h00.24.019,ABstudy,2022.1.4,59.97807204539598,
AB_Prac,Lag1_T1P_T2A,1,P,A,5,6,4,5,11,Webcam,Did you see the Webcam?,0.5,0.016,JPG\,pictureframe04,binder03b,straw,adjustablewrench01b,webcam,cane,hairdryer02a,icepack,kitchenscale01a,lifejacket,piggybank,blankImage,blankImage,blankImage,blankImage,blankImage,blankImage,webcam,,,,,,,,0,0,0,6,,,,,,,,,,,,,,,29.61548220005352,30.615412599989213,30.615412599989213,31.343475500005297,31.254102700040676,None,left,1.2799743000650778,36.76292150001973,None,36.76292150001973,None,38.07293230004143,None,right,1.113414700026624,38.07293230004143,None,,,,,,,,,,,,,,,,,,,,,,,,,,,,,,,,,,,,,,,,,,,,,,,PPT43,001,2022-07-08_10h00.24.019,ABstudy,2022.1.4,59.97807204539598,
AB_Prac,Lag5_T1P_T2A,5,P,A,6,11,5,5,16,Wheat,Did you see the Wheat?,0.5,0.016,JPG\,bottleopener01,dentalfloss03b,cooler01,icecreamcone01a,paperclip01b,wheat,pencilsharpener02a,plasticbasket01a,toycar04,apricot,hairclip02,rock01a,honeydewmelon,antenna,blackberry,cardboardbox,blankImage,wheat,,,,,,,,0,1,1,7,,,,,,,,,,,,,,,39.270416200044565,40.27515880006831,40.25849979999475,40.84012639999855,40.84012639999855,None,left,1.049920600024052,48.79300940001849,None,48.79300940001849,None,49.86780780006666,None,right,0.5109739999752492,49.86780780006666,None,,,,,,,,,,,,,,,,,,,,,,,,,,,,,,,,,,,,,,,,,,,,,,,PPT43,001,2022-07-08_10h00.24.019,ABstudy,2022.1.4,59.97807204539598,
AB_Prac,Lag5_T1P_T2P,5,P,P,5,10,4,5,15,Vulture,Did you see the Vulture?,0.5,0.016,JPG\,shorts01,toast,ramekin01,bib,vulture,cracker02,date,glasses01a,hat03b,stapler01,measuringtape01,nail,pill,drum01,starfish01,blankImage,blankImage,vulture,,,,,,,,0,2,2,3,,,,,,,,,,,,,,,50.4067434000317,51.419958500075154,51.40333790006116,52.01150410005357,52.01150410005357,None,left,0.6106270001037046,59.54352599999402,None,59.54352599999402,None,60.178377000032924,None,left,0.45695829996839166,60.178377000032924,None,,,,,,,,,,,,,,,,,,,,,,,,,,,,,,,,,,,,,,,,,,,,,,,PPT43,001,2022-07-08_10h00.24.019,ABstudy,2022.1.4,59.97807204539598,
AB_Prac,Lag1_T1P_T2A,1,P,A,8,9,7,5,14,flower,Did you see the flower?,0.5,0.016,JPG\,razor01,axe01,binder03b,bowl01,kettle01,lettuce,lime,plasticflower01b,mitten04,pencilcase01,plunger02,strawbasket01,toothpick02,wallet02a,blankImage,blankImage,blankImage,plasticflower01b,,,,,,,,0,3,3,5,,,,,,,,,,,,,,,60.665533200022765,61.67966490006074,61.66297710000072,62.243314400082454,62.243314400082454,None,left,0.9435323999496177,69.31400260003284,None,69.31400260003284,None,70.2880460000597,None,right,1.3298814999870956,70.2880460000597,None,,,,,,,,,,,,,,,,,,,,,,,,,,,,,,,,,,,,,,,,,,,,,,,PPT43,001,2022-07-08_10h00.24.019,ABstudy,2022.1.4,59.97807204539598,
AB_Prac,Lag5_T1P_T2P,5,P,P,7,12,6,3,15,vacuum,Did you see the vacuum?,0.5,0.016,JPG\,fork07b,lightbulb01,manshoe,saw02b,shoelace,soap03a,vacuumcleaner01,floortile01,necklace,doll,cabbage,stapler03a,hanger02a,laptop01a,nailpolish03b,blankImage,blankImage,vacuumcleaner01,,,,,,,,0,4,4,2,,,,,,,,,,,,,,,71.64695209998172,72.65742709999904,72.64087060000747,73.21906110004056,73.21906110004056,None,left,0.5662319000111893,80.72421620006207,None,80.72421620006207,None,81.31654820009135,None,left,0.4611159999622032,81.31654820009135,None,,,,,,,,,,,,,,,,,,,,,,,,,,,,,,,,,,,,,,,,,,,,,,,PPT43,001,2022-07-08_10h00.24.019,ABstudy,2022.1.4,59.97807204539598,
AB_Prac,Lag1_T1A_T2A,1,A,A,8,9,7,3,12,Moose,Did you see the Moose?,0.5,0.016,JPG\,clothespin03b,corkscrew03a,drillbit03a,fusilli03a,needlenosepliers01,perfume01a,pistachio,scrubbingbrush05b,spatula03,toothpastetube,hinge,toydinosaur,blankImage,blankImage,blankImage,blankImage,blankImage,None,,,,,,,,0,5,5,10,,,,,,,,,,,,,,,81.81711200007703,82.81714280007873,82.80046749999747,83.36792630003765,83.36792630003765,None,right,1.5243490999564528,89.43784520006739,None,89.43784520006739,None,90.99231860006694,None,right,0.4258577999426052,90.99231860006694,None,,,,,,,,,,,,,,,,,,,,,,,,,,,,,,,,,,,,,,,,,,,,,,,PPT43,001,2022-07-08_10h00.24.019,ABstudy,2022.1.4,59.97807204539598,
AB_Prac,Lag5_T1P_T2P,5,P,P,5,10,4,5,15,washing machine,Did you see the washing machine?,0.5,0.016,JPG\,waterbottle03,wheel01,flashlight02b,zucchini01,washingmachine,headphones02b,nutcracker01,paintroller01,paperclip03,stapler06,ribbon04,electricrazor,bottleofredwine01,pitabread,pot02a,blankImage,blankImage,washingmachine,,,,,,,,0,6,6,4,,,,,,,,,,,,,,,91.44588290003594,92.46042790007778,92.4439149000682,93.01143349998165,93.01143349998165,None,left,0.6328378000762314,100.50536720000673,None,100.50536720000673,None,101.1689236999955,None,left,0.5695716999471188,101.1689236999955,None,,,,,,,,,,,,,,,,,,,,,,,,,,,,,,,,,,,,,,,,,,,,,,,PPT43,001,2022-07-08_10h00.24.019,ABstudy,2022.1.4,59.97807204539598,
AB_Prac,Lag5_T1P_T2A,5,P,A,6,11,5,5,16,bread,Did you see the bread?,0.5,0.016,JPG\,cleaver01,clipboard,dustpan,hikingshoe01,notebook03a,baguette01,playingcard,pliers02b,styrofoamcup,rollingpin01a,swimgoggles,wineglass01,fryingpan02a,safetypin,syringe01,thimble,blankImage,baguette01,,,,,,,,0,7,7,8,,,,,,,,,,,,,,,101.77917760005221,102.78717000002507,102.77041360002477,103.345828599995,103.345828599995,None,left,0.6985405000159517,111.44746870000381,None,111.44746870000381,None,112.16345700004604,None,right,1.1983705000020564,112.16345700004604,None,,,,,,,,,,,,,,,,,,,,,,,,,,,,,,,,,,,,,,,,,,,,,,,PPT43,001,2022-07-08_10h00.24.019,ABstudy,2022.1.4,59.97807204539598,
AB_Prac,Lag5_T1A_T2A,5,A,A,6,11,5,5,16,castle,Did you see the castle?,0.5,0.016,JPG\,tape02a,englishmuffin,flask,ladle02a,monitor,peach01,keychain,squeegee01b,telephone01b,whisk,walkman,syringe02,baguette01,coaster,box01a,coffeepot03a,blankImage,None,,,,,,,,0,8,8,11,,,,,,,,,,,,,,,113.38534730009269,114.39928260003217,114.38270030007698,115.03344879997894,114.94067480007652,None,right,0.7036270999815315,123.01832200004719,None,123.01832200004719,None,123.74161660007667,None,right,0.33192499994765967,123.74161660007667,None,,,,,,,,,,,,,,,,,,,,,,,,,,,,,,,,,,,,,,,,,,,,,,,PPT43,001,2022-07-08_10h00.24.019,ABstudy,2022.1.4,59.97807204539598,
AB_Prac,Lag1_T1P_T2P,1,P,P,8,9,7,5,14,Tennis racket,Did you see the Tennis racket?,0.5,0.016,JPG\,coconut,computermouse06,croissant01,deodorant02a,pillow01a,peanut01,boot02b,tennisracket,stapler03b,crayon,eggplant,marker01a,plant01,radish01,blankImage,blankImage,blankImage,tennisracket,,,,,,,,0,9,9,0,,,,,,,,,,,,,,,124.09373990003951,125.09341420000419,125.07678670005407,125.65600900002755,125.65600900002755,None,left,0.5551397000672296,132.70239520003088,None,132.70239520003088,None,133.28434940008447,None,left,0.4053806000156328,133.28434940008447,None,,,,,,,,,,,,,,,,,,,,,,,,,,,,,,,,,,,,,,,,,,,,,,,PPT43,001,2022-07-08_10h00.24.019,ABstudy,2022.1.4,59.97807204539598,
AB_Prac,Lag1_T1P_T2P,1,P,P,6,7,5,5,12,triangle,Did you see the triangle?,0.5,0.016,JPG\,ginger,mousetrap,plum01,slipper01b,dropper01,triangle,stapler04b,pants,raspberry01,rope03,scale01a,vase01,blankImage,blankImage,blankImage,blankImage,blankImage,triangle,,,,,,,,0,10,10,1,,,,,,,,,,,,,,,133.7240914000431,134.73583200003486,134.71919750003144,135.3125776000088,135.3125776000088,None,left,0.4564568999921903,141.36969580000732,None,141.36969580000732,None,141.84447190002538,None,left,0.3175981999374926,141.84447190002538,None,,,,,,,,,,,,,,,,,,,,,,,,,,,,,,,,,,,,,,,,,,,,,,,PPT43,001,2022-07-08_10h00.24.019,ABstudy,2022.1.4,59.97807204539598,
AB_Prac,Lag5_T1A_T2P,5,A,P,6,11,5,3,14,dog,Did you see the dog?,0.5,0.016,JPG\,bucket01a,doorlock,cookiecutter,fireextinguisher01,gluestick,highlighter02b,sportbag,spraybottle01,suitcase,thread02,stapler05,walnut01c,icecubetray01a,vikingmask01b,blankImage,blankImage,blankImage,None,,,,,,,,0,11,11,9,,,,,,,,,,,,,,,142.20374400005676,143.21061110007577,143.1939687000122,143.7901920999866,143.7901920999866,None,right,1.1169354000594467,150.77272040001117,None,150.77272040001117,None,151.91966360004153,None,right,0.6980713000521064,151.91966360004153,None,,,,,,,,,,,,,,,,,,,,,,,,,,,,,,,,,,,,,,,,,,,,,,,PPT43,001,2022-07-08_10h00.24.019,ABstudy,2022.1.4,59.97807204539598,
,,,,,,,,,,,,,,,,,,,,,,,,,,,,,,,,,,,,,,,,,,,,,,,,,,,,,,,,,,,,,,,,,,,,,,,,,,,,152.63715770002455,None,space,7.4207041000481695,152.63715770002455,None,,,,,,,,,,,,,,,,,,,,,,,,,,,,,,,,,,,,,,,,,PPT43,001,2022-07-08_10h00.24.019,ABstudy,2022.1.4,59.97807204539598,
AB,Lag1_T1P_T2A,1,P,A,5,6,4,5,11,Toaster oven,Did you see the Toaster oven?,0.12,0.016,JPG\,fork03c,toothbrush03b,cellphone,fan,toasteroven,clock01a,ring01,eraser,sunglasses04,thermometer02b,violin,blankImage,blankImage,blankImage,blankImage,blankImage,blankImage,toasteroven,,,,,,,,,,,,0,0,0,200,,,,,,,,,,,,,,,,,,,,,,,,,,,,,,,,,,,160.82434590009507,161.82932530005928,161.81264640006702,162.42925350007135,162.42925350007135,None,163.71290660009254,None,left,1.105108999996446,163.71290660009254,None,164.85270869999658,None,left,1.3729679000098258,164.85270869999658,None,,,,,,,,,,,,,,,,,,,,,,,PPT43,001,2022-07-08_10h00.24.019,ABstudy,2022.1.4,59.97807204539598,
AB,Lag1_T1A_T2P,1,A,P,8,9,7,5,14,clock,Did you see the clock?,0.12,0.016,JPG\,speaker04,sewingmachine01a,eraser,violin,globe,belt02a,sunglasses04,cymbal,stapler01,greenolive,alligator,pear01,watch02a,screwdriver04b,blankImage,blankImage,blankImage,peacock,,,,,,,,,,,,0,1,1,240,,,,,,,,,,,,,,,,,,,,,,,,,,,,,,,,,,,166.25465490005445,167.26813380001113,167.25144780008122,167.843462800025,167.843462800025,None,169.56861670000944,None,right,1.0024074000539258,169.56861670000944,None,170.587964400067,None,left,0.5742187000578269,170.587964400067,None,,,,,,,,,,,,,,,,,,,,,,,PPT43,001,2022-07-08_10h00.24.019,ABstudy,2022.1.4,59.97807204539598,
AB,Lag5_T1P_T2P,5,P,P,5,10,4,3,13,Sushi,Did you see the Sushi?,0.12,0.016,JPG\,carrot01,greenolive,fork03c,chain01,makiroll,watermelon01,tableknife02,printer02,comb02a,stapler03b,orange,rice,fan,blankImage,blankImage,blankImage,blankImage,makiroll,,,,,,,,,,,,0,2,2,135,,,,,,,,,,,,,,,,,,,,,,,,,,,,,,,,,,,171.19060139998328,172.18989989999682,172.1732411000412,172.74711280001793,172.74711280001793,None,174.4160195000004,None,left,0.36969660001341254,174.4160195000004,None,174.80930379999336,None,left,0.2965978999854997,174.80930379999336,None,,,,,,,,,,,,,,,,,,,,,,,PPT43,001,2022-07-08_10h00.24.019,ABstudy,2022.1.4,59.97807204539598,
AB,Lag5_T1P_T2A,5,P,A,8,13,7,5,18,telescope,Did you see the telescope?,0.12,0.016,JPG\,globe,broccoli01a,binoculars01b,iron01b,avocado01,dandelion,pineapple01a,handheldtelescope,fan,pizza,celery,blueberry01,sewingmachine01a,dice05a,watermelon01,candy,blankImage,handheldtelescope,,,,,,,,,,,,0,3,3,228,,,,,,,,,,,,,,,,,,,,,,,,,,,,,,,,,,,175.1403510000091,176.14379320002627,176.11044880002737,176.70484110002872,176.70484110002872,None,178.6281060000183,None,left,1.2857708999654278,178.6281060000183,None,179.93071600003168,None,right,0.41508649999741465,179.93071600003168,None,,,,,,,,,,,,,,,,,,,,,,,PPT43,001,2022-07-08_10h00.24.019,ABstudy,2022.1.4,59.97807204539598,
AB,Lag5_T1P_T2P,5,P,P,8,13,7,3,16,parachute,Did you see the parachute?,0.12,0.016,JPG\,brick,plate01b,pen04b,toaster01,screwdriver04b,candle01,envelope03a,parachute,pig,ring01,orange,clock01a,stapler03b,calculator01,mushroom01,chain01,blankImage,parachute,,,,,,,,,,,,0,4,4,114,,,,,,,,,,,,,,,,,,,,,,,,,,,,,,,,,,,180.36674970004242,181.38238239998464,181.34874340007082,181.93064959999174,181.93064959999174,None,183.9210054000141,None,left,0.5608398000476882,183.9210054000141,None,184.50384560006205,None,left,0.25022009992972016,184.50384560006205,None,,,,,,,,,,,,,,,,,,,,,,,PPT43,001,2022-07-08_10h00.24.019,ABstudy,2022.1.4,59.97807204539598,
AB,Lag1_T1P_T2P,1,P,P,5,6,4,5,11,beaver,Did you see the beaver?,0.12,0.016,JPG\,belt02a,sunglasses04,computerkeyboard02,cherry01,beaver,stapler03a,watch02a,dice05a,blueberry01,spoon01,match,blankImage,blankImage,blankImage,blankImage,blankImage,blankImage,beaver,,,,,,,,,,,,0,5,5,55,,,,,,,,,,,,,,,,,,,,,,,,,,,,,,,,,,,184.78805079997983,185.8032715000445,185.7699613000732,186.35784220008645,186.35784220008645,None,187.7034583000932,None,left,0.41866309999022633,187.7034583000932,None,188.13904200005345,None,left,0.2862477999879047,188.13904200005345,None,,,,,,,,,,,,,,,,,,,,,,,PPT43,001,2022-07-08_10h00.24.019,ABstudy,2022.1.4,59.97807204539598,
AB,Lag1_T1P_T2A,1,P,A,8,9,7,5,14,Ceiling fan,Did you see the Ceiling fan?,0.12,0.016,JPG\,cucumber,sponge01,alligator,pear01,ashtray01,hammer01,clock04,ceilingfan01,fork03c,binoculars01b,mushroom01,broccoli01a,leaf02a,acorn,blankImage,blankImage,blankImage,ceilingfan01,,,,,,,,,,,,0,6,6,183,,,,,,,,,,,,,,,,,,,,,,,,,,,,,,,,,,,188.45856800000183,189.47369630006142,189.4403336000396,190.0279898000881,190.0279898000881,None,191.6524504000554,None,right,1.173588200006634,191.6524504000554,None,192.8439371000277,None,right,0.42217289994005114,192.8439371000277,None,,,,,,,,,,,,,,,,,,,,,,,PPT43,001,2022-07-08_10h00.24.019,ABstudy,2022.1.4,59.97807204539598,
AB,Lag1_T1P_T2P,1,P,P,7,8,6,3,11,locker,Did you see the locker?,0.12,0.016,JPG\,toiletpaper01a,lipstick02a,potato02b,speaker04,globe,strawberry,locker,stapler04b,sock01a,candle08b,pen04b,blankImage,blankImage,blankImage,blankImage,blankImage,blankImage,locker,,,,,,,,,,,,0,7,7,19,,,,,,,,,,,,,,,,,,,,,,,,,,,,,,,,,,,193.2997911000857,194.31185830000322,194.29523050005082,194.9255637000315,194.9255637000315,None,196.1869388000341,None,left,0.446565099991858,196.1869388000341,None,196.66468460008036,None,left,0.3047263000626117,196.66468460008036,None,,,,,,,,,,,,,,,,,,,,,,,PPT43,001,2022-07-08_10h00.24.019,ABstudy,2022.1.4,59.97807204539598,
AB,Lag5_T1P_T2A,5,P,A,7,12,6,4,16,Bear,Did you see the Bear?,0.12,0.016,JPG\,comb02a,key01,medal02b,battery02b,lighter01,microscope,grizzly,sandal,pig,cellphone,computerkeyboard02,calculator01,cymbal,clock04,cucumber,avocado01,blankImage,grizzly,,,,,,,,,,,,0,8,8,213,,,,,,,,,,,,,,,,,,,,,,,,,,,,,,,,,,,197.01528980000876,198.01538300001994,197.99865650001448,198.5751988000702,198.5751988000702,None,200.50495830003638,None,left,0.4802332000108436,200.50495830003638,None,201.00170020002406,None,left,0.3756147000240162,201.00170020002406,None,,,,,,,,,,,,,,,,,,,,,,,PPT43,001,2022-07-08_10h00.24.019,ABstudy,2022.1.4,59.97807204539598,
AB,Lag5_T1P_T2P,5,P,P,7,12,6,3,15,mail box,Did you see the mail box?,0.12,0.016,JPG\,key01,apple07,ring01,leaf02a,hammer01,tableknife02,postalmailbox01,sponge01,baseball01a,thermometer02b,celery,stapler06,grape01,cucumber,tennisball01b,blankImage,blankImage,postalmailbox01,,,,,,,,,,,,0,9,9,113,,,,,,,,,,,,,,,,,,,,,,,,,,,,,,,,,,,201.40380930004176,202.40335919999052,202.38653010001872,202.97091650008224,202.97091650008224,None,204.84986720001325,None,left,0.4725971999578178,204.84986720001325,None,205.33940669998992,None,left,0.2857134999940172,205.33940669998992,None,,,,,,,,,,,,,,,,,,,,,,,PPT43,001,2022-07-08_10h00.24.019,ABstudy,2022.1.4,59.97807204539598,
AB,Lag1_T1A_T2A,1,A,A,8,9,7,5,14,Ping pong Table,Did you see the Ping pong Table?,0.12,0.016,JPG\,pineapple01a,tennisball01b,computerkeyboard02,feather03a,belt02a,acorn,violin,blueberry01,medal02b,alligator,greenolive,screwdriver04b,potato02b,fork03c,blankImage,blankImage,blankImage,statue,,,,,,,,,,,,0,10,10,287,,,,,,,,,,,,,,,,,,,,,,,,,,,,,,,,,,,205.72397470008582,206.72429919999558,206.70763890002854,207.3368870000122,207.3368870000122,None,208.92957789998036,None,right,0.49646719999145716,208.92957789998036,None,209.44443939998746,None,left,0.8290254999883473,209.44443939998746,None,,,,,,,,,,,,,,,,,,,,,,,PPT43,001,2022-07-08_10h00.24.019,ABstudy,2022.1.4,59.97807204539598,
AB,Lag5_T1P_T2P,5,P,P,6,11,5,5,16,sword,Did you see the sword?,0.12,0.016,JPG\,chain01,speaker04,avocado01,watermelon01,scarf,sword01,lamp04a,fork03c,toaster01,slipper03b,stapler03a,cucumber,teabag,ashtray01,computerkeyboard02,book01b,blankImage,sword01,,,,,,,,,,,,0,11,11,143,,,,,,,,,,,,,,,,,,,,,,,,,,,,,,,,,,,210.29468829999678,211.2956119000446,211.27887590008322,211.86657060007565,211.86657060007565,None,213.8602782000089,None,left,0.3332524000434205,213.8602782000089,None,214.2162973000668,None,left,0.26524720003362745,214.2162973000668,None,,,,,,,,,,,,,,,,,,,,,,,PPT43,001,2022-07-08_10h00.24.019,ABstudy,2022.1.4,59.97807204539598,
AB,Lag5_T1P_T2A,5,P,A,8,13,7,4,17,knife,Did you see the knife?,0.12,0.016,JPG\,lighter01,hammer01,spoon01,chain01,cymbal,sponge01,lipstick02a,knife03,pig,watermelon01,cauliflower01,lemon02,broccoli01a,tableknife02,tennisball01b,toothbrush03b,blankImage,knife03,,,,,,,,,,,,0,12,12,214,,,,,,,,,,,,,,,,,,,,,,,,,,,,,,,,,,,214.50100140005816,215.51595630007796,215.48256330005825,216.06097520003095,216.06097520003095,None,218.00079600000754,None,left,0.40049859997816384,218.00079600000754,None,218.4198047000682,None,left,0.3349028999218717,218.4198047000682,None,,,,,,,,,,,,,,,,,,,,,,,PPT43,001,2022-07-08_10h00.24.019,ABstudy,2022.1.4,59.97807204539598,
AB,Lag1_T1A_T2A,1,A,A,8,9,7,3,12,punching bag,Did you see the punching bag?,0.12,0.016,JPG\,key01,apple07,ring01,leaf02a,hammer01,tableknife02,violin,sponge01,baseball01a,thermometer02b,celery,calculator01,blankImage,blankImage,blankImage,blankImage,blankImage,bathtub,,,,,,,,,,,,0,13,13,291,,,,,,,,,,,,,,,,,,,,,,,,,,,,,,,,,,,218.79348480002955,219.8040139999939,219.78739030007273,220.35672450007405,220.35672450007405,None,221.85290320008062,None,right,1.276948899962008,221.85290320008062,None,223.15725020004902,None,left,0.5407263999804854,223.15725020004902,None,,,,,,,,,,,,,,,,,,,,,,,PPT43,001,2022-07-08_10h00.24.019,ABstudy,2022.1.4,59.97807204539598,
AB,Lag5_T1P_T2A,5,P,A,6,11,5,5,16,hat,Did you see the hat?,0.12,0.016,JPG\,apple07,toiletpaper01a,pizza,dandelion,greenolive,pilgrimhat,microscope,violin,orange,lipstick02a,balloon01b,sandal,lighter01,fan,book01b,sewingmachine01a,blankImage,pilgrimhat,,,,,,,,,,,,0,14,14,206,,,,,,,,,,,,,,,,,,,,,,,,,,,,,,,,,,,223.72775090008508,224.7421342000598,224.7088262999896,225.29548040009104,225.29548040009104,None,227.26873870007694,None,left,0.6776045999722555,227.26873870007694,None,227.97857420006767,None,left,0.286671300069429,227.97857420006767,None,,,,,,,,,,,,,,,,,,,,,,,PPT43,001,2022-07-08_10h00.24.019,ABstudy,2022.1.4,59.97807204539598,
AB,Lag1_T1A_T2P,1,A,P,5,6,4,4,10,Bull,Did you see the Bull?,0.12,0.016,JPG\,celery,pencil01,fan,foosballtable,iron01b,stapler01,potato02b,fork03c,button01,pineapple01a,blankImage,blankImage,blankImage,blankImage,blankImage,blankImage,blankImage,spiderweb,,,,,,,,,,,,0,15,15,244,,,,,,,,,,,,,,,,,,,,,,,,,,,,,,,,,,,228.29789689998142,229.31323800003156,229.27985629998147,229.85940190008841,229.85940190008841,None,231.08926819998305,None,right,0.8089059999911115,231.08926819998305,None,231.91577990003861,None,right,0.5581809000577778,231.91577990003861,None,,,,,,,,,,,,,,,,,,,,,,,PPT43,001,2022-07-08_10h00.24.019,ABstudy,2022.1.4,59.97807204539598,
AB,Lag5_T1P_T2P,5,P,P,5,10,4,5,15,baseball bat,Did you see the baseball bat?,0.12,0.016,JPG\,pizza,printer02,medal02b,spoon01,baseballbat,lighter01,belt02a,watermelon01,celery,stapler04b,screw02,comb02a,cauliflower01,lipstick02a,potato02b,blankImage,blankImage,baseballbat,,,,,,,,,,,,0,16,16,123,,,,,,,,,,,,,,,,,,,,,,,,,,,,,,,,,,,232.50216390006244,233.51737680006772,233.4839952000184,234.0742101999931,234.0742101999931,None,235.9096238000784,None,left,0.3399525999557227,235.9096238000784,None,236.2701150000794,None,left,0.2758703000145033,236.2701150000794,None,,,,,,,,,,,,,,,,,,,,,,,PPT43,001,2022-07-08_10h00.24.019,ABstudy,2022.1.4,59.97807204539598,
AB,Lag5_T1P_T2P,5,P,P,5,10,4,3,13,Rabbit,Did you see the Rabbit?,0.12,0.016,JPG\,celery,tennisball01b,calculator01,pear01,jackrabbit,orange,button01,cellphone,onion,stapler06,iron01b,brownsugar,banana01,blankImage,blankImage,blankImage,blankImage,jackrabbit,,,,,,,,,,,,0,17,17,90,,,,,,,,,,,,,,,,,,,,,,,,,,,,,,,,,,,236.57585200003814,237.58836699998938,237.5716773000313,238.16070690006018,238.16070690006018,None,239.74592570005916,None,left,0.35965440003201365,239.74592570005916,None,240.1255031999899,None,left,0.2516804999904707,240.1255031999899,None,,,,,,,,,,,,,,,,,,,,,,,PPT43,001,2022-07-08_10h00.24.019,ABstudy,2022.1.4,59.97807204539598,
AB,Lag5_T1P_T2P,5,P,P,6,11,5,5,16,motorcycle,Did you see the motorcycle?,0.12,0.016,JPG\,cucumber,ring01,lipstick02a,microscope,violin,motorcycle,celery,lighter01,cherry01,sewingmachine01a,stapler04b,key01,binoculars01b,medal02b,watermelon01,dice05a,blankImage,motorcycle,,,,,,,,,,,,0,18,18,93,,,,,,,,,,,,,,,,,,,,,,,,,,,,,,,,,,,240.4103600999806,241.42540680000093,241.39205230004154,241.98558450001292,241.98558450001292,None,243.97420739999507,None,left,0.17979229998309165,243.97420739999507,None,244.1779910000041,None,left,0.19104559998959303,244.1779910000041,None,,,,,,,,,,,,,,,,,,,,,,,PPT43,001,2022-07-08_10h00.24.019,ABstudy,2022.1.4,59.97807204539598,
AB,Lag5_T1P_T2P,5,P,P,5,10,4,4,14,duck,Did you see the duck?,0.12,0.016,JPG\,celery,pencil01,fan,foosballtable,duck01,shirt02,potato02b,fork03c,button01,stapler03a,baseball01a,printer02,cauliflower01,dandelion,blankImage,blankImage,blankImage,duck01,,,,,,,,,,,,0,19,19,130,,,,,,,,,,,,,,,,,,,,,,,,,,,,,,,,,,,244.45064709999133,245.4631671999814,245.44657140003983,246.0458122000564,246.0458122000564,None,247.58167200000025,None,left,0.24487060005776584,247.58167200000025,None,247.84866210003383,None,left,0.2326737999683246,247.84866210003383,None,,,,,,,,,,,,,,,,,,,,,,,PPT43,001,2022-07-08_10h00.24.019,ABstudy,2022.1.4,59.97807204539598,
AB,Lag1_T1P_T2A,1,P,A,6,7,5,4,11,Road,Did you see the Road?,0.12,0.016,JPG\,pizza,printer02,medal02b,spoon01,grape01,road02,belt02a,watermelon01,celery,battery02b,screw02,blankImage,blankImage,blankImage,blankImage,blankImage,blankImage,road02,,,,,,,,,,,,0,20,20,174,,,,,,,,,,,,,,,,,,,,,,,,,,,,,,,,,,,248.10388810001314,249.1164439000422,249.09979390003718,249.75721399998292,249.66973000008147,None,251.03346400009468,None,left,0.7765187999466434,251.03346400009468,None,251.8356558000669,None,right,0.2790392000460997,251.8356558000669,None,,,,,,,,,,,,,,,,,,,,,,,PPT43,001,2022-07-08_10h00.24.019,ABstudy,2022.1.4,59.97807204539598,
AB,Lag1_T1A_T2P,1,A,P,8,9,7,3,12,seal,Did you see the seal?,0.12,0.016,JPG\,dice05a,watch02a,pig,lighter01,button01,strawberry,paintbrush01,microscope,stapler03a,pen04b,feather03a,8ball,blankImage,blankImage,blankImage,blankImage,blankImage,hockeystick,,,,,,,,,,,,0,21,21,235,,,,,,,,,,,,,,,,,,,,,,,,,,,,,,,,,,,252.15112030005548,253.15389650000725,253.12028410006315,253.7092607000377,253.7092607000377,None,255.1723368000239,None,right,0.6210985999787226,255.1723368000239,None,255.82266260008328,None,right,0.4027384000364691,255.82266260008328,None,,,,,,,,,,,,,,,,,,,,,,,PPT43,001,2022-07-08_10h00.24.019,ABstudy,2022.1.4,59.97807204539598,
AB,Lag5_T1P_T2P,5,P,P,6,11,5,5,16,keys,Did you see the keys?,0.12,0.016,JPG\,toiletpaper01a,mushroom01,medal02b,sandal,rice,foldingchair,feather03a,pizza,candle08b,garlic01a,stapler01,belt02a,cigarette,violin,lemon02,fork03c,blankImage,foldingchair,,,,,,,,,,,,0,22,22,125,,,,,,,,,,,,,,,,,,,,,,,,,,,,,,,,,,,256.2615872999886,257.2745418000268,257.2579002000857,257.8747653000755,257.8747653000755,None,259.8072588000214,None,right,0.7542509000049904,259.8072588000214,None,260.5945009000134,None,left,0.28724710003007203,260.5945009000134,None,,,,,,,,,,,,,,,,,,,,,,,PPT43,001,2022-07-08_10h00.24.019,ABstudy,2022.1.4,59.97807204539598,
AB,Lag1_T1A_T2P,1,A,P,8,9,7,4,13,Christmas tree,Did you see the Christmas tree?,0.12,0.016,JPG\,broom01,globe,cellphone,tableknife02,cauliflower01,scissors01,ring01,alligator,stapler03a,toaster01,cigarette,grape01,microscope,blankImage,blankImage,blankImage,blankImage,windmill,,,,,,,,,,,,0,23,23,247,,,,,,,,,,,,,,,,,,,,,,,,,,,,,,,,,,,260.91744029999245,261.92917150002904,261.9125604000874,262.5033994000405,262.5033994000405,None,264.09737209999,None,left,0.5917116000782698,264.09737209999,None,264.71636990003753,None,right,0.212856600061059,264.71636990003753,None,,,,,,,,,,,,,,,,,,,,,,,PPT43,001,2022-07-08_10h00.24.019,ABstudy,2022.1.4,59.97807204539598,
AB,Lag5_T1P_T2P,5,P,P,7,12,6,5,17,Badminton Racket,Did you see the Badminton Racket?,0.12,0.016,JPG\,paintbrush01,dice05a,watermelon01,broccoli01a,hammer01,leaf02a,badmintonracket,tennisball01b,lemon02,fan,lipstick02a,stapler04b,envelope03a,sponge01,foosballtable,orange,blankImage,badmintonracket,,,,,,,,,,,,0,24,24,163,,,,,,,,,,,,,,,,,,,,,,,,,,,,,,,,,,,264.9640347000677,265.96654370008036,265.9498245000141,266.50784370000474,266.50784370000474,None,268.52739870001096,None,left,0.8175342000322416,268.52739870001096,None,269.37011250003707,None,left,0.2710741999326274,269.37011250003707,None,,,,,,,,,,,,,,,,,,,,,,,PPT43,001,2022-07-08_10h00.24.019,ABstudy,2022.1.4,59.97807204539598,
AB,Lag1_T1P_T2A,1,P,A,7,8,6,3,11,Seagull,Did you see the Seagull?,0.12,0.016,JPG\,toiletpaper01a,mushroom01,medal02b,sandal,rice,cd,seagull,pizza,candle08b,garlic01a,toaster01,blankImage,blankImage,blankImage,blankImage,blankImage,blankImage,seagull,,,,,,,,,,,,0,25,25,176,,,,,,,,,,,,,,,,,,,,,,,,,,,,,,,,,,,269.6706132000545,270.6713482000632,270.65455059998203,271.2305420000339,271.2305420000339,None,272.62174219998997,None,left,0.8437406000448391,272.62174219998997,None,273.49069890007377,None,right,1.1105754999443889,273.49069890007377,None,,,,,,,,,,,,,,,,,,,,,,,PPT43,001,2022-07-08_10h00.24.019,ABstudy,2022.1.4,59.97807204539598,
AB,Lag5_T1P_T2P,5,P,P,8,13,7,3,16,Chefs hat,Did you see the Chefs hat?,0.12,0.016,JPG\,rice,watermelon01,tableknife02,scarf,computerkeyboard02,cauliflower01,battery02b,chefshat,book01b,sandal,sponge01,microscope,stapler01,fork03c,thermometer02b,apple07,blankImage,chefshat,,,,,,,,,,,,0,26,26,128,,,,,,,,,,,,,,,,,,,,,,,,,,,,,,,,,,,274.6274582000915,275.6425991000142,275.60924340004567,276.1818936000345,276.1818936000345,None,278.17877670004964,None,left,0.5827883000019938,278.17877670004964,None,278.77904060005676,None,right,0.3354797000065446,278.77904060005676,None,,,,,,,,,,,,,,,,,,,,,,,PPT43,001,2022-07-08_10h00.24.019,ABstudy,2022.1.4,59.97807204539598,
AB,Lag5_T1P_T2A,5,P,A,6,11,5,5,16,World map,Did you see the World map?,0.12,0.016,JPG\,cigarette,pig,banana01,strawberry,clock01a,worldmap,spoon01,blueberry01,battery02b,pineapple01a,chain01,paintbrush01,candy,pen04b,teabag,birthdaycandle,blankImage,worldmap,,,,,,,,,,,,0,27,27,205,,,,,,,,,,,,,,,,,,,,,,,,,,,,,,,,,,,279.14865190000273,280.16376200004015,280.13037810008973,280.7054796000011,280.7054796000011,None,282.62048979999963,None,left,1.1812878000782803,282.62048979999963,None,283.8342599000316,None,right,0.3122935000574216,283.8342599000316,None,,,,,,,,,,,,,,,,,,,,,,,PPT43,001,2022-07-08_10h00.24.019,ABstudy,2022.1.4,59.97807204539598,
AB,Lag1_T1P_T2P,1,P,P,6,7,5,5,12,Snowboard,Did you see the Snowboard?,0.12,0.016,JPG\,belt02a,measuringcup01,spoon01,chain01,greenolive,snowboard,stapler01,onion,fan,strawberry,candle01,broom01,blankImage,blankImage,blankImage,blankImage,blankImage,snowboard,,,,,,,,,,,,0,28,28,49,,,,,,,,,,,,,,,,,,,,,,,,,,,,,,,,,,,284.17321670008823,285.18565620004665,285.16899859998375,285.7425091000041,285.7425091000041,None,287.1905330000445,None,left,0.5304191999603063,287.1905330000445,None,287.7382212000666,None,right,0.29479309997987,287.7382212000666,None,,,,,,,,,,,,,,,,,,,,,,,PPT43,001,2022-07-08_10h00.24.019,ABstudy,2022.1.4,59.97807204539598,
AB,Lag5_T1P_T2P,5,P,P,5,10,4,4,14,bell,Did you see the bell?,0.12,0.016,JPG\,teabag,envelope03a,cellphone,apple07,callbell,orange,brownsugar,book01b,hammer01,stapler03b,toaster01,calculator01,globe,battery02b,blankImage,blankImage,blankImage,callbell,,,,,,,,,,,,0,29,29,147,,,,,,,,,,,,,,,,,,,,,,,,,,,,,,,,,,,288.0582385000307,289.0728798999917,289.03952940006275,289.6252129999921,289.6252129999921,None,291.3456178000197,None,left,0.4555133000249043,291.3456178000197,None,291.82544610009063,None,left,0.32860080001410097,291.82544610009063,None,,,,,,,,,,,,,,,,,,,,,,,PPT43,001,2022-07-08_10h00.24.019,ABstudy,2022.1.4,59.97807204539598,
AB,Lag1_T1A_T2P,1,A,P,5,6,4,3,9,Stool,Did you see the Stool?,0.12,0.016,JPG\,cherry01,cymbal,envelope03a,foosballtable,shirt02,stapler01,sewingmachine01a,candle08b,battery02b,blankImage,blankImage,blankImage,blankImage,blankImage,blankImage,blankImage,blankImage,hulahoop,,,,,,,,,,,,0,30,30,236,,,,,,,,,,,,,,,,,,,,,,,,,,,,,,,,,,,292.17915850004647,293.19347360008396,293.16007019998506,293.7384575000033,293.7384575000033,None,294.82786070008297,None,right,0.9173078999156132,294.82786070008297,None,295.7641008000355,None,left,0.5494260999839753,295.7641008000355,None,,,,,,,,,,,,,,,,,,,,,,,PPT43,001,2022-07-08_10h00.24.019,ABstudy,2022.1.4,59.97807204539598,
AB,Lag5_T1P_T2A,5,P,A,7,12,6,5,17,shoulder,Did you see the shoulder?,0.12,0.016,JPG\,battery02b,sunglasses04,pear01,tennisball01b,clock01a,speaker04,shoulder,spoon01,alligator,pineapple01a,avocado01,grape01,blueberry01,violin,strawberry,sock01a,blankImage,shoulder,,,,,,,,,,,,0,31,31,224,,,,,,,,,,,,,,,,,,,,,,,,,,,,,,,,,,,296.33959660003893,297.34740960004274,297.3306993000442,297.9083392000757,297.9083392000757,None,299.855272200075,None,left,0.5624050999758765,299.855272200075,None,300.43466190004256,None,left,0.3186519999289885,300.43466190004256,None,,,,,,,,,,,,,,,,,,,,,,,PPT43,001,2022-07-08_10h00.24.019,ABstudy,2022.1.4,59.97807204539598,
AB,Lag5_T1P_T2P,5,P,P,6,11,5,4,15,saxophone,Did you see the saxophone?,0.12,0.016,JPG\,pizza,strawberry,potato02b,speaker04,battery02b,saxophone,dice05a,cellphone,globe,banana01,stapler03b,baseball01a,toaster01,broom01,ring01,blankImage,blankImage,saxophone,,,,,,,,,,,,0,32,32,117,,,,,,,,,,,,,,,,,,,,,,,,,,,,,,,,,,,300.78811309998855,301.8022229000926,301.78506790008396,302.3673533999827,302.3673533999827,None,304.2059897000436,None,left,0.9708995999535546,304.2059897000436,None,305.2057133000344,None,right,0.2673244000179693,305.2057133000344,None,,,,,,,,,,,,,,,,,,,,,,,PPT43,001,2022-07-08_10h00.24.019,ABstudy,2022.1.4,59.97807204539598,
AB,Lag5_T1P_T2P,5,P,P,6,11,5,3,14,Poker chips,Did you see the Poker chips?,0.12,0.016,JPG\,iron01b,brick,broccoli01a,balloon01b,tomato01,pokerchips,sandal,teabag,scissors01,pineapple01a,stapler04b,measuringcup01,sock01a,book01b,blankImage,blankImage,blankImage,pokerchips,,,,,,,,,,,,0,33,33,154,,,,,,,,,,,,,,,,,,,,,,,,,,,,,,,,,,,305.5601458000019,306.5740359000629,306.5571992000332,307.15523780009244,307.15523780009244,None,308.7607230000431,None,left,3.0320554999634624,308.7607230000431,None,311.8120302000316,None,right,0.5419812999898568,311.8120302000316,None,,,,,,,,,,,,,,,,,,,,,,,PPT43,001,2022-07-08_10h00.24.019,ABstudy,2022.1.4,59.97807204539598,
AB,Lag1_T1P_T2A,1,P,A,6,7,5,5,12,Barn,Did you see the Barn?,0.12,0.016,JPG\,celery,pencil01,fan,foosballtable,iron01b,barn,potato02b,fork03c,button01,pineapple01a,baseball01a,printer02,blankImage,blankImage,blankImage,blankImage,blankImage,barn,,,,,,,,,,,,0,34,34,181,,,,,,,,,,,,,,,,,,,,,,,,,,,,,,,,,,,312.38153630006127,313.3969248000067,313.36357300006784,313.97027530008927,313.97027530008927,None,315.5086356999818,None,left,0.5724460000637919,315.5086356999818,None,316.0997959000524,None,left,0.25338569993618876,316.0997959000524,None,,,,,,,,,,,,,,,,,,,,,,,PPT43,001,2022-07-08_10h00.24.019,ABstudy,2022.1.4,59.97807204539598,
AB,Lag1_T1P_T2A,1,P,A,8,9,7,4,13,boat,Did you see the boat?,0.12,0.016,JPG\,fork03c,dandelion,dice05a,belt02a,onion,watch02a,key01,boat,eraser,medal02b,greenolive,shirt02,candle08b,blankImage,blankImage,blankImage,blankImage,boat,,,,,,,,,,,,0,35,35,199,,,,,,,,,,,,,,,,,,,,,,,,,,,,,,,,,,,316.3858872000128,317.4011057000607,317.36768330005,317.9485980999889,317.9485980999889,None,319.5845688000554,None,right,1.0244464999996126,319.5845688000554,None,320.63763760006987,None,left,0.4196997999679297,320.63763760006987,None,,,,,,,,,,,,,,,,,,,,,,,PPT43,001,2022-07-08_10h00.24.019,ABstudy,2022.1.4,59.97807204539598,
AB,Lag1_T1P_T2P,1,P,P,8,9,7,5,14,giraffe,Did you see the giraffe?,0.12,0.016,JPG\,pencil01,foosballtable,banana01,lipstick02a,toaster01,grape01,key01,giraffe,stapler03b,pineapple01a,strawberry,teabag,dandelion,paintbrush01,blankImage,blankImage,blankImage,giraffe,,,,,,,,,,,,0,36,36,0,,,,,,,,,,,,,,,,,,,,,,,,,,,,,,,,,,,321.09104410000145,322.1055932000745,322.0721735000843,322.64463590004016,322.64463590004016,None,324.3739886999829,None,left,0.9228159999474883,324.3739886999829,None,325.3253818000667,None,left,0.515593699994497,325.3253818000667,None,,,,,,,,,,,,,,,,,,,,,,,PPT43,001,2022-07-08_10h00.24.019,ABstudy,2022.1.4,59.97807204539598,
AB,Lag5_T1A_T2P,5,A,P,5,10,4,5,15,shower,Did you see the shower?,0.12,0.016,JPG\,sewingmachine01a,thermometer02b,sponge01,eraser,broccoli01a,fork03c,pizza,violin,belt02a,stapler04b,pineapple01a,tennisball01b,dandelion,cauliflower01,lemon02,blankImage,blankImage,redfox,,,,,,,,,,,,0,37,37,271,,,,,,,,,,,,,,,,,,,,,,,,,,,,,,,,,,,325.8743998000864,326.87696230004076,326.84361219999846,327.45344519999344,327.45344519999344,None,329.2800051000668,None,right,0.40139689994975924,329.2800051000668,None,329.71336759999394,None,right,0.45564269996248186,329.71336759999394,None,,,,,,,,,,,,,,,,,,,,,,,PPT43,001,2022-07-08_10h00.24.019,ABstudy,2022.1.4,59.97807204539598,
AB,Lag5_T1P_T2A,5,P,A,8,13,7,5,18,Nunchuks,Did you see the Nunchuks?,0.12,0.016,JPG\,celery,tennisball01b,calculator01,pear01,screw02,orange,button01,nunchuk,onion,apple07,iron01b,brownsugar,banana01,paintbrush01,dandelion,toothbrush03b,blankImage,nunchuk,,,,,,,,,,,,0,38,38,218,,,,,,,,,,,,,,,,,,,,,,,,,,,,,,,,,,,330.1993007999845,331.2149064000696,331.18158590001985,331.7614495999878,331.7614495999878,None,333.70718850009143,None,left,0.870449399924837,333.70718850009143,None,334.6028989000479,None,right,0.24626569997053593,334.6028989000479,None,,,,,,,,,,,,,,,,,,,,,,,PPT43,001,2022-07-08_10h00.24.019,ABstudy,2022.1.4,59.97807204539598,
AB,Lag5_T1P_T2P,5,P,P,7,12,6,5,17,statue,Did you see the statue?,0.12,0.016,JPG\,pear01,clock01a,cymbal,match,ashtray01,globe,statue,button01,lemon02,pen04b,dice05a,stapler06,toothbrush03b,screwdriver04b,feather03a,key01,blankImage,statue,,,,,,,,,,,,0,39,39,100,,,,,,,,,,,,,,,,,,,,,,,,,,,,,,,,,,,334.8779004000826,335.8859504000284,335.86925900005735,336.4823908000253,336.4823908000253,None,338.41234749997966,None,right,1.0060063999844715,338.41234749997966,None,339.43972600006964,None,left,0.5694760999176651,339.43972600006964,None,,,,,,,,,,,,,,,,,,,,,,,PPT43,001,2022-07-08_10h00.24.019,ABstudy,2022.1.4,59.97807204539598,
AB,Lag1_T1P_T2A,1,P,A,8,9,7,5,14,Sausage,Did you see the Sausage?,0.12,0.016,JPG\,pencil01,broccoli01a,button01,sponge01,watermelon01,lipstick02a,comb02a,sausage,lighter01,sock01a,spoon01,blueberry01,belt02a,onion,blankImage,blankImage,blankImage,sausage,,,,,,,,,,,,0,40,40,175,,,,,,,,,,,,,,,,,,,,,,,,,,,,,,,,,,,340.09802400006447,341.10803830006626,341.09147770004347,341.69282940006815,341.69282940006815,None,343.29914060002193,None,left,0.6063150999834761,343.29914060002193,None,343.92876710009295,None,right,0.34399359999224544,343.92876710009295,None,,,,,,,,,,,,,,,,,,,,,,,PPT43,001,2022-07-08_10h00.24.019,ABstudy,2022.1.4,59.97807204539598,
AB,Lag1_T1P_T2P,1,P,P,7,8,6,4,12,Dog House,Did you see the Dog House?,0.12,0.016,JPG\,pineapple01a,leaf02a,grape01,toiletpaper01a,match,tennisball01b,doghouse,stapler03b,pig,measuringcup01,ring01,lemon02,blankImage,blankImage,blankImage,blankImage,blankImage,doghouse,,,,,,,,,,,,0,41,41,44,,,,,,,,,,,,,,,,,,,,,,,,,,,,,,,,,,,344.31192810006905,345.3125396000687,345.2959457000252,345.89152110007126,345.89152110007126,None,347.36234450002667,None,left,0.5663560000248253,347.36234450002667,None,347.9481384999817,None,right,0.2776310999179259,347.9481384999817,None,,,,,,,,,,,,,,,,,,,,,,,PPT43,001,2022-07-08_10h00.24.019,ABstudy,2022.1.4,59.97807204539598,
AB,Lag1_T1P_T2P,1,P,P,8,9,7,3,12,snow globe,Did you see the Snow globe?,0.12,0.016,JPG\,eraser,measuringcup01,chain01,birthdaycandle,ring01,rice,8ball,stapler04b,stapler01,celery,microscope,sunglasses04,blankImage,blankImage,blankImage,blankImage,blankImage,snowglobe,,,,,,,,,,,,0,42,42,56,,,,,,,,,,,,,,,,,,,,,,,,,,,,,,,,,,,348.25522510008886,349.2661500000395,349.2494270000607,349.844964500051,349.844964500051,None,351.31177000002936,None,right,0.8180358000099659,351.31177000002936,None,352.1523554000305,None,left,0.520390999969095,352.1523554000305,None,,,,,,,,,,,,,,,,,,,,,,,PPT43,001,2022-07-08_10h00.24.019,ABstudy,2022.1.4,59.97807204539598,
AB,Lag5_T1P_T2P,5,P,P,5,10,4,3,13,Jellyfish,Did you see the Jellyfish?,0.12,0.016,JPG\,printer02,envelope03a,potato02b,calculator01,jellyfish,cigarette,ashtray01,pig,broom01,stapler06,candle08b,battery02b,strawberry,blankImage,blankImage,blankImage,blankImage,jellyfish,,,,,,,,,,,,0,43,43,91,,,,,,,,,,,,,,,,,,,,,,,,,,,,,,,,,,,352.7114912000252,353.7205621000612,353.7038631000323,354.2784350999864,354.2784350999864,None,355.9081855000695,None,right,0.9971762999193743,355.9081855000695,None,356.9241524999961,None,left,0.5731376999756321,356.9241524999961,None,,,,,,,,,,,,,,,,,,,,,,,PPT43,001,2022-07-08_10h00.24.019,ABstudy,2022.1.4,59.97807204539598,
AB,Lag5_T1A_T2P,5,A,P,7,12,6,4,16,flower,Did you see the flower?,0.12,0.016,JPG\,printer02,envelope03a,potato02b,calculator01,tableknife02,cigarette,ashtray01,pig,broom01,greenolive,candle08b,stapler03a,strawberry,candle01,foosballtable,tennisball01b,blankImage,calendar,,,,,,,,,,,,0,44,44,282,,,,,,,,,,,,,,,,,,,,,,,,,,,,,,,,,,,357.5281355000334,358.5420724999858,358.5252797000576,359.10097560007125,359.10097560007125,None,361.0956327000167,None,right,0.48158670007251203,361.0956327000167,None,361.5950397000415,None,left,0.36558169999625534,361.5950397000415,None,,,,,,,,,,,,,,,,,,,,,,,PPT43,001,2022-07-08_10h00.24.019,ABstudy,2022.1.4,59.97807204539598,
AB,Lag5_T1A_T2P,5,A,P,6,11,5,3,14,saxophone,Did you see the saxophone?,0.12,0.016,JPG\,globe,belt02a,sponge01,violin,fork03c,tomato01,clock01a,microscope,balloon01b,scarf,stapler03b,pen04b,brick,brownsugar,blankImage,blankImage,blankImage,microphone01,,,,,,,,,,,,0,45,45,267,,,,,,,,,,,,,,,,,,,,,,,,,,,,,,,,,,,362.0337817000691,363.04689890006557,363.0302293000277,363.63628760003485,363.63628760003485,None,365.16535420005675,None,right,0.9239071999909356,365.16535420005675,None,366.11620140005834,None,left,0.40441389998886734,366.11620140005834,None,,,,,,,,,,,,,,,,,,,,,,,PPT43,001,2022-07-08_10h00.24.019,ABstudy,2022.1.4,59.97807204539598,
AB,Lag1_T1P_T2P,1,P,P,8,9,7,3,12,bridge,Did you see the bridge?,0.12,0.016,JPG\,speaker04,sewingmachine01a,eraser,violin,globe,belt02a,sunglasses04,bridge,stapler01,greenolive,alligator,pear01,blankImage,blankImage,blankImage,blankImage,blankImage,bridge,,,,,,,,,,,,0,46,46,78,,,,,,,,,,,,,,,,,,,,,,,,,,,,,,,,,,,366.5556391000282,367.5677508000517,367.5510716000572,368.17332970001735,368.17332970001735,None,369.5985271000536,None,left,0.5151498999912292,369.5985271000536,None,370.13809920009226,None,right,0.28705629997421056,370.13809920009226,None,,,,,,,,,,,,,,,,,,,,,,,PPT43,001,2022-07-08_10h00.24.019,ABstudy,2022.1.4,59.97807204539598,
AB,Lag1_T1P_T2P,1,P,P,6,7,5,4,11,no parking sign,Did you see the no parking sign?,0.12,0.016,JPG\,fork03c,belt02a,grape01,computerkeyboard02,lemon02,parkingsign,stapler05,toiletpaper01a,toaster01,lipstick02a,book01b,blankImage,blankImage,blankImage,blankImage,blankImage,blankImage,parkingsign,,,,,,,,,,,,0,47,47,47,,,,,,,,,,,,,,,,,,,,,,,,,,,,,,,,,,,370.46036070003174,371.47162950003985,371.4549014000222,372.038302400033,372.038302400033,None,373.3929162999848,None,left,0.7840229000430554,373.3929162999848,None,374.2077477000421,None,right,0.2493007000302896,374.2077477000421,None,,,,,,,,,,,,,,,,,,,,,,,PPT43,001,2022-07-08_10h00.24.019,ABstudy,2022.1.4,59.97807204539598,
AB,Lag1_T1A_T2A,1,A,A,8,9,7,3,12,popcorn,Did you see the popcorn?,0.12,0.016,JPG\,brownsugar,candle01,match,printer02,broom01,balloon01b,belt02a,potato02b,computerkeyboard02,feather03a,rice,mushroom01,blankImage,blankImage,blankImage,blankImage,blankImage,banjo,,,,,,,,,,,,0,48,48,290,,,,,,,,,,,,,,,,,,,,,,,,,,,,,,,,,,,374.4821670000674,375.4925888000289,375.4760057000676,375.9789053000277,375.9789053000277,None,377.5713847000152,None,right,0.8055042000487447,377.5713847000152,None,378.3960940000834,None,left,0.3495835999492556,378.3960940000834,None,,,,,,,,,,,,,,,,,,,,,,,PPT43,001,2022-07-08_10h00.24.019,ABstudy,2022.1.4,59.97807204539598,
AB,Lag5_T1A_T2P,5,A,P,6,11,5,5,16,bed,Did you see the bed?,0.12,0.016,JPG\,cellphone,tomato01,comb02a,candy,celery,cucumber,toaster01,fan,feather03a,pen04b,stapler03b,blueberry01,plate01b,cherry01,baseball01a,candle08b,blankImage,toolbox02,,,,,,,,,,,,0,49,49,274,,,,,,,,,,,,,,,,,,,,,,,,,,,,,,,,,,,378.7642308000941,379.77969100000337,379.74631070008036,380.3423449000111,380.3423449000111,None,382.25689730001613,None,right,0.8321585999801755,382.25689730001613,None,383.11645880003925,None,left,0.3496844000183046,383.11645880003925,None,,,,,,,,,,,,,,,,,,,,,,,PPT43,001,2022-07-08_10h00.24.019,ABstudy,2022.1.4,59.97807204539598,
AB,Lag1_T1P_T2P,1,P,P,7,8,6,5,13,horse,Did you see the horse?,0.12,0.016,JPG\,watermelon01,pencil01,microscope,blueberry01,computerkeyboard02,lamp04a,horse,stapler03b,sock01a,key01,binoculars01b,cauliflower01,ashtray01,blankImage,blankImage,blankImage,blankImage,horse,,,,,,,,,,,,0,50,50,3,,,,,,,,,,,,,,,,,,,,,,,,,,,,,,,,,,,383.48707600007765,384.5012051999802,384.48454930004664,385.13906990003306,385.05656880000606,None,386.73304269998334,None,left,0.5486349000129849,386.73304269998334,None,387.3039869000204,None,left,0.32841479999478906,387.3039869000204,None,,,,,,,,,,,,,,,,,,,,,,,PPT43,001,2022-07-08_10h00.24.019,ABstudy,2022.1.4,59.97807204539598,
AB,Lag5_T1P_T2P,5,P,P,6,11,5,4,15,punching bag,Did you see the punching bag?,0.12,0.016,JPG\,foosballtable,cigarette,pen04b,birthdaycandle,hammer01,punchingbag,binoculars01b,chain01,potato02b,cauliflower01,stapler04b,ashtray01,scarf,cellphone,calculator01,blankImage,blankImage,punchingbag,,,,,,,,,,,,0,51,51,156,,,,,,,,,,,,,,,,,,,,,,,,,,,,,,,,,,,387.65385560004506,388.6557299999986,388.6389916000189,389.1408939000685,389.1408939000685,None,391.0326176000526,None,left,0.43225229997187853,391.0326176000526,None,391.49289600003976,None,left,0.35603160003665835,391.49289600003976,None,,,,,,,,,,,,,,,,,,,,,,,PPT43,001,2022-07-08_10h00.24.019,ABstudy,2022.1.4,59.97807204539598,
AB,Lag1_T1P_T2P,1,P,P,7,8,6,3,11,tree,Did you see the tree?,0.12,0.016,JPG\,pear01,clock01a,cymbal,match,ashtray01,globe,tree,stapler03b,lemon02,pen04b,dice05a,blankImage,blankImage,blankImage,blankImage,blankImage,blankImage,tree,,,,,,,,,,,,0,52,52,51,,,,,,,,,,,,,,,,,,,,,,,,,,,,,,,,,,,391.93093000003137,392.9429640000453,392.9262325000018,393.5073915000539,393.5073915000539,None,394.7764155000914,None,left,0.37667859997600317,394.7764155000914,None,395.178312700009,None,left,0.23853229999076575,395.178312700009,None,,,,,,,,,,,,,,,,,,,,,,,PPT43,001,2022-07-08_10h00.24.019,ABstudy,2022.1.4,59.97807204539598,
AB,Lag1_T1P_T2P,1,P,P,7,8,6,4,12,Christmas Tree,Did you see the Christmas Tree?,0.12,0.016,JPG\,sandal,fan,printer02,cellphone,mushroom01,candle08b,firtree,stapler03a,lamp04a,hammer01,teabag,aceofdiamond,blankImage,blankImage,blankImage,blankImage,blankImage,firtree,,,,,,,,,,,,0,53,53,6,,,,,,,,,,,,,,,,,,,,,,,,,,,,,,,,,,,395.44964870007243,396.46312650002073,396.4296035000589,397.0135420000879,397.0135420000879,None,398.5099252000218,None,right,1.307115999981761,398.5099252000218,None,399.84987760009244,None,left,0.24727320007514209,399.84987760009244,None,,,,,,,,,,,,,,,,,,,,,,,PPT43,001,2022-07-08_10h00.24.019,ABstudy,2022.1.4,59.97807204539598,
AB,Lag1_T1A_T2P,1,A,P,8,9,7,3,12,porcupine,Did you see the porcupine?,0.12,0.016,JPG\,celery,orange,scissors01,balloon01b,avocado01,printer02,mushroom01,sewingmachine01a,stapler01,dice05a,ashtray01,fan,blankImage,blankImage,blankImage,blankImage,blankImage,drumstick,,,,,,,,,,,,0,54,54,233,,,,,,,,,,,,,,,,,,,,,,,,,,,,,,,,,,,400.1666798000224,401.1679695000639,401.15130750008393,401.7422811000142,401.7422811000142,None,403.20474710001145,None,right,0.8840816000010818,403.20474710001145,None,404.1207246000413,None,right,0.44026830000802875,404.1207246000413,None,,,,,,,,,,,,,,,,,,,,,,,PPT43,001,2022-07-08_10h00.24.019,ABstudy,2022.1.4,59.97807204539598,
AB,Lag1_T1P_T2P,1,P,P,8,9,7,5,14,bullet,Did you see the bullet?,0.12,0.016,JPG\,measuringcup01,dice05a,greenolive,lipstick02a,feather03a,balloon01b,lighter01,bullet,stapler04b,plate01b,microscope,brick,thermometer02b,screw02,blankImage,blankImage,blankImage,bullet,,,,,,,,,,,,0,55,55,57,,,,,,,,,,,,,,,,,,,,,,,,,,,,,,,,,,,404.59159470000304,405.6055912000593,405.5889036000008,406.24318270001095,406.1628757000435,None,407.90751629997976,None,left,0.6371777000604197,407.90751629997976,None,408.57520439999644,None,right,0.7786089000292122,408.57520439999644,None,,,,,,,,,,,,,,,,,,,,,,,PPT43,001,2022-07-08_10h00.24.019,ABstudy,2022.1.4,59.97807204539598,
AB,Lag1_T1A_T2P,1,A,P,7,8,6,5,13,Ant,Did you see the Ant?,0.12,0.016,JPG\,rice,watermelon01,tableknife02,scarf,computerkeyboard02,cauliflower01,battery02b,stapler03b,book01b,sandal,sponge01,microscope,tomato01,blankImage,blankImage,blankImage,blankImage,sandcastle,,,,,,,,,,,,0,56,56,242,,,,,,,,,,,,,,,,,,,,,,,,,,,,,,,,,,,409.44547150004655,410.46022300003096,410.44364130008034,411.09422910003923,411.0078219000716,None,412.54631370003335,None,right,0.8148343999637291,412.54631370003335,None,413.379903400084,None,left,0.5416017000097781,413.379903400084,None,,,,,,,,,,,,,,,,,,,,,,,PPT43,001,2022-07-08_10h00.24.019,ABstudy,2022.1.4,59.97807204539598,
AB,Lag5_T1A_T2P,5,A,P,5,10,4,4,14,Chefs hat,Did you see the Chefs hat?,0.12,0.016,JPG\,candle01,fork03c,plate01b,violin,computerkeyboard02,candy,calculator01,paintbrush01,cherry01,stapler06,teabag,banana01,cd,lighter01,blankImage,blankImage,blankImage,horseshoe,,,,,,,,,,,,0,57,57,278,,,,,,,,,,,,,,,,,,,,,,,,,,,,,,,,,,,413.95336779998615,414.9649126000004,414.9481860999949,415.52142840006854,415.52142840006854,None,417.260399300023,None,right,1.3326501999981701,417.260399300023,None,418.61807870003395,None,left,0.2958531000185758,418.61807870003395,None,,,,,,,,,,,,,,,,,,,,,,,PPT43,001,2022-07-08_10h00.24.019,ABstudy,2022.1.4,59.97807204539598,
AB,Lag5_T1P_T2P,5,P,P,8,13,7,5,18,bed,Did you see the bed?,0.12,0.016,JPG\,pencil01,broccoli01a,button01,sponge01,watermelon01,lipstick02a,comb02a,bed,lighter01,sock01a,spoon01,blueberry01,stapler04b,onion,grape01,avocado01,blankImage,bed,,,,,,,,,,,,0,58,58,124,,,,,,,,,,,,,,,,,,,,,,,,,,,,,,,,,,,418.9504747000756,419.95273810008075,419.91953700000886,420.49441140005365,420.49441140005365,None,422.45020359999035,None,left,0.3740917999530211,422.45020359999035,None,422.85661170003004,None,left,0.25632889999542385,422.85661170003004,None,,,,,,,,,,,,,,,,,,,,,,,PPT43,001,2022-07-08_10h00.24.019,ABstudy,2022.1.4,59.97807204539598,
AB,Lag5_T1P_T2A,5,P,A,6,11,5,3,14,Balcony,Did you see the Balcony?,0.12,0.016,JPG\,tomato01,pen04b,shirt02,carrot01,lamp04a,balcony02,pizza,avocado01,sewingmachine01a,apple07,iron01b,book01b,chain01,sock01a,blankImage,blankImage,blankImage,balcony02,,,,,,,,,,,,0,59,59,207,,,,,,,,,,,,,,,,,,,,,,,,,,,,,,,,,,,423.13934260001406,424.1402388000861,424.12351300008595,424.6963807999855,424.6963807999855,None,426.5249441000633,None,left,0.4442952999379486,426.5249441000633,None,426.99335840006825,None,right,0.36770900001283735,426.99335840006825,None,,,,,,,,,,,,,,,,,,,,,,,PPT43,001,2022-07-08_10h00.24.019,ABstudy,2022.1.4,59.97807204539598,
AB,Lag1_T1P_T2P,1,P,P,8,9,7,3,12,cactus,Did you see the cactus?,0.12,0.016,JPG\,tennisball01b,paintbrush01,medal02b,apple07,speaker04,iron01b,avocado01,cactus,stapler03b,toiletpaper01a,watermelon01,candle01,blankImage,blankImage,blankImage,blankImage,blankImage,cactus,,,,,,,,,,,,0,60,60,58,,,,,,,,,,,,,,,,,,,,,,,,,,,,,,,,,,,427.40885010000784,428.411706599989,428.37850200000685,428.9524619000731,428.9524619000731,None,430.43415790004656,None,left,0.8151453000027686,430.43415790004656,None,431.281004199991,None,left,0.17638709989842027,431.281004199991,None,,,,,,,,,,,,,,,,,,,,,,,PPT43,001,2022-07-08_10h00.24.019,ABstudy,2022.1.4,59.97807204539598,
AB,Lag1_T1P_T2A,1,P,A,6,7,5,5,12,foot,Did you see the foot?,0.12,0.016,JPG\,watermelon01,cigarette,weight04a,cymbal,cauliflower01,foot,cherry01,broom01,battery02b,key01,baseball01a,iron01b,blankImage,blankImage,blankImage,blankImage,blankImage,foot,,,,,,,,,,,,0,61,61,188,,,,,,,,,,,,,,,,,,,,,,,,,,,,,,,,,,,431.483885499998,432.49901600007433,432.46562600007746,433.0652278000489,433.0652278000489,None,434.5511417000089,None,left,0.6738959000213072,434.5511417000089,None,435.2514947000891,None,right,0.29330310004297644,435.2514947000891,None,,,,,,,,,,,,,,,,,,,,,,,PPT43,001,2022-07-08_10h00.24.019,ABstudy,2022.1.4,59.97807204539598,
AB,Lag5_T1P_T2P,5,P,P,5,10,4,5,15,penguin,Did you see the penguin?,0.12,0.016,JPG\,watermelon01,cigarette,pintofbeer,cymbal,penguin,feather03a,cherry01,broom01,battery02b,stapler05,baseball01a,iron01b,garlic01a,computerkeyboard02,pig,blankImage,blankImage,penguin,,,,,,,,,,,,0,62,62,137,,,,,,,,,,,,,,,,,,,,,,,,,,,,,,,,,,,435.57140340004116,436.58642040006816,436.55307420005556,437.1402687000809,437.1402687000809,None,438.892811800004,None,left,0.4292091999668628,438.892811800004,None,439.33904310001526,None,left,0.16600820003077388,439.33904310001526,None,,,,,,,,,,,,,,,,,,,,,,,PPT43,001,2022-07-08_10h00.24.019,ABstudy,2022.1.4,59.97807204539598,
AB,Lag5_T1P_T2P,5,P,P,5,10,4,5,15,ear,Did you see the ear?,0.12,0.016,JPG\,fork03c,plate01b,toiletpaper01a,greenolive,ear,blueberry01,onion,calculator01,envelope03a,stapler06,book01b,pencil01,sewingmachine01a,brick,watermelon01,blankImage,blankImage,ear,,,,,,,,,,,,0,63,63,107,,,,,,,,,,,,,,,,,,,,,,,,,,,,,,,,,,,439.5228492000606,440.5237133000046,440.5070405000588,441.0737479000818,441.0737479000818,None,442.9512060000561,None,left,1.129863700014539,442.9512060000561,None,444.11033950001,None,left,0.09959549992345273,444.11033950001,None,,,,,,,,,,,,,,,,,,,,,,,PPT43,001,2022-07-08_10h00.24.019,ABstudy,2022.1.4,59.97807204539598,
AB,Lag5_T1A_T2P,5,A,P,8,13,7,4,17,wrench,Did you see the wrench?,0.12,0.016,JPG\,clock01a,grape01,plate01b,key01,screwdriver04b,feather03a,pineapple01a,iron01b,toothbrush03b,comb02a,broom01,toaster01,stapler05,garlic01a,match,ashtray01,blankImage,seal,,,,,,,,,,,,0,64,64,272,,,,,,,,,,,,,,,,,,,,,,,,,,,,,,,,,,,444.22936019999906,445.24480960005894,445.2115269000642,445.80758720007725,445.80758720007725,None,447.788325700094,None,right,0.9243619999615476,447.788325700094,None,448.73185360000934,None,left,0.34104019997175783,448.73185360000934,None,,,,,,,,,,,,,,,,,,,,,,,PPT43,001,2022-07-08_10h00.24.019,ABstudy,2022.1.4,59.97807204539598,
AB,Lag1_T1A_T2P,1,A,P,5,6,4,5,11,rake,Did you see the rake?,0.12,0.016,JPG\,candy,brownsugar,dice05a,cd,sock01a,stapler01,button01,potato02b,feather03a,grape01,dandelion,blankImage,blankImage,blankImage,blankImage,blankImage,blankImage,greatwhiteshark,,,,,,,,,,,,0,65,65,256,,,,,,,,,,,,,,,,,,,,,,,,,,,,,,,,,,,449.10461789998226,450.11645890004,450.09985350002535,450.6790032000281,450.6790032000281,None,451.94070500007365,None,right,1.0679350000573322,451.94070500007365,None,453.03616600006353,None,left,0.27658349997363985,453.03616600006353,None,,,,,,,,,,,,,,,,,,,,,,,PPT43,001,2022-07-08_10h00.24.019,ABstudy,2022.1.4,59.97807204539598,
AB,Lag1_T1A_T2P,1,A,P,5,6,4,3,9,microphone,Did you see the microphone?,0.12,0.016,JPG\,hammer01,sponge01,toaster01,cherry01,feather03a,stapler06,measuringcup01,pencil01,tennisball01b,blankImage,blankImage,blankImage,blankImage,blankImage,blankImage,blankImage,blankImage,cactus,,,,,,,,,,,,0,66,66,230,,,,,,,,,,,,,,,,,,,,,,,,,,,,,,,,,,,453.3433270000387,454.3542272000341,454.337499700021,454.9278172000777,454.9278172000777,None,456.0667214000132,None,right,1.4617007999913767,456.0667214000132,None,457.557209599996,None,right,0.6437761000124738,457.557209599996,None,,,,,,,,,,,,,,,,,,,,,,,PPT43,001,2022-07-08_10h00.24.019,ABstudy,2022.1.4,59.97807204539598,
AB,Lag1_T1P_T2P,1,P,P,6,7,5,3,10,fortune cookie,Did you see the fortune cookie?,0.12,0.016,JPG\,scissors01,grape01,mushroom01,toiletpaper01a,greenolive,fortunecookie,stapler03b,ashtray01,carrot01,pineapple01a,blankImage,blankImage,blankImage,blankImage,blankImage,blankImage,blankImage,fortunecookie,,,,,,,,,,,,0,67,67,42,,,,,,,,,,,,,,,,,,,,,,,,,,,,,,,,,,,458.22716060001403,459.24216900009196,459.2089697000338,459.77229800005443,459.77229800005443,None,461.0024506000336,None,left,0.5825741000007838,461.0024506000336,None,461.6107819000026,None,right,0.2709599999943748,461.6107819000026,None,,,,,,,,,,,,,,,,,,,,,,,PPT43,001,2022-07-08_10h00.24.019,ABstudy,2022.1.4,59.97807204539598,
AB,Lag1_T1P_T2P,1,P,P,5,6,4,5,11,shark,Did you see the shark?,0.12,0.016,JPG\,cucumber,sponge01,alligator,pear01,greatwhiteshark,stapler06,clock04,battery02b,fork03c,binoculars01b,mushroom01,blankImage,blankImage,blankImage,blankImage,blankImage,blankImage,greatwhiteshark,,,,,,,,,,,,0,68,68,84,,,,,,,,,,,,,,,,,,,,,,,,,,,,,,,,,,,461.91622920008376,462.92890960001387,462.9121770000784,463.49199540005066,463.49199540005066,None,464.8382816000376,None,left,0.3717445000074804,464.8382816000376,None,465.2314441000344,None,left,0.2336137000238523,465.2314441000344,None,,,,,,,,,,,,,,,,,,,,,,,PPT43,001,2022-07-08_10h00.24.019,ABstudy,2022.1.4,59.97807204539598,
AB,Lag1_T1P_T2P,1,P,P,6,7,5,5,12,owl,Did you see the owl?,0.12,0.016,JPG\,paintbrush01,eraser,medal02b,hammer01,speaker04,greathornowl,stapler01,comb02a,plate01b,clock01a,button01,globe,blankImage,blankImage,blankImage,blankImage,blankImage,greathornowl,,,,,,,,,,,,0,69,69,1,,,,,,,,,,,,,,,,,,,,,,,,,,,,,,,,,,,465.4972640000051,466.4993199000601,466.46598019998055,467.0390473000007,467.0390473000007,None,468.53024009999353,None,left,0.6399990000063553,468.53024009999353,None,469.2022074999986,None,right,0.262001600000076,469.2022074999986,None,,,,,,,,,,,,,,,,,,,,,,,PPT43,001,2022-07-08_10h00.24.019,ABstudy,2022.1.4,59.97807204539598,
AB,Lag1_T1P_T2P,1,P,P,6,7,5,4,11,Bow,Did you see the Bow?,0.12,0.016,JPG\,broom01,plate01b,scissors01,garlic01a,paintbrush01,bow,stapler03a,shirt02,speaker04,celery,sandal,blankImage,blankImage,blankImage,blankImage,blankImage,blankImage,bow,,,,,,,,,,,,0,70,70,53,,,,,,,,,,,,,,,,,,,,,,,,,,,,,,,,,,,469.49035069998354,470.5035441000946,470.48694020009134,471.05549980001524,471.05549980001524,None,472.4412434999831,None,left,0.9351447999943048,472.4412434999831,None,473.40623670001514,None,left,0.2990352000342682,473.40623670001514,None,,,,,,,,,,,,,,,,,,,,,,,PPT43,001,2022-07-08_10h00.24.019,ABstudy,2022.1.4,59.97807204539598,
AB,Lag5_T1P_T2P,5,P,P,5,10,4,5,15,Ipad,Did you see the Ipad?,0.12,0.016,JPG\,fork03c,toothbrush03b,cellphone,fan,ipad02,clock01a,ring01,eraser,sunglasses04,stapler06,violin,brownsugar,blueberry01,pear01,pencil01,blankImage,blankImage,ipad02,,,,,,,,,,,,0,71,71,150,,,,,,,,,,,,,,,,,,,,,,,,,,,,,,,,,,,473.7288087999914,474.74135870009195,474.724738500081,475.3123194000218,475.3123194000218,None,477.1022777000908,None,left,0.3702313000103459,477.1022777000908,None,477.49441090004984,None,left,0.1940802000463009,477.49441090004984,None,,,,,,,,,,,,,,,,,,,,,,,PPT43,001,2022-07-08_10h00.24.019,ABstudy,2022.1.4,59.97807204539598,
AB,Lag5_T1A_T2P,5,A,P,6,11,5,4,15,fish,Did you see the fish?,0.12,0.016,JPG\,pingpongpaddle01c,banana01,scissors01,pig,shirt02,leaf02a,pear01,sponge01,fork03c,tableknife02,stapler03a,match,toothbrush03b,birthdaycandle,candle01,blankImage,blankImage,lighthouse,,,,,,,,,,,,0,72,72,265,,,,,,,,,,,,,,,,,,,,,,,,,,,,,,,,,,,477.71423040004447,478.72822910000104,478.6952832000097,479.3054882000433,479.3054882000433,None,481.1121112999972,None,right,0.4643340000184253,481.1121112999972,None,481.5974154000869,None,left,0.27582529990468174,481.5974154000869,None,,,,,,,,,,,,,,,,,,,,,,,PPT43,001,2022-07-08_10h00.24.019,ABstudy,2022.1.4,59.97807204539598,
AB,Lag5_T1A_T2P,5,A,P,8,13,7,3,16,ladder,Did you see the ladder?,0.12,0.016,JPG\,apple07,toiletpaper01a,pizza,dandelion,greenolive,eraser,microscope,violin,orange,lipstick02a,balloon01b,sandal,stapler01,fan,book01b,sewingmachine01a,blankImage,ostrich,,,,,,,,,,,,0,73,73,269,,,,,,,,,,,,,,,,,,,,,,,,,,,,,,,,,,,481.96009990002494,482.96632120001595,482.9495752999792,483.5443610000657,483.5443610000657,None,485.41536900005303,None,right,0.9218955999240279,485.41536900005303,None,486.36929990001954,None,left,0.26406840002164245,486.36929990001954,None,,,,,,,,,,,,,,,,,,,,,,,PPT43,001,2022-07-08_10h00.24.019,ABstudy,2022.1.4,59.97807204539598,
AB,Lag1_T1P_T2P,1,P,P,6,7,5,3,10,spider web,Did you see the spider web?,0.12,0.016,JPG\,toaster01,chain01,sponge01,baseball01a,carrot01,spiderweb,stapler03b,iron01b,grape01,brick,blankImage,blankImage,blankImage,blankImage,blankImage,blankImage,blankImage,spiderweb,,,,,,,,,,,,0,74,74,72,,,,,,,,,,,,,,,,,,,,,,,,,,,,,,,,,,,486.6596386000747,487.6705879000947,487.65390170004684,488.2557173999958,488.2557173999958,None,489.49809980008285,None,left,0.49462260003201663,489.49809980008285,None,490.02308110008016,None,left,0.21771369990892708,490.02308110008016,None,,,,,,,,,,,,,,,,,,,,,,,PPT43,001,2022-07-08_10h00.24.019,ABstudy,2022.1.4,59.97807204539598,
AB,Lag1_T1P_T2A,1,P,A,5,6,4,5,11,Sailboat,Did you see the Sailboat?,0.12,0.016,JPG\,chain01,speaker04,avocado01,watermelon01,sailboat,comb02a,lamp04a,fork03c,toaster01,slipper03b,scissors01,blankImage,blankImage,blankImage,blankImage,blankImage,blankImage,sailboat,,,,,,,,,,,,0,75,75,193,,,,,,,,,,,,,,,,,,,,,,,,,,,,,,,,,,,490.2796314000152,491.2909849000862,491.27427739999257,491.8621046000626,491.8621046000626,None,493.1795921000885,None,left,0.6205893999431282,493.1795921000885,None,493.82671579997987,None,left,0.5578700999030843,493.82671579997987,None,,,,,,,,,,,,,,,,,,,,,,,PPT43,001,2022-07-08_10h00.24.019,ABstudy,2022.1.4,59.97807204539598,
AB,Lag5_T1P_T2P,5,P,P,7,12,6,4,16,Wolf,Did you see the Wolf?,0.12,0.016,JPG\,brick,eraser,cucumber,ashtray01,thermometer02b,binoculars01b,greywolf,screwdriver04b,grape01,brownsugar,battery02b,stapler03b,dice05a,avocado01,birthdaycandle,watch02a,blankImage,greywolf,,,,,,,,,,,,0,76,76,89,,,,,,,,,,,,,,,,,,,,,,,,,,,,,,,,,,,494.4134597000666,495.42829210008495,495.3949795999797,496.0045463000424,496.0045463000424,None,498.01118440006394,None,left,0.3100631999550387,498.01118440006394,None,498.34790190006606,None,left,0.2282765000127256,498.34790190006606,None,,,,,,,,,,,,,,,,,,,,,,,PPT43,001,2022-07-08_10h00.24.019,ABstudy,2022.1.4,59.97807204539598,
AB,Lag5_T1P_T2A,5,P,A,6,11,5,4,15,Spear,Did you see the Spear?,0.12,0.016,JPG\,belt02a,measuringcup01,spoon01,chain01,greenolive,spear02,computerkeyboard02,onion,fan,strawberry,candle01,broom01,binoculars01b,ashtray01,pingpongpaddle01c,blankImage,blankImage,spear02,,,,,,,,,,,,0,77,77,227,,,,,,,,,,,,,,,,,,,,,,,,,,,,,,,,,,,498.59945139999036,499.5990991999861,499.582365600043,500.1648964000633,500.1648964000633,None,501.9956366000697,None,right,0.9244734999956563,501.9956366000697,None,502.9526114000473,None,left,0.21550649998243898,502.9526114000473,None,,,,,,,,,,,,,,,,,,,,,,,PPT43,001,2022-07-08_10h00.24.019,ABstudy,2022.1.4,59.97807204539598,
AB,Lag5_T1P_T2A,5,P,A,8,13,7,4,17,Tarantula,Did you see the Tarantula?,0.12,0.016,JPG\,binoculars01b,speaker04,sandal,envelope03a,plate01b,comb02a,battery02b,tarantula,measuringcup01,key01,medal02b,lamp04a,tennisball01b,pizza,cigarette,sunglasses04,blankImage,tarantula,,,,,,,,,,,,0,78,78,201,,,,,,,,,,,,,,,,,,,,,,,,,,,,,,,,,,,503.19325550005306,504.20363870006986,504.1870953000616,504.76453769998625,504.76453769998625,None,506.68790790007915,None,left,0.8328789999941364,506.68790790007915,None,507.5407776000211,None,right,0.2844991000602022,507.5407776000211,None,,,,,,,,,,,,,,,,,,,,,,,PPT43,001,2022-07-08_10h00.24.019,ABstudy,2022.1.4,59.97807204539598,
AB,Lag5_T1P_T2P,5,P,P,5,10,4,3,13,lollipop,Did you see the lollipop?,0.12,0.016,JPG\,brownsugar,candle01,match,printer02,lollipop04,balloon01b,belt02a,potato02b,computerkeyboard02,stapler03a,rice,mushroom01,pencil01,blankImage,blankImage,blankImage,blankImage,lollipop04,,,,,,,,,,,,0,79,79,112,,,,,,,,,,,,,,,,,,,,,,,,,,,,,,,,,,,507.86289690004196,508.87543480005115,508.8584084000904,509.3604948000284,509.3604948000284,None,511.04031080007553,None,left,0.5047107998980209,511.04031080007553,None,511.5784720000811,None,right,0.28639849997125566,511.5784720000811,None,,,,,,,,,,,,,,,,,,,,,,,PPT43,001,2022-07-08_10h00.24.019,ABstudy,2022.1.4,59.97807204539598,
AB,Lag1_T1P_T2P,1,P,P,7,8,6,4,12,rooster,Did you see the rooster?,0.12,0.016,JPG\,pizza,strawberry,potato02b,speaker04,battery02b,iron01b,rooster,stapler03b,globe,banana01,medal02b,baseball01a,blankImage,blankImage,blankImage,blankImage,blankImage,rooster,,,,,,,,,,,,0,80,80,69,,,,,,,,,,,,,,,,,,,,,,,,,,,,,,,,,,,511.92815050005447,512.9290966000408,512.9124474000419,513.5107596000889,513.5107596000889,None,514.9093932000687,None,left,1.3156140999635682,514.9093932000687,None,516.2500926000066,None,left,0.5341754999244586,516.2500926000066,None,,,,,,,,,,,,,,,,,,,,,,,PPT43,001,2022-07-08_10h00.24.019,ABstudy,2022.1.4,59.97807204539598,
AB,Lag5_T1A_T2A,5,A,A,5,10,4,5,15,flower,Did you see the flower?,0.12,0.016,JPG\,clock01a,cellphone,toaster01,toothbrush03b,cauliflower01,microscope,comb02a,paintbrush01,scarf,clock04,sponge01,iron01b,watch02a,celery,ring01,blankImage,blankImage,stepladder,,,,,,,,,,,,0,81,81,303,,,,,,,,,,,,,,,,,,,,,,,,,,,,,,,,,,,516.8249283999903,517.8337459000759,517.8171130000846,518.4054811000824,518.4054811000824,None,520.2435255000601,None,right,0.9008581000380218,520.2435255000601,None,521.1704020000761,None,left,0.3737855999497697,521.1704020000761,None,,,,,,,,,,,,,,,,,,,,,,,PPT43,001,2022-07-08_10h00.24.019,ABstudy,2022.1.4,59.97807204539598,
AB,Lag1_T1P_T2P,1,P,P,7,8,6,3,11,trampoline,Did you see the trampoline?,0.12,0.016,JPG\,dice05a,watch02a,pig,lighter01,button01,strawberry,trampoline,stapler03a,plate01b,pen04b,feather03a,blankImage,blankImage,blankImage,blankImage,blankImage,blankImage,trampoline,,,,,,,,,,,,0,82,82,73,,,,,,,,,,,,,,,,,,,,,,,,,,,,,,,,,,,521.6277326000854,522.6405664000195,522.6236707000062,523.2826992000919,523.2117374000372,None,524.5147039000876,None,left,0.511246099951677,524.5147039000876,None,525.057834199979,None,left,0.1904834999004379,525.057834199979,None,,,,,,,,,,,,,,,,,,,,,,,PPT43,001,2022-07-08_10h00.24.019,ABstudy,2022.1.4,59.97807204539598,
AB,Lag5_T1P_T2P,5,P,P,5,10,4,4,14,License Plate,Did you see the License Plate?,0.12,0.016,JPG\,toaster01,chain01,sponge01,baseball01a,licenseplate,belt02a,book01b,iron01b,grape01,stapler06,celery,onion,mushroom01,toothbrush03b,blankImage,blankImage,blankImage,licenseplate,,,,,,,,,,,,0,83,83,120,,,,,,,,,,,,,,,,,,,,,,,,,,,,,,,,,,,525.2855541000608,526.2923851000378,526.2756789000705,526.868918000022,526.868918000022,None,528.6416947999969,None,left,0.3108545000432059,528.6416947999969,None,528.9783422000473,None,left,0.19032639998476952,528.9783422000473,None,,,,,,,,,,,,,,,,,,,,,,,PPT43,001,2022-07-08_10h00.24.019,ABstudy,2022.1.4,59.97807204539598,
AB,Lag1_T1A_T2A,1,A,A,6,7,5,5,12,Safe,Did you see the Safe?,0.12,0.016,JPG\,hammer01,sponge01,toaster01,cherry01,feather03a,mushroom01,measuringcup01,pencil01,tennisball01b,brick,clock04,medal02b,blankImage,blankImage,blankImage,blankImage,blankImage,downhillski,,,,,,,,,,,,0,84,84,294,,,,,,,,,,,,,,,,,,,,,,,,,,,,,,,,,,,529.2006005999865,530.2132653000299,530.1965767000802,530.7704325000523,530.7704325000523,None,532.2356921000173,None,right,0.7483366000233218,532.2356921000173,None,533.0155076000374,None,left,0.17771620000712574,533.0155076000374,None,,,,,,,,,,,,,,,,,,,,,,,PPT43,001,2022-07-08_10h00.24.019,ABstudy,2022.1.4,59.97807204539598,
AB,Lag5_T1P_T2P,5,P,P,8,13,7,4,17,trumpet,Did you see the trumpet?,0.12,0.016,JPG\,toaster01,scarf,toiletpaper01a,calculator01,violin,sewingmachine01a,fan,trumpet,strawberry,balloon01b,brownsugar,eraser,stapler01,rice,ring01,shirt02,blankImage,trumpet,,,,,,,,,,,,0,85,85,145,,,,,,,,,,,,,,,,,,,,,,,,,,,,,,,,,,,533.2179554000031,534.2333800999913,534.2000286000548,534.7837484000484,534.7837484000484,None,536.777491100016,None,left,0.09448880003765225,536.777491100016,None,536.902892800048,None,left,0.1694308000151068,536.902892800048,None,,,,,,,,,,,,,,,,,,,,,,,PPT43,001,2022-07-08_10h00.24.019,ABstudy,2022.1.4,59.97807204539598,
AB,Lag1_T1P_T2P,1,P,P,5,6,4,3,9,hockey stick,Did you see the hockey stick?,0.12,0.016,JPG\,violin,pizza,toothbrush03b,pineapple01a,hockeystick,stapler03b,candy,dandelion,clock04,blankImage,blankImage,blankImage,blankImage,blankImage,blankImage,blankImage,blankImage,hockeystick,,,,,,,,,,,,0,86,86,63,,,,,,,,,,,,,,,,,,,,,,,,,,,,,,,,,,,537.1052579000825,538.1207680000225,538.0874535000185,538.6526642000536,538.6526642000536,None,539.765744100092,None,left,1.498974300106056,539.765744100092,None,541.2904655000893,None,left,0.3029439999954775,541.2904655000893,None,,,,,,,,,,,,,,,,,,,,,,,PPT43,001,2022-07-08_10h00.24.019,ABstudy,2022.1.4,59.97807204539598,
AB,Lag1_T1A_T2A,1,A,A,8,9,7,4,13,Recycling bin,Did you see the Recycling bin?,0.12,0.016,JPG\,brick,plate01b,pen04b,toaster01,screwdriver04b,candle01,envelope03a,feather03a,pig,ring01,orange,clock01a,lighter01,blankImage,blankImage,blankImage,blankImage,bumpercar,,,,,,,,,,,,0,87,87,292,,,,,,,,,,,,,,,,,,,,,,,,,,,,,,,,,,,541.6278691000771,542.6418257000623,542.6251216999954,543.2109305000631,543.2109305000631,None,544.7955534000648,None,left,0.805259499931708,544.7955534000648,None,545.6284081999911,None,right,0.6452184000518173,545.6284081999911,None,,,,,,,,,,,,,,,,,,,,,,,PPT43,001,2022-07-08_10h00.24.019,ABstudy,2022.1.4,59.97807204539598,
AB,Lag5_T1A_T2P,5,A,P,7,12,6,5,17,Rollerblade,Did you see the Rollerblade?,0.12,0.016,JPG\,binoculars01b,cymbal,pizza,candy,paintbrush01,sponge01,grape01,thermometer02b,speaker04,lemon02,lipstick02a,stapler03b,candle01,8ball,plate01b,pen04b,blankImage,lion,,,,,,,,,,,,0,88,88,266,,,,,,,,,,,,,,,,,,,,,,,,,,,,,,,,,,,546.299047700013,547.313138000085,547.2964554000646,547.8955475999974,547.8955475999974,None,549.7797687000129,None,right,0.48445800004992634,549.7797687000129,None,550.2828532999847,None,left,0.2531919999746606,550.2828532999847,None,,,,,,,,,,,,,,,,,,,,,,,PPT43,001,2022-07-08_10h00.24.019,ABstudy,2022.1.4,59.97807204539598,
AB,Lag1_T1P_T2P,1,P,P,6,7,5,5,12,snowman,Did you see the snowman?,0.12,0.016,JPG\,comb02a,watch02a,scissors01,dice05a,tableknife02,snowman,stapler03a,printer02,dandelion,spoon01,ashtray01,battery02b,blankImage,blankImage,blankImage,blankImage,blankImage,snowman,,,,,,,,,,,,0,89,89,4,,,,,,,,,,,,,,,,,,,,,,,,,,,,,,,,,,,550.5716601000167,551.5843393000541,551.5675135999918,552.1531709000701,552.1531709000701,None,553.6371046000859,None,left,0.7632304000435397,553.6371046000859,None,554.4201832000399,None,right,0.27621050004381686,554.4201832000399,None,,,,,,,,,,,,,,,,,,,,,,,PPT43,001,2022-07-08_10h00.24.019,ABstudy,2022.1.4,59.97807204539598,
AB,Lag1_T1P_T2P,1,P,P,8,9,7,4,13,dart board,Did you see the dart board?,0.12,0.016,JPG\,rice,watermelon01,tableknife02,scarf,computerkeyboard02,cauliflower01,battery02b,dartboard,stapler01,sandal,sponge01,microscope,tomato01,blankImage,blankImage,blankImage,blankImage,dartboard,,,,,,,,,,,,0,90,90,80,,,,,,,,,,,,,,,,,,,,,,,,,,,,,,,,,,,554.7227671000874,555.7381408000365,555.7047896999866,556.2753674000269,556.2753674000269,None,557.9260170999914,None,left,0.8099313999991864,557.9260170999914,None,558.7580756000243,None,left,0.5299645999912173,558.7580756000243,None,,,,,,,,,,,,,,,,,,,,,,,PPT43,001,2022-07-08_10h00.24.019,ABstudy,2022.1.4,59.97807204539598,
AB,Lag5_T1P_T2P,5,P,P,6,11,5,4,15,shower,Did you see the shower?,0.12,0.016,JPG\,dice05a,watch02a,pig,lighter01,button01,shower,paintbrush01,microscope,plate01b,pen04b,stapler05,weight04a,carrot01,shirt02,globe,blankImage,blankImage,shower,,,,,,,,,,,,0,91,91,121,,,,,,,,,,,,,,,,,,,,,,,,,,,,,,,,,,,559.3133088999894,560.3258639000123,560.3091808999889,560.8826178000309,560.8826178000309,None,562.7284111999907,None,right,0.3845572000136599,562.7284111999907,None,563.1454939000541,None,left,0.295539400074631,563.1454939000541,None,,,,,,,,,,,,,,,,,,,,,,,PPT43,001,2022-07-08_10h00.24.019,ABstudy,2022.1.4,59.97807204539598,
AB,Lag1_T1P_T2A,1,P,A,7,8,6,4,12,bird,Did you see the bird?,0.12,0.016,JPG\,speaker04,sewingmachine01a,eraser,violin,globe,belt02a,tern,cymbal,cd,greenolive,alligator,pear01,blankImage,blankImage,blankImage,blankImage,blankImage,tern,,,,,,,,,,,,0,92,92,177,,,,,,,,,,,,,,,,,,,,,,,,,,,,,,,,,,,563.464896599995,564.4803611000534,564.4469596000854,565.0480872000335,565.0480872000335,None,566.5196613000007,None,left,0.54495960008353,566.5196613000007,None,567.0830146999797,None,right,0.1976198999909684,567.0830146999797,None,,,,,,,,,,,,,,,,,,,,,,,PPT43,001,2022-07-08_10h00.24.019,ABstudy,2022.1.4,59.97807204539598,
AB,Lag5_T1A_T2P,5,A,P,5,10,4,5,15,parachute,Did you see the parachute?,0.12,0.016,JPG\,binoculars01b,speaker04,sandal,envelope03a,plate01b,comb02a,battery02b,chain01,measuringcup01,stapler03b,medal02b,lamp04a,tennisball01b,pizza,cigarette,blankImage,blankImage,knee,,,,,,,,,,,,0,93,93,264,,,,,,,,,,,,,,,,,,,,,,,,,,,,,,,,,,,567.3059236999834,568.3175643000286,568.3007958000526,568.8733731000684,568.8733731000684,None,570.7153055000817,None,right,0.4862577999010682,570.7153055000817,None,571.2217489000177,None,left,0.30673359998036176,571.2217489000177,None,,,,,,,,,,,,,,,,,,,,,,,PPT43,001,2022-07-08_10h00.24.019,ABstudy,2022.1.4,59.97807204539598,
AB,Lag5_T1P_T2P,5,P,P,6,11,5,4,15,Witch hat,Did you see the Witch hat?,0.12,0.016,JPG\,pizza,watch02a,greenolive,cucumber,match,witchhat,scissors01,broom01,globe,cherry01,stapler03a,cigarette,microscope,cellphone,speaker04,blankImage,blankImage,witchhat,,,,,,,,,,,,0,94,94,101,,,,,,,,,,,,,,,,,,,,,,,,,,,,,,,,,,,571.5642636000412,572.5715655999957,572.5549318999983,573.142274599988,573.142274599988,None,574.9581797000719,None,left,0.33840259991120547,574.9581797000719,None,575.3245256000664,None,left,0.14794179995078593,575.3245256000664,None,,,,,,,,,,,,,,,,,,,,,,,PPT43,001,2022-07-08_10h00.24.019,ABstudy,2022.1.4,59.97807204539598,
AB,Lag5_T1P_T2P,5,P,P,6,11,5,4,15,fish,Did you see the fish?,0.12,0.016,JPG\,sock01a,spoon01,alligator,comb02a,printer02,rockbass,lamp04a,cymbal,greenolive,computerkeyboard02,stapler03a,scarf,teabag,watermelon01,battery02b,blankImage,blankImage,rockbass,,,,,,,,,,,,0,95,95,115,,,,,,,,,,,,,,,,,,,,,,,,,,,,,,,,,,,575.4948276000796,576.5088505999884,576.4755502000917,577.0606771000894,577.0606771000894,None,578.9202882000245,None,left,0.4477601000107825,578.9202882000245,None,579.3950548000867,None,right,0.22925480001140386,579.3950548000867,None,,,,,,,,,,,,,,,,,,,,,,,PPT43,001,2022-07-08_10h00.24.019,ABstudy,2022.1.4,59.97807204539598,
AB,Lag5_T1P_T2P,5,P,P,6,11,5,5,16,Car,Did you see the Car?,0.12,0.016,JPG\,leaf02a,apple07,cd,pineapple01a,envelope03a,car,pig,canoftennisballs,rice,feather03a,stapler03a,balloon01b,avocado01,calculator01,watermelon01,teabag,blankImage,car,,,,,,,,,,,,0,96,96,127,,,,,,,,,,,,,,,,,,,,,,,,,,,,,,,,,,,579.6470596999861,580.6465129000135,580.6297632000642,581.2378165000118,581.2378165000118,None,583.2587676000549,None,left,0.013983599958010018,583.2587676000549,None,583.2992094000801,None,left,0.18108669994398952,583.2992094000801,None,,,,,,,,,,,,,,,,,,,,,,,PPT43,001,2022-07-08_10h00.24.019,ABstudy,2022.1.4,59.97807204539598,
AB,Lag1_T1P_T2P,1,P,P,6,7,5,4,11,American football,Did you see the American football?,0.12,0.016,JPG\,toaster01,garlic01a,faucet,fan,comb02a,football,stapler06,watch02a,onion,blueberry01,toiletpaper01a,blankImage,blankImage,blankImage,blankImage,blankImage,blankImage,football,,,,,,,,,,,,0,97,97,12,,,,,,,,,,,,,,,,,,,,,,,,,,,,,,,,,,,583.5072533000493,584.5168018999975,584.5001309000654,585.0896749000531,585.0896749000531,None,586.4328037999803,None,left,0.24097650009207428,586.4328037999803,None,586.7021028000163,None,left,0.16174630005843937,586.7021028000163,None,,,,,,,,,,,,,,,,,,,,,,,PPT43,001,2022-07-08_10h00.24.019,ABstudy,2022.1.4,59.97807204539598,
AB,Lag5_T1A_T2P,5,A,P,6,11,5,5,16,baseball bat,Did you see the baseball bat?,0.12,0.016,JPG\,avocado01,aceofdiamond,match,cauliflower01,paintbrush01,clock01a,pig,cd,balloon01b,cellphone,stapler01,pear01,toaster01,sponge01,orange,blueberry01,blankImage,stool01,,,,,,,,,,,,0,98,98,273,,,,,,,,,,,,,,,,,,,,,,,,,,,,,,,,,,,586.8961625000229,587.9041600000346,587.8873725000303,588.5000747999875,588.5000747999875,None,590.4671392000746,None,left,0.12488640006631613,590.4671392000746,None,590.6235271000769,None,left,1.3459478999720886,590.6235271000769,None,,,,,,,,,,,,,,,,,,,,,,,PPT43,001,2022-07-08_10h00.24.019,ABstudy,2022.1.4,59.97807204539598,
AB,Lag1_T1P_T2P,1,P,P,8,9,7,3,12,Wheelchair,Did you see the Wheelchair?,0.12,0.016,JPG\,cigarette,pig,banana01,strawberry,clock01a,plate01b,spoon01,wheelchair,stapler03b,pineapple01a,chain01,paintbrush01,blankImage,blankImage,blankImage,blankImage,blankImage,wheelchair,,,,,,,,,,,,0,99,99,27,,,,,,,,,,,,,,,,,,,,,,,,,,,,,,,,,,,591.9924901000923,592.9917493000394,592.9751037000678,593.5462753000902,593.5462753000902,None,595.0509513000725,None,left,0.5809184999670833,595.0509513000725,None,595.6620494000381,None,right,0.33027030003722757,595.6620494000381,None,,,,,,,,,,,,,,,,,,,,,,,PPT43,001,2022-07-08_10h00.24.019,ABstudy,2022.1.4,59.97807204539598,
AB,Lag1_T1P_T2A,1,P,A,8,9,7,5,14,Fridge,Did you see the Fridge?,0.12,0.016,JPG\,cherry01,cymbal,envelope03a,foosballtable,shirt02,cellphone,sewingmachine01a,fridge,battery02b,apple07,pencil01,screwdriver04b,strawberry,sunglasses04,blankImage,blankImage,blankImage,fridge,,,,,,,,,,,,0,100,100,173,,,,,,,,,,,,,,,,,,,,,,,,,,,,,,,,,,,596.0231927999994,597.0294468000066,597.0123342000879,597.6263911999995,597.6263911999995,None,599.3307421000209,None,right,0.47052289999555796,599.3307421000209,None,599.832024000003,None,left,0.192402399959974,599.832024000003,None,,,,,,,,,,,,,,,,,,,,,,,PPT43,001,2022-07-08_10h00.24.019,ABstudy,2022.1.4,59.97807204539598,
AB,Lag1_T1P_T2P,1,P,P,8,9,7,4,13,Doughnut,Did you see the Doughnut?,0.12,0.016,JPG\,brick,eraser,cucumber,ashtray01,thermometer02b,binoculars01b,lipstick02a,donut,stapler01,brownsugar,battery02b,iron01b,dice05a,blankImage,blankImage,blankImage,blankImage,donut,,,,,,,,,,,,0,101,101,39,,,,,,,,,,,,,,,,,,,,,,,,,,,,,,,,,,,600.0518496000441,601.0665828000056,601.0332371999975,601.6195601000218,601.6195601000218,None,603.2827520000283,None,left,0.6536581000545993,603.2827520000283,None,603.9530842000386,None,right,0.3201681000646204,603.9530842000386,None,,,,,,,,,,,,,,,,,,,,,,,PPT43,001,2022-07-08_10h00.24.019,ABstudy,2022.1.4,59.97807204539598,
AB,Lag5_T1P_T2P,5,P,P,8,13,7,5,18,popcorn,Did you see the popcorn?,0.12,0.016,JPG\,toaster01,garlic01a,hairclip03,fan,comb02a,apple07,orange,popcorn,onion,blueberry01,toiletpaper01a,fork03c,stapler06,pineapple01a,scarf,eraser,blankImage,popcorn,,,,,,,,,,,,0,102,102,155,,,,,,,,,,,,,,,,,,,,,,,,,,,,,,,,,,,604.3086830000393,605.3211031000828,605.3043835000135,605.8803930000868,605.8803930000868,None,607.7896799000446,None,left,0.14658539998345077,607.7896799000446,None,607.9568249000004,None,left,0.6119884999934584,607.9568249000004,None,,,,,,,,,,,,,,,,,,,,,,,PPT43,001,2022-07-08_10h00.24.019,ABstudy,2022.1.4,59.97807204539598,
AB,Lag1_T1P_T2P,1,P,P,8,9,7,3,12,mail box,Did you see the mail box?,0.12,0.016,JPG\,paintbrush01,dice05a,watermelon01,broccoli01a,hammer01,leaf02a,match,mailbox01,stapler05,fan,lipstick02a,grape01,blankImage,blankImage,blankImage,blankImage,blankImage,mailbox01,,,,,,,,,,,,0,103,103,20,,,,,,,,,,,,,,,,,,,,,,,,,,,,,,,,,,,608.5970453000627,609.608498500078,609.5924416000489,610.1664309999906,610.1664309999906,None,611.670783800073,None,left,0.32178570004180074,611.670783800073,None,612.0124326000223,None,left,0.22797639993950725,612.0124326000223,None,,,,,,,,,,,,,,,,,,,,,,,PPT43,001,2022-07-08_10h00.24.019,ABstudy,2022.1.4,59.97807204539598,
AB,Lag5_T1P_T2P,5,P,P,5,10,4,5,15,rake,Did you see the rake?,0.12,0.016,JPG\,scissors01,grape01,mushroom01,toiletpaper01a,leafrake,pizza,cigarette,ashtray01,carrot01,stapler03b,foosballtable,lipstick02a,teabag,acorn,potato02b,blankImage,blankImage,leafrake,,,,,,,,,,,,0,104,104,92,,,,,,,,,,,,,,,,,,,,,,,,,,,,,,,,,,,612.2722966000438,613.2793246000074,613.2626435999991,613.8468974999851,613.8468974999851,None,615.7083316000644,None,left,0.35559089994058013,615.7083316000644,None,616.081548599992,None,left,0.16625329991802573,616.081548599992,None,,,,,,,,,,,,,,,,,,,,,,,PPT43,001,2022-07-08_10h00.24.019,ABstudy,2022.1.4,59.97807204539598,
AB,Lag1_T1P_T2P,1,P,P,7,8,6,5,13,disco ball,Did you see the disco ball?,0.12,0.016,JPG\,candle01,paintbrush01,scissors01,fan,microscope,toothbrush03b,discoball,stapler03b,teabag,pencil01,lemon02,ashtray01,shirt02,blankImage,blankImage,blankImage,blankImage,discoball,,,,,,,,,,,,0,105,105,60,,,,,,,,,,,,,,,,,,,,,,,,,,,,,,,,,,,616.2678870999953,617.2827119000722,617.2494159000926,617.820015400066,617.820015400066,None,619.4813849000493,None,left,0.6153567000292242,619.4813849000493,None,620.1190960999811,None,left,1.3209563000127673,620.1190960999811,None,,,,,,,,,,,,,,,,,,,,,,,PPT43,001,2022-07-08_10h00.24.019,ABstudy,2022.1.4,59.97807204539598,
AB,Lag5_T1A_T2P,5,A,P,8,13,7,5,18,lollipop,Did you see the lollipop?,0.12,0.016,JPG\,watermelon01,banana01,ring01,pencil01,tomato01,speaker04,cucumber,thermometer02b,key01,foosballtable,violin,spoon01,stapler04b,dice05a,pen04b,mushroom01,blankImage,jeans01,,,,,,,,,,,,0,106,106,262,,,,,,,,,,,,,,,,,,,,,,,,,,,,,,,,,,,621.4755934000714,622.4880873999791,622.4714700999903,623.0494015000295,623.0494015000295,None,624.9679884000216,None,right,0.6409339000238106,624.9679884000216,None,625.6417203000747,None,left,0.262686499976553,625.6417203000747,None,,,,,,,,,,,,,,,,,,,,,,,PPT43,001,2022-07-08_10h00.24.019,ABstudy,2022.1.4,59.97807204539598,
AB,Lag1_T1A_T2P,1,A,P,6,7,5,3,10,Jellyfish,Did you see the Jellyfish?,0.12,0.016,JPG\,thermometer02b,avocado01,scissors01,tennisball01b,medal02b,banana01,stapler01,cigarette,potato02b,pineapple01a,blankImage,blankImage,blankImage,blankImage,blankImage,blankImage,blankImage,firehydrant,,,,,,,,,,,,0,107,107,255,,,,,,,,,,,,,,,,,,,,,,,,,,,,,,,,,,,625.994241300039,627.0094665000215,626.9927776000695,627.5827534000855,627.5827534000855,None,628.7038965000538,None,right,1.056053000036627,628.7038965000538,None,629.7786739000585,None,left,0.2931684999493882,629.7786739000585,None,,,,,,,,,,,,,,,,,,,,,,,PPT43,001,2022-07-08_10h00.24.019,ABstudy,2022.1.4,59.97807204539598,
AB,Lag5_T1A_T2A,5,A,A,5,10,4,5,15,window,Did you see the window?,0.12,0.016,JPG\,leaf02a,apple07,cd,pineapple01a,envelope03a,paintbrush01,pig,canoftennisballs,rice,feather03a,lemon02,balloon01b,avocado01,calculator01,watermelon01,blankImage,blankImage,saxophone,,,,,,,,,,,,0,108,108,301,,,,,,,,,,,,,,,,,,,,,,,,,,,,,,,,,,,630.0966196000809,631.0966706000036,631.0799975000555,631.6554976000916,631.6554976000916,None,633.5471171999816,None,right,0.6295429000165313,633.5471171999816,None,634.199751600041,None,left,0.4089290000265464,634.199751600041,None,,,,,,,,,,,,,,,,,,,,,,,PPT43,001,2022-07-08_10h00.24.019,ABstudy,2022.1.4,59.97807204539598,
AB,Lag1_T1P_T2P,1,P,P,5,6,4,3,9,elephant,Did you see the elephant?,0.12,0.016,JPG\,celery,brownsugar,key01,sunglasses04,arugula,stapler04b,dice05a,tennisball01b,scarf,blankImage,blankImage,blankImage,blankImage,blankImage,blankImage,blankImage,blankImage,arugula,,,,,,,,,,,,0,109,109,54,,,,,,,,,,,,,,,,,,,,,,,,,,,,,,,,,,,634.6399310000706,635.6513102999888,635.6346092000604,636.206712000072,636.206712000072,None,637.33586500003,None,right,0.8974846999626607,637.33586500003,None,638.255011600093,None,left,0.35264529997948557,638.255011600093,None,,,,,,,,,,,,,,,,,,,,,,,PPT43,001,2022-07-08_10h00.24.019,ABstudy,2022.1.4,59.97807204539598,
AB,Lag1_T1P_T2P,1,P,P,8,9,7,3,12,apron,Did you see the apron?,0.12,0.016,JPG\,avocado01,tambourine02,match,cauliflower01,paintbrush01,clock01a,pig,apron,stapler03a,cellphone,watch02a,pear01,blankImage,blankImage,blankImage,blankImage,blankImage,apron,,,,,,,,,,,,0,110,110,32,,,,,,,,,,,,,,,,,,,,,,,,,,,,,,,,,,,638.6467838999815,639.6548026000382,639.6382046000799,640.2174241000321,640.2174241000321,None,641.7121531000594,None,left,1.1922169999452308,641.7121531000594,None,642.9251604999881,None,left,0.20341809990350157,642.9251604999881,None,,,,,,,,,,,,,,,,,,,,,,,PPT43,001,2022-07-08_10h00.24.019,ABstudy,2022.1.4,59.97807204539598,
AB,Lag1_T1P_T2P,1,P,P,6,7,5,5,12,exit sign,Did you see the exit sign?,0.12,0.016,JPG\,printer02,envelope03a,potato02b,calculator01,tableknife02,exitsign,stapler01,pig,broom01,greenolive,candle08b,battery02b,blankImage,blankImage,blankImage,blankImage,blankImage,exitsign,,,,,,,,,,,,0,111,111,41,,,,,,,,,,,,,,,,,,,,,,,,,,,,,,,,,,,643.1648945000488,644.1766885999823,644.1601522000274,644.756546300021,644.756546300021,None,646.2532334000571,None,left,0.3543797000311315,646.2532334000571,None,646.6292991000228,None,left,0.22779300005640835,646.6292991000228,None,,,,,,,,,,,,,,,,,,,,,,,PPT43,001,2022-07-08_10h00.24.019,ABstudy,2022.1.4,59.97807204539598,
AB,Lag1_T1A_T2P,1,A,P,8,9,7,5,14,Wolf,Did you see the Wolf?,0.12,0.016,JPG\,carrot01,watch02a,clock04,microscope,toiletpaper01a,potato02b,alligator,ring01,stapler03b,watermelon01,cd,pencil01,measuringcup01,balloon01b,blankImage,blankImage,blankImage,dreamcatcher,,,,,,,,,,,,0,112,112,253,,,,,,,,,,,,,,,,,,,,,,,,,,,,,,,,,,,646.8823128000367,647.8970811000327,647.8637067000382,648.4461894000415,648.4461894000415,None,650.2530919000274,None,right,0.25076299998909235,650.2530919000274,None,650.5327831000322,None,right,0.6755409999750555,650.5327831000322,None,,,,,,,,,,,,,,,,,,,,,,,PPT43,001,2022-07-08_10h00.24.019,ABstudy,2022.1.4,59.97807204539598,
AB,Lag5_T1P_T2P,5,P,P,8,13,7,5,18,spice rack,Did you see the spice rack?,0.12,0.016,JPG\,lamp04a,broccoli01a,alligator,garlic01a,dandelion,brownsugar,avocado01,spicerack,leaf02a,cellphone,medal02b,cd,stapler05,sunglasses04,strawberry,eraser,blankImage,spicerack,,,,,,,,,,,,0,113,113,140,,,,,,,,,,,,,,,,,,,,,,,,,,,,,,,,,,,651.2375490000704,652.2509213000303,652.2342881000368,652.8242146000266,652.8242146000266,None,654.7590471000876,None,left,1.0091863999841735,654.7590471000876,None,655.7877305999864,None,left,0.22883259993977845,655.7877305999864,None,,,,,,,,,,,,,,,,,,,,,,,PPT43,001,2022-07-08_10h00.24.019,ABstudy,2022.1.4,59.97807204539598,
AB,Lag5_T1P_T2A,5,P,A,5,10,4,3,13,fan,Did you see the fan?,0.12,0.016,JPG\,scissors01,grape01,mushroom01,toiletpaper01a,fanheater,pizza,cigarette,ashtray01,carrot01,pineapple01a,foosballtable,lipstick02a,teabag,blankImage,blankImage,blankImage,blankImage,fanheater,,,,,,,,,,,,0,114,114,220,,,,,,,,,,,,,,,,,,,,,,,,,,,,,,,,,,,656.0734124000883,657.0725632000249,657.0725632000249,657.7279696000041,657.652815700043,None,659.2249855999835,None,left,0.33574200002476573,659.2249855999835,None,659.5915183000034,None,right,0.2883656999329105,659.5915183000034,None,,,,,,,,,,,,,,,,,,,,,,,PPT43,001,2022-07-08_10h00.24.019,ABstudy,2022.1.4,59.97807204539598,
AB,Lag5_T1P_T2A,5,P,A,8,13,7,4,17,Drum set,Did you see the Drum set?,0.12,0.016,JPG\,pencil01,microscope,banana01,computerkeyboard02,celery,cellphone,scissors01,drumset,book01b,onion,dice05a,binoculars01b,baseball01a,iron01b,screw02,fork03c,blankImage,drumset,,,,,,,,,,,,0,115,115,212,,,,,,,,,,,,,,,,,,,,,,,,,,,,,,,,,,,659.9108462000731,660.9262610999867,660.8929285000777,661.4647034000373,661.4647034000373,None,663.4450199999847,None,left,0.6585938999196514,663.4450199999847,None,664.1295637000585,None,right,0.2869465999538079,664.1295637000585,None,,,,,,,,,,,,,,,,,,,,,,,PPT43,001,2022-07-08_10h00.24.019,ABstudy,2022.1.4,59.97807204539598,
AB,Lag1_T1P_T2P,1,P,P,8,9,7,3,12,Sheep,Did you see the Sheep?,0.12,0.016,JPG\,celery,orange,scissors01,balloon01b,avocado01,printer02,mushroom01,sheep,stapler03b,dice05a,ashtray01,fan,blankImage,blankImage,blankImage,blankImage,blankImage,sheep,,,,,,,,,,,,0,116,116,71,,,,,,,,,,,,,,,,,,,,,,,,,,,,,,,,,,,664.5226715999888,665.5309562000912,665.4976000000024,666.0817748000845,666.0817748000845,None,667.5376937000547,None,left,0.8225927000166848,667.5376937000547,None,668.3835971000372,None,right,0.27331150008831173,668.3835971000372,None,,,,,,,,,,,,,,,,,,,,,,,PPT43,001,2022-07-08_10h00.24.019,ABstudy,2022.1.4,59.97807204539598,
AB,Lag5_T1P_T2P,5,P,P,6,11,5,4,15,boxing glove,Did you see the boxing glove?,0.12,0.016,JPG\,button01,celery,birthdaycandle,apple07,avocado01,boxingglove01,dice05a,teabag,clock01a,feather03a,stapler06,scarf,orange,battery02b,thermometer02b,blankImage,blankImage,boxingglove01,,,,,,,,,,,,0,117,117,165,,,,,,,,,,,,,,,,,,,,,,,,,,,,,,,,,,,668.6884460999863,669.701696800068,669.6849686000496,670.2683674000436,670.2683674000436,None,672.1080202000448,None,left,0.06056060001719743,672.1080202000448,None,672.1873991000466,None,left,0.21246070007327944,672.1873991000466,None,,,,,,,,,,,,,,,,,,,,,,,PPT43,001,2022-07-08_10h00.24.019,ABstudy,2022.1.4,59.97807204539598,
AB,Lag5_T1A_T2P,5,A,P,7,12,6,4,16,ear,Did you see the ear?,0.12,0.016,JPG\,candle01,shirt02,brick,orange,greenolive,toothbrush03b,pizza,thermometer02b,book01b,toiletpaper01a,sewingmachine01a,stapler01,candy,cymbal,potato02b,plate01b,blankImage,chair,,,,,,,,,,,,0,118,118,257,,,,,,,,,,,,,,,,,,,,,,,,,,,,,,,,,,,672.4232192999916,673.4387018000707,673.405325400061,674.0004284000024,674.0004284000024,None,675.9354577000486,None,right,0.384751999983564,675.9354577000486,None,676.3428976000287,None,left,0.2654116000048816,676.3428976000287,None,,,,,,,,,,,,,,,,,,,,,,,PPT43,001,2022-07-08_10h00.24.019,ABstudy,2022.1.4,59.97807204539598,
AB,Lag1_T1P_T2P,1,P,P,5,6,4,5,11,Light switch,Did you see the Light switch?,0.12,0.016,JPG\,iron01b,orange,birthdaycandle,potato02b,lightswitch01,stapler03b,key01,candle08b,celery,tableknife02,pen04b,blankImage,blankImage,blankImage,blankImage,blankImage,blankImage,lightswitch01,,,,,,,,,,,,0,119,119,18,,,,,,,,,,,,,,,,,,,,,,,,,,,,,,,,,,,676.6308872000081,677.6428730000043,677.6261894000927,678.2073117999826,678.2073117999826,None,679.600804900052,None,left,0.8394959999714047,679.600804900052,None,680.4637309000827,None,right,0.30434400006197393,680.4637309000827,None,,,,,,,,,,,,,,,,,,,,,,,PPT43,001,2022-07-08_10h00.24.019,ABstudy,2022.1.4,59.97807204539598,
AB,Lag1_T1P_T2P,1,P,P,6,7,5,3,10,drum sticks,Did you see the drum sticks?,0.12,0.016,JPG\,pineapple01a,tennisball01b,computerkeyboard02,feather03a,belt02a,drumstick,stapler03b,blueberry01,medal02b,alligator,blankImage,blankImage,blankImage,blankImage,blankImage,blankImage,blankImage,drumstick,,,,,,,,,,,,0,120,120,61,,,,,,,,,,,,,,,,,,,,,,,,,,,,,,,,,,,680.8041139000561,681.8138586999848,681.7972681000829,682.3990103000542,682.3990103000542,None,683.5156691999873,None,left,0.5807257000124082,683.5156691999873,None,684.1159827000229,None,left,0.18847320007625967,684.1159827000229,None,,,,,,,,,,,,,,,,,,,,,,,PPT43,001,2022-07-08_10h00.24.019,ABstudy,2022.1.4,59.97807204539598,
AB,Lag1_T1P_T2P,1,P,P,6,7,5,3,10,windmill,Did you see the windmill?,0.12,0.016,JPG\,pizza,printer02,medal02b,spoon01,grape01,windmill,stapler04b,watermelon01,celery,battery02b,blankImage,blankImage,blankImage,blankImage,blankImage,blankImage,blankImage,windmill,,,,,,,,,,,,0,121,121,75,,,,,,,,,,,,,,,,,,,,,,,,,,,,,,,,,,,684.335973600042,685.3505438000429,685.3171445000917,685.9077955000103,685.9077955000103,None,687.1550878999988,None,left,0.3888802999863401,687.1550878999988,None,687.5694263000041,None,left,0.14236009994056076,687.5694263000041,None,,,,,,,,,,,,,,,,,,,,,,,PPT43,001,2022-07-08_10h00.24.019,ABstudy,2022.1.4,59.97807204539598,
AB,Lag5_T1P_T2A,5,P,A,5,10,4,4,14,Ship in a bottle,Did you see the Ship in a bottle?,0.12,0.016,JPG\,sewingmachine01a,thermometer02b,sponge01,eraser,shipinabottle,fork03c,pizza,violin,belt02a,medal02b,pineapple01a,tennisball01b,dandelion,cauliflower01,blankImage,blankImage,blankImage,shipinabottle,,,,,,,,,,,,0,122,122,208,,,,,,,,,,,,,,,,,,,,,,,,,,,,,,,,,,,687.7397222000873,688.7540957999881,688.720709700021,689.309090499999,689.309090499999,None,691.0327437000815,None,left,0.1833659999538213,691.0327437000815,None,691.2403237000108,None,right,0.19185940001625568,691.2403237000108,None,,,,,,,,,,,,,,,,,,,,,,,PPT43,001,2022-07-08_10h00.24.019,ABstudy,2022.1.4,59.97807204539598,
AB,Lag1_T1P_T2A,1,P,A,7,8,6,3,11,Snowshoe,Did you see the Snowshoe?,0.12,0.016,JPG\,birthdaycandle,mushroom01,strawberry,match,cherry01,eraser,snowshoe,thermometer02b,sock01a,ring01,feather03a,blankImage,blankImage,blankImage,blankImage,blankImage,blankImage,snowshoe,,,,,,,,,,,,0,123,123,194,,,,,,,,,,,,,,,,,,,,,,,,,,,,,,,,,,,691.4562433999963,692.4576752000721,692.4411700000055,692.9423566000769,692.9423566000769,None,694.3705516000045,None,left,1.4691375999245793,694.3705516000045,None,695.8610710999928,None,left,0.5234261000296101,695.8610710999928,None,,,,,,,,,,,,,,,,,,,,,,,PPT43,001,2022-07-08_10h00.24.019,ABstudy,2022.1.4,59.97807204539598,
AB,Lag5_T1P_T2P,5,P,P,7,12,6,4,16,flower,Did you see the flower?,0.12,0.016,JPG\,cucumber,sponge01,alligator,pear01,ashtray01,hammer01,hibiscusflower02,battery02b,fork03c,binoculars01b,mushroom01,stapler01,leaf02a,acorn,comb02a,screwdriver04b,blankImage,hibiscusflower02,,,,,,,,,,,,0,124,124,132,,,,,,,,,,,,,,,,,,,,,,,,,,,,,,,,,,,696.411872100085,697.412734100013,697.3960678000003,697.9829789000796,697.9829789000796,None,699.9072012000252,None,left,0.26838819996919483,699.9072012000252,None,700.1998940000776,None,left,0.13603489997331053,700.1998940000776,None,,,,,,,,,,,,,,,,,,,,,,,PPT43,001,2022-07-08_10h00.24.019,ABstudy,2022.1.4,59.97807204539598,
AB,Lag5_T1P_T2A,5,P,A,5,10,4,3,13,pin,Did you see the pin?,0.12,0.016,JPG\,candle01,fork03c,plate01b,violin,pin,candy,calculator01,paintbrush01,cherry01,sock01a,teabag,banana01,cd,blankImage,blankImage,blankImage,blankImage,pin,,,,,,,,,,,,0,125,125,215,,,,,,,,,,,,,,,,,,,,,,,,,,,,,,,,,,,700.435023500002,701.4499065000564,701.4332022999879,702.0064491999801,702.0064491999801,None,703.5271893000463,None,right,0.40916789998300374,703.5271893000463,None,703.969022699981,None,left,0.27039860002696514,703.969022699981,None,,,,,,,,,,,,,,,,,,,,,,,PPT43,001,2022-07-08_10h00.24.019,ABstudy,2022.1.4,59.97807204539598,
AB,Lag5_T1P_T2P,5,P,P,7,12,6,5,17,truck,Did you see the truck?,0.12,0.016,JPG\,binoculars01b,speaker04,sandal,envelope03a,plate01b,comb02a,boxtruck,chain01,measuringcup01,key01,medal02b,stapler05,tennisball01b,pizza,cigarette,sunglasses04,blankImage,boxtruck,,,,,,,,,,,,0,126,126,166,,,,,,,,,,,,,,,,,,,,,,,,,,,,,,,,,,,704.2720185000217,705.2870096000843,705.2536175000714,705.8415172999958,705.8415172999958,None,707.8187364999903,None,left,0.17374790005851537,707.8187364999903,None,708.0232453000499,None,left,0.15211400005500764,708.0232453000499,None,,,,,,,,,,,,,,,,,,,,,,,PPT43,001,2022-07-08_10h00.24.019,ABstudy,2022.1.4,59.97807204539598,
AB,Lag5_T1A_T2P,5,A,P,7,12,6,3,15,hockey puck,Did you see the hockey puck?,0.12,0.016,JPG\,toiletpaper01a,lipstick02a,potato02b,speaker04,globe,strawberry,carrot01,plate01b,sock01a,candle08b,pen04b,stapler04b,foosballtable,brick,pear01,blankImage,blankImage,frisbee,,,,,,,,,,,,0,127,127,260,,,,,,,,,,,,,,,,,,,,,,,,,,,,,,,,,,,708.2134712000843,709.2246126000537,709.2078237000387,709.7807559000794,709.7807559000794,None,711.5707993999822,None,left,0.045465099974535406,711.5707993999822,None,711.6436336000916,None,left,0.7721157999476418,711.6436336000916,None,,,,,,,,,,,,,,,,,,,,,,,PPT43,001,2022-07-08_10h00.24.019,ABstudy,2022.1.4,59.97807204539598,
AB,Lag5_T1A_T2P,5,A,P,5,10,4,4,14,duck,Did you see the duck?,0.12,0.016,JPG\,brick,eraser,cucumber,ashtray01,thermometer02b,binoculars01b,lipstick02a,screwdriver04b,grape01,stapler04b,battery02b,iron01b,dice05a,avocado01,blankImage,blankImage,blankImage,barrel01,,,,,,,,,,,,0,128,128,280,,,,,,,,,,,,,,,,,,,,,,,,,,,,,,,,,,,712.4492891000118,713.4619644000195,713.4287206000881,714.018788299989,714.018788299989,None,715.8305762000382,None,right,0.6731903000036255,715.8305762000382,None,716.5317452000454,None,right,0.27570410002954304,716.5317452000454,None,,,,,,,,,,,,,,,,,,,,,,,PPT43,001,2022-07-08_10h00.24.019,ABstudy,2022.1.4,59.97807204539598,
AB,Lag1_T1P_T2A,1,P,A,6,7,5,3,10,Dragon fly,Did you see the Dragon fly?,0.12,0.016,JPG\,leaf02a,pear01,measuringcup01,cigarette,fan,dragonfly01,teabag,tableknife02,ring01,pencil01,blankImage,blankImage,blankImage,blankImage,blankImage,blankImage,blankImage,dragonfly01,,,,,,,,,,,,0,129,129,185,,,,,,,,,,,,,,,,,,,,,,,,,,,,,,,,,,,716.8315332999919,717.8329150000354,717.8162587999832,718.428183900076,718.428183900076,None,719.626563900034,None,left,0.5411733000073582,719.626563900034,None,720.1852343000937,None,right,0.27874490001704544,720.1852343000937,None,,,,,,,,,,,,,,,,,,,,,,,PPT43,001,2022-07-08_10h00.24.019,ABstudy,2022.1.4,59.97807204539598,
AB,Lag1_T1P_T2A,1,P,A,8,9,7,5,14,Parrot,Did you see the Parrot?,0.12,0.016,JPG\,candy,brownsugar,dice05a,cd,sock01a,blueberry01,button01,parrot01,feather03a,grape01,dandelion,scissors01,watch02a,candle08b,blankImage,blankImage,blankImage,parrot01,,,,,,,,,,,,0,130,130,192,,,,,,,,,,,,,,,,,,,,,,,,,,,,,,,,,,,720.4885076000355,721.5032458000351,721.4699058000697,722.0520964000607,722.0520964000607,None,723.7571170000592,None,left,0.28231589996721596,723.7571170000592,None,724.0559449000284,None,left,0.4314515000442043,724.0559449000284,None,,,,,,,,,,,,,,,,,,,,,,,PPT43,001,2022-07-08_10h00.24.019,ABstudy,2022.1.4,59.97807204539598,
AB,Lag1_T1P_T2P,1,P,P,5,6,4,3,9,Escalator,Did you see the Escalator?,0.12,0.016,JPG\,celery,pencil01,fan,foosballtable,escalator,stapler05,potato02b,fork03c,button01,blankImage,blankImage,blankImage,blankImage,blankImage,blankImage,blankImage,blankImage,escalator,,,,,,,,,,,,0,131,131,82,,,,,,,,,,,,,,,,,,,,,,,,,,,,,,,,,,,724.5160429000389,725.5241262000054,725.5073949000798,726.0821629000129,726.0821629000129,None,727.2343720000936,None,left,0.11777819995768368,727.2343720000936,None,727.3771377999801,None,left,0.2867012000642717,727.3771377999801,None,,,,,,,,,,,,,,,,,,,,,,,PPT43,001,2022-07-08_10h00.24.019,ABstudy,2022.1.4,59.97807204539598,
AB,Lag5_T1P_T2A,5,P,A,7,12,6,3,15,Toy soldier,Did you see the Toy soldier?,0.12,0.016,JPG\,binoculars01b,cymbal,pizza,candy,paintbrush01,sponge01,toysoldier01b,thermometer02b,speaker04,lemon02,lipstick02a,strawberry,candle01,acorn,plate01b,blankImage,blankImage,toysoldier01b,,,,,,,,,,,,0,132,132,203,,,,,,,,,,,,,,,,,,,,,,,,,,,,,,,,,,,727.7056145999813,728.7103993000928,728.6944532000925,729.2810475000879,729.2810475000879,None,731.0985123000573,None,left,0.5418156000087038,731.0985123000573,None,731.6652424000204,None,right,0.30288989993277937,731.6652424000204,None,,,,,,,,,,,,,,,,,,,,,,,PPT43,001,2022-07-08_10h00.24.019,ABstudy,2022.1.4,59.97807204539598,
AB,Lag1_T1A_T2A,1,A,A,6,7,5,5,12,flamingo,Did you see the flamingo?,0.12,0.016,JPG\,chain01,pen04b,birthdaycandle,watermelon01,broom01,scissors01,measuringcup01,candle01,hammer01,calculator01,ashtray01,feather03a,blankImage,blankImage,blankImage,blankImage,blankImage,witchhat,,,,,,,,,,,,0,133,133,288,,,,,,,,,,,,,,,,,,,,,,,,,,,,,,,,,,,732.0072105000727,733.0146587000927,732.9980000000214,733.5844819000922,733.5844819000922,None,735.0112905000569,None,right,0.596086599980481,735.0112905000569,None,735.6340555000352,None,right,0.645997800049372,735.6340555000352,None,,,,,,,,,,,,,,,,,,,,,,,PPT43,001,2022-07-08_10h00.24.019,ABstudy,2022.1.4,59.97807204539598,
AB,Lag1_T1P_T2P,1,P,P,6,7,5,3,10,jelly beans,Did you see the jelly beans?,0.12,0.016,JPG\,lipstick02a,cucumber,candle08b,printer02,grape01,jellybean,stapler01,lighter01,belt02a,balloon01b,blankImage,blankImage,blankImage,blankImage,blankImage,blankImage,blankImage,jellybean,,,,,,,,,,,,0,134,134,15,,,,,,,,,,,,,,,,,,,,,,,,,,,,,,,,,,,736.3475561999949,737.3526158999885,737.3358239000663,737.9060158000793,737.9060158000793,None,739.0896406000247,None,left,0.654052900034003,739.0896406000247,None,739.7710789000848,None,left,0.2767967999679968,739.7710789000848,None,,,,,,,,,,,,,,,,,,,,,,,PPT43,001,2022-07-08_10h00.24.019,ABstudy,2022.1.4,59.97807204539598,
AB,Lag5_T1P_T2P,5,P,P,6,11,5,3,14,ladder,Did you see the ladder?,0.12,0.016,JPG\,celery,orange,scissors01,balloon01b,avocado01,stepladder,mushroom01,sewingmachine01a,lighter01,dice05a,stapler01,fan,cd,sock01a,blankImage,blankImage,blankImage,stepladder,,,,,,,,,,,,0,135,135,119,,,,,,,,,,,,,,,,,,,,,,,,,,,,,,,,,,,740.0739771000808,741.0893460999941,741.0559559999965,741.6298003999982,741.6298003999982,None,743.3723946000682,None,left,0.315403199987486,743.3723946000682,None,743.7083251000149,None,left,0.1955172000452876,743.7083251000149,None,,,,,,,,,,,,,,,,,,,,,,,PPT43,001,2022-07-08_10h00.24.019,ABstudy,2022.1.4,59.97807204539598,
AB,Lag1_T1P_T2P,1,P,P,8,9,7,5,14,finger print,Did you see the finger print?,0.12,0.016,JPG\,chain01,pen04b,birthdaycandle,watermelon01,broom01,scissors01,measuringcup01,fingerprint,stapler01,calculator01,ashtray01,feather03a,sewingmachine01a,thermometer02b,blankImage,blankImage,blankImage,fingerprint,,,,,,,,,,,,0,136,136,62,,,,,,,,,,,,,,,,,,,,,,,,,,,,,,,,,,,743.9962459000526,745.0104714999907,744.993827200029,745.5783031000756,745.5783031000756,None,747.1803002000088,None,left,1.235927200061269,747.1803002000088,None,748.4469534000382,None,left,0.2163795999949798,748.4469534000382,None,,,,,,,,,,,,,,,,,,,,,,,PPT43,001,2022-07-08_10h00.24.019,ABstudy,2022.1.4,59.97807204539598,
AB,Lag5_T1A_T2P,5,A,P,7,12,6,3,15,Car,Did you see the Car?,0.12,0.016,JPG\,lighter01,hammer01,spoon01,chain01,cymbal,sponge01,lipstick02a,alligator,pig,watermelon01,cauliflower01,stapler03b,broccoli01a,tableknife02,tennisball01b,blankImage,blankImage,wallclock,,,,,,,,,,,,0,137,137,277,,,,,,,,,,,,,,,,,,,,,,,,,,,,,,,,,,,748.6863312000642,749.6982236000476,749.681553900009,750.2497076999862,750.2497076999862,None,752.1248918999918,None,right,0.6040607000468299,752.1248918999918,None,752.7506267999997,None,left,0.3698390000499785,752.7506267999997,None,,,,,,,,,,,,,,,,,,,,,,,PPT43,001,2022-07-08_10h00.24.019,ABstudy,2022.1.4,59.97807204539598,
