TrialType,CondType,Lag,T1_PA,T2_PA,T1Loc,T2Loc,PreDistractor,PostDistractor,TotalImg,cueWord,T1cue,StimLength,isi,PicFolder,Img1,Img2,Img3,Img4,Img5,Img6,Img7,Img8,Img9,Img10,Img11,Img12,Img13,Img14,Img15,Img16,Img17,T1_Identity,ImageType,T1PA,T2PA,Picture,Image,FullPathName,FilePath,Practice_Trials.thisRepN,Practice_Trials.thisTrialN,Practice_Trials.thisN,Practice_Trials.thisIndex,trials.thisRepN,trials.thisTrialN,trials.thisN,trials.thisIndex,trials_2.thisRepN,trials_2.thisTrialN,trials_2.thisN,trials_2.thisIndex,Practice_Ins.started,Practice_Ins.stopped,End_Prac_Ins.keys,End_Prac_Ins.rt,End_Prac_Ins.started,End_Prac_Ins.stopped,text_2.started,text_2.stopped,Fixation_Cross_2.started,Fixation_Cross_2.stopped,Rapid_Image_Present_2.started,Rapid_Image_Present_2.stopped,key_resp.keys,key_resp.rt,key_resp.started,key_resp.stopped,T1Response_2.started,T1Response_2.stopped,T2Response_2.started,T2Response_2.stopped,key_resp_4.keys,key_resp_4.rt,key_resp_4.started,key_resp_4.stopped,text.started,text.stopped,End_Instructions.keys,End_Instructions.rt,End_Instructions.started,End_Instructions.stopped,text_5.started,text_5.stopped,FC.started,FC.stopped,Rapid_Image_Present.started,Rapid_Image_Present.stopped,T1Response.started,T1Response.stopped,key_resp_2.keys,key_resp_2.rt,key_resp_2.started,key_resp_2.stopped,T2Response.started,T2Response.stopped,key_resp_3.keys,key_resp_3.rt,key_resp_3.started,key_resp_3.stopped,text_6.started,text_6.stopped,Fin_ins.keys,Fin_ins.rt,Fin_ins.started,Fin_ins.stopped,MemTest.started,MemTest.stopped,MemResponse.keys,MemResponse.rt,MemResponse.started,MemResponse.stopped,Display.started,Display.stopped,text_7.started,text_7.stopped,endOfExperiment.started,endOfExperiment.stopped,key_resp_5.keys,key_resp_5.rt,key_resp_5.started,key_resp_5.stopped,participant,session,date,expName,psychopyVersion,frameRate,
,,,,,,,,,,,,,,,,,,,,,,,,,,,,,,,,,,,,,,,,,,,,,,,,,,,,23.755537200020626,None,space,22.042408799985424,23.755537200020626,None,,,,,,,,,,,,,,,,,,,,,,,,,,,,,,,,,,,,,,,,,,,,,,,,,,,,,,,,,,,,,,,,,PPT40,001,2022-07-07_12h34.55.191,ABstudy,2022.1.4,59.928756723608586,
AB_Prac,Lag5_T1P_T2P,5,P,P,5,10,4,5,15,Vulture,Did you see the Vulture?,0.5,0.016,JPG\,shorts01,toast,ramekin01,bib,vulture,cracker02,date,glasses01a,hat03b,stapler01,measuringtape01,nail,pill,drum01,starfish01,blankImage,blankImage,vulture,,,,,,,,0,0,0,3,,,,,,,,,,,,,,,45.87106030003633,46.87032220000401,46.87032220000401,47.48794480005745,47.48794480005745,None,right,4.209934700047597,55.08290819998365,None,55.08290819998365,None,59.316308000008576,None,left,0.9209417999954894,59.316308000008576,None,,,,,,,,,,,,,,,,,,,,,,,,,,,,,,,,,,,,,,,,,,,,,,,PPT40,001,2022-07-07_12h34.55.191,ABstudy,2022.1.4,59.928756723608586,
AB_Prac,Lag1_T1P_T2A,1,P,A,8,9,7,5,14,flower,Did you see the flower?,0.5,0.016,JPG\,razor01,axe01,binder03b,bowl01,kettle01,lettuce,lime,plasticflower01b,mitten04,pencilcase01,plunger02,strawbasket01,toothpick02,wallet02a,blankImage,blankImage,blankImage,plasticflower01b,,,,,,,,0,1,1,5,,,,,,,,,,,,,,,60.26738059998024,61.26820529997349,61.25136370002292,61.82236049999483,61.82236049999483,None,left,4.467611400061287,68.8419608999975,None,68.8419608999975,None,73.33037049998529,None,right,1.33884580002632,73.33037049998529,None,,,,,,,,,,,,,,,,,,,,,,,,,,,,,,,,,,,,,,,,,,,,,,,PPT40,001,2022-07-07_12h34.55.191,ABstudy,2022.1.4,59.928756723608586,
AB_Prac,Lag1_T1P_T2P,1,P,P,6,7,5,5,12,triangle,Did you see the triangle?,0.5,0.016,JPG\,ginger,mousetrap,plum01,slipper01b,dropper01,triangle,stapler04b,pants,raspberry01,rope03,scale01a,vase01,blankImage,blankImage,blankImage,blankImage,blankImage,triangle,,,,,,,,0,2,2,1,,,,,,,,,,,,,,,74.70589149999432,75.71568889997434,75.6990356000606,76.28903320000973,76.28903320000973,None,left,1.5858995000598952,82.27513730002102,None,82.27513730002102,None,83.89050420001149,None,right,0.8107079999754205,83.89050420001149,None,,,,,,,,,,,,,,,,,,,,,,,,,,,,,,,,,,,,,,,,,,,,,,,PPT40,001,2022-07-07_12h34.55.191,ABstudy,2022.1.4,59.928756723608586,
AB_Prac,Lag5_T1P_T2A,5,P,A,6,11,5,5,16,Wheat,Did you see the Wheat?,0.5,0.016,JPG\,bottleopener01,dentalfloss03b,cooler01,icecreamcone01a,paperclip01b,wheat,pencilsharpener02a,plasticbasket01a,toycar04,apricot,hairclip02,rock01a,honeydewmelon,antenna,blackberry,cardboardbox,blankImage,wheat,,,,,,,,0,3,3,7,,,,,,,,,,,,,,,84.72877320006955,85.74227899999823,85.72566670004744,86.30679709999822,86.30679709999822,None,left,1.3547269999980927,94.36374770000111,None,94.36374770000111,None,95.73623719997704,None,right,0.9414006000151858,95.73623719997704,None,,,,,,,,,,,,,,,,,,,,,,,,,,,,,,,,,,,,,,,,,,,,,,,PPT40,001,2022-07-07_12h34.55.191,ABstudy,2022.1.4,59.928756723608586,
AB_Prac,Lag5_T1A_T2P,5,A,P,6,11,5,3,14,dog,Did you see the dog?,0.5,0.016,JPG\,bucket01a,doorlock,cookiecutter,fireextinguisher01,gluestick,highlighter02b,sportbag,spraybottle01,suitcase,thread02,stapler05,walnut01c,icecubetray01a,vikingmask01b,blankImage,blankImage,blankImage,None,,,,,,,,0,4,4,9,,,,,,,,,,,,,,,96.7916587999789,97.80619320005644,97.78962669998873,98.39579680003226,98.39579680003226,None,right,2.4948495000135154,105.37414760002866,None,105.37414760002866,None,107.89771829999518,None,left,0.9473104999633506,107.89771829999518,None,,,,,,,,,,,,,,,,,,,,,,,,,,,,,,,,,,,,,,,,,,,,,,,PPT40,001,2022-07-07_12h34.55.191,ABstudy,2022.1.4,59.928756723608586,
AB_Prac,Lag5_T1P_T2P,5,P,P,7,12,6,3,15,vacuum,Did you see the vacuum?,0.5,0.016,JPG\,fork07b,lightbulb01,manshoe,saw02b,shoelace,soap03a,vacuumcleaner01,floortile01,necklace,doll,cabbage,stapler03a,hanger02a,laptop01a,nailpolish03b,blankImage,blankImage,vacuumcleaner01,,,,,,,,0,5,5,2,,,,,,,,,,,,,,,108.87019140005577,109.88365159998648,109.86785899999086,110.46572370000649,110.46572370000649,None,left,0.47981440008152276,117.95734359999187,None,117.95734359999187,None,118.4581998999929,None,left,0.4274147000396624,118.4581998999929,None,,,,,,,,,,,,,,,,,,,,,,,,,,,,,,,,,,,,,,,,,,,,,,,PPT40,001,2022-07-07_12h34.55.191,ABstudy,2022.1.4,59.928756723608586,
AB_Prac,Lag1_T1P_T2A,1,P,A,5,6,4,5,11,Webcam,Did you see the Webcam?,0.5,0.016,JPG\,pictureframe04,binder03b,straw,adjustablewrench01b,webcam,cane,hairdryer02a,icepack,kitchenscale01a,lifejacket,piggybank,blankImage,blankImage,blankImage,blankImage,blankImage,blankImage,webcam,,,,,,,,0,6,6,6,,,,,,,,,,,,,,,118.9125034000026,119.92700739996508,119.91133220004849,120.50431760004722,120.50431760004722,None,left,1.0641348999924958,125.99732880003285,None,125.99732880003285,None,127.08398120000493,None,right,0.6327118000481278,127.08398120000493,None,,,,,,,,,,,,,,,,,,,,,,,,,,,,,,,,,,,,,,,,,,,,,,,PPT40,001,2022-07-07_12h34.55.191,ABstudy,2022.1.4,59.928756723608586,
AB_Prac,Lag5_T1P_T2P,5,P,P,5,10,4,5,15,washing machine,Did you see the washing machine?,0.5,0.016,JPG\,waterbottle03,wheel01,flashlight02b,zucchini01,washingmachine,headphones02b,nutcracker01,paintroller01,paperclip03,stapler06,ribbon04,electricrazor,bottleofredwine01,pitabread,pot02a,blankImage,blankImage,washingmachine,,,,,,,,0,7,7,4,,,,,,,,,,,,,,,127.73964719998185,128.7524049000349,128.73659680003766,129.32181510003284,129.32181510003284,None,left,0.743730999995023,136.8456440999871,None,136.8456440999871,None,137.61063700006343,None,left,0.2986707999370992,137.61063700006343,None,,,,,,,,,,,,,,,,,,,,,,,,,,,,,,,,,,,,,,,,,,,,,,,PPT40,001,2022-07-07_12h34.55.191,ABstudy,2022.1.4,59.928756723608586,
AB_Prac,Lag5_T1P_T2A,5,P,A,6,11,5,5,16,bread,Did you see the bread?,0.5,0.016,JPG\,cleaver01,clipboard,dustpan,hikingshoe01,notebook03a,baguette01,playingcard,pliers02b,styrofoamcup,rollingpin01a,swimgoggles,wineglass01,fryingpan02a,safetypin,syringe01,thimble,blankImage,baguette01,,,,,,,,0,8,8,8,,,,,,,,,,,,,,,137.93180300004315,138.9453264999902,138.92865120002534,139.52375579997897,139.52375579997897,None,left,0.6500095999799669,147.57120130001567,None,147.57120130001567,None,148.23806870006956,None,right,0.6867319999728352,148.23806870006956,None,,,,,,,,,,,,,,,,,,,,,,,,,,,,,,,,,,,,,,,,,,,,,,,PPT40,001,2022-07-07_12h34.55.191,ABstudy,2022.1.4,59.928756723608586,
AB_Prac,Lag1_T1P_T2P,1,P,P,8,9,7,5,14,Tennis racket,Did you see the Tennis racket?,0.5,0.016,JPG\,coconut,computermouse06,croissant01,deodorant02a,pillow01a,peanut01,boot02b,tennisracket,stapler03b,crayon,eggplant,marker01a,plant01,radish01,blankImage,blankImage,blankImage,tennisracket,,,,,,,,0,9,9,0,,,,,,,,,,,,,,,149.05587410007138,150.05649800004903,150.03992090001702,150.6571205999935,150.6571205999935,None,left,0.6879665999440476,157.5414581000805,None,157.5414581000805,None,158.24825499998406,None,left,0.5327901000855491,158.24825499998406,None,,,,,,,,,,,,,,,,,,,,,,,,,,,,,,,,,,,,,,,,,,,,,,,PPT40,001,2022-07-07_12h34.55.191,ABstudy,2022.1.4,59.928756723608586,
AB_Prac,Lag1_T1A_T2A,1,A,A,8,9,7,3,12,Moose,Did you see the Moose?,0.5,0.016,JPG\,clothespin03b,corkscrew03a,drillbit03a,fusilli03a,needlenosepliers01,perfume01a,pistachio,scrubbingbrush05b,spatula03,toothpastetube,hinge,toydinosaur,blankImage,blankImage,blankImage,blankImage,blankImage,None,,,,,,,,0,10,10,10,,,,,,,,,,,,,,,158.80689880007412,159.81631040002685,159.79953359998763,160.3788297000574,160.3788297000574,None,right,0.8153194999322295,166.38219320005737,None,166.38219320005737,None,167.2237437000731,None,right,0.3178130000596866,167.2237437000731,None,,,,,,,,,,,,,,,,,,,,,,,,,,,,,,,,,,,,,,,,,,,,,,,PPT40,001,2022-07-07_12h34.55.191,ABstudy,2022.1.4,59.928756723608586,
AB_Prac,Lag5_T1A_T2A,5,A,A,6,11,5,5,16,castle,Did you see the castle?,0.5,0.016,JPG\,tape02a,englishmuffin,flask,ladle02a,monitor,peach01,keychain,squeegee01b,telephone01b,whisk,walkman,syringe02,baguette01,coaster,box01a,coffeepot03a,blankImage,None,,,,,,,,0,11,11,11,,,,,,,,,,,,,,,167.57614640006796,168.57502019999083,168.55860250000842,169.17104340007063,169.17104340007063,None,right,0.8689145999960601,177.16030700004194,None,177.16030700004194,None,178.05132229998708,None,right,0.297087199985981,178.05132229998708,None,,,,,,,,,,,,,,,,,,,,,,,,,,,,,,,,,,,,,,,,,,,,,,,PPT40,001,2022-07-07_12h34.55.191,ABstudy,2022.1.4,59.928756723608586,
,,,,,,,,,,,,,,,,,,,,,,,,,,,,,,,,,,,,,,,,,,,,,,,,,,,,,,,,,,,,,,,,,,,,,,,,,,,,178.36926469998434,None,space,13.81964840006549,178.36926469998434,None,,,,,,,,,,,,,,,,,,,,,,,,,,,,,,,,,,,,,,,,,PPT40,001,2022-07-07_12h34.55.191,ABstudy,2022.1.4,59.928756723608586,
AB,Lag1_T1P_T2P,1,P,P,7,8,6,4,12,Christmas Tree,Did you see the Christmas Tree?,0.12,0.016,JPG\,sandal,fan,printer02,cellphone,mushroom01,candle08b,firtree,stapler03a,lamp04a,hammer01,teabag,aceofdiamond,blankImage,blankImage,blankImage,blankImage,blankImage,firtree,,,,,,,,,,,,0,0,0,6,,,,,,,,,,,,,,,,,,,,,,,,,,,,,,,,,,,192.9171258000424,193.9166793000186,193.9166793000186,194.54155550000723,194.54155550000723,None,195.99987230007537,None,left,2.621324299951084,195.99987230007537,None,198.6410042999778,None,right,1.0836940000299364,198.6410042999778,None,,,,,,,,,,,,,,,,,,,,,,,PPT40,001,2022-07-07_12h34.55.191,ABstudy,2022.1.4,59.928756723608586,
AB,Lag5_T1P_T2P,5,P,P,7,12,6,3,15,Eye patch,Did you see the Eye patch?,0.12,0.016,JPG\,candle01,paintbrush01,scissors01,fan,microscope,toothbrush03b,eyepatch,watermelon01,teabag,pencil01,lemon02,stapler05,shirt02,cauliflower01,cd,blankImage,blankImage,eyepatch,,,,,,,,,,,,0,1,1,108,,,,,,,,,,,,,,,,,,,,,,,,,,,,,,,,,,,199.76714720006566,200.77386139996815,200.75718539999798,201.33645150007214,201.33645150007214,None,203.17925759998616,None,right,1.6665153000503778,203.17925759998616,None,204.87790950003546,None,left,0.36719619994983077,204.87790950003546,None,,,,,,,,,,,,,,,,,,,,,,,PPT40,001,2022-07-07_12h34.55.191,ABstudy,2022.1.4,59.928756723608586,
AB,Lag5_T1A_T2P,5,A,P,8,13,7,4,17,wrench,Did you see the wrench?,0.12,0.016,JPG\,clock01a,grape01,plate01b,key01,screwdriver04b,feather03a,pineapple01a,iron01b,toothbrush03b,comb02a,broom01,toaster01,stapler05,garlic01a,match,ashtray01,blankImage,seal,,,,,,,,,,,,0,2,2,272,,,,,,,,,,,,,,,,,,,,,,,,,,,,,,,,,,,205.26613170001656,206.27919640007894,206.26242450007703,206.8616188999731,206.8616188999731,None,208.83840840007178,None,left,0.8219799998914823,208.83840840007178,None,209.68280020006932,None,left,0.28190449997782707,209.68280020006932,None,,,,,,,,,,,,,,,,,,,,,,,PPT40,001,2022-07-07_12h34.55.191,ABstudy,2022.1.4,59.928756723608586,
AB,Lag1_T1P_T2P,1,P,P,7,8,6,3,11,Daddy Long Legs,Did you see the Daddy Long Legs?,0.12,0.016,JPG\,lighter01,hammer01,spoon01,chain01,cymbal,sponge01,daddylonglegs,stapler03b,pig,watermelon01,cauliflower01,blankImage,blankImage,blankImage,blankImage,blankImage,blankImage,daddylonglegs,,,,,,,,,,,,0,3,3,86,,,,,,,,,,,,,,,,,,,,,,,,,,,,,,,,,,,210.04292380006518,211.051030099974,211.0354484000709,211.64569200004917,211.64569200004917,None,212.92972800007556,None,left,2.5710780998924747,212.92972800007556,None,215.52192840003408,None,right,0.39494679996278137,215.52192840003408,None,,,,,,,,,,,,,,,,,,,,,,,PPT40,001,2022-07-07_12h34.55.191,ABstudy,2022.1.4,59.928756723608586,
AB,Lag5_T1P_T2P,5,P,P,7,12,6,5,17,tie,Did you see the tie?,0.12,0.016,JPG\,iron01b,orange,birthdaycandle,potato02b,cauliflower01,pencil01,tie02,candle08b,celery,tableknife02,pen04b,stapler06,ring01,rice,lemon02,tomato01,blankImage,tie02,,,,,,,,,,,,0,4,4,161,,,,,,,,,,,,,,,,,,,,,,,,,,,,,,,,,,,215.94229849998374,216.9565781999845,216.92324939998798,217.49668069998734,217.49668069998734,None,219.44547180004884,None,left,0.9841353999217972,219.44547180004884,None,220.4597431999864,None,left,0.3048719000071287,220.4597431999864,None,,,,,,,,,,,,,,,,,,,,,,,PPT40,001,2022-07-07_12h34.55.191,ABstudy,2022.1.4,59.928756723608586,
AB,Lag1_T1A_T2P,1,A,P,7,8,6,3,11,lion,Did you see the lion?,0.12,0.016,JPG\,sock01a,spoon01,alligator,comb02a,printer02,medal02b,lamp04a,stapler01,greenolive,computerkeyboard02,cauliflower01,blankImage,blankImage,blankImage,blankImage,blankImage,blankImage,bullet,,,,,,,,,,,,0,5,5,229,,,,,,,,,,,,,,,,,,,,,,,,,,,,,,,,,,,220.7957058000611,221.8111575000221,221.77778120001312,222.3686273000203,222.3686273000203,None,223.75242110004183,None,right,1.548748999950476,223.75242110004183,None,225.331582600018,None,left,0.6417809999547899,225.331582600018,None,,,,,,,,,,,,,,,,,,,,,,,PPT40,001,2022-07-07_12h34.55.191,ABstudy,2022.1.4,59.928756723608586,
AB,Lag5_T1P_T2P,5,P,P,6,11,5,3,14,fish,Did you see the fish?,0.12,0.016,JPG\,broom01,globe,cellphone,tableknife02,cauliflower01,holdfast,ring01,alligator,rice,toaster01,stapler03b,grape01,microscope,cucumber,blankImage,blankImage,blankImage,holdfast,,,,,,,,,,,,0,6,6,133,,,,,,,,,,,,,,,,,,,,,,,,,,,,,,,,,,,226.00193700008094,227.01669030007906,226.9833025999833,227.55044250003994,227.55044250003994,None,229.3348660999909,None,left,0.8218145000282675,229.3348660999909,None,230.18611780006904,None,left,0.4904936000239104,230.18611780006904,None,,,,,,,,,,,,,,,,,,,,,,,PPT40,001,2022-07-07_12h34.55.191,ABstudy,2022.1.4,59.928756723608586,
AB,Lag1_T1P_T2P,1,P,P,7,8,6,3,11,swing,Did you see the swing?,0.12,0.016,JPG\,sewingmachine01a,thermometer02b,sponge01,eraser,broccoli01a,fork03c,swing,stapler03b,belt02a,medal02b,pineapple01a,blankImage,blankImage,blankImage,blankImage,blankImage,blankImage,swing,,,,,,,,,,,,0,7,7,30,,,,,,,,,,,,,,,,,,,,,,,,,,,,,,,,,,,230.70568889996503,231.72098580002785,231.68767240003217,232.27801860007457,232.27801860007457,None,233.65427190007176,None,left,1.054670499986969,233.65427190007176,None,234.74094569997396,None,left,0.3039666999829933,234.74094569997396,None,,,,,,,,,,,,,,,,,,,,,,,PPT40,001,2022-07-07_12h34.55.191,ABstudy,2022.1.4,59.928756723608586,
AB,Lag5_T1P_T2P,5,P,P,6,11,5,4,15,boxing glove,Did you see the boxing glove?,0.12,0.016,JPG\,button01,celery,birthdaycandle,apple07,avocado01,boxingglove01,dice05a,teabag,clock01a,feather03a,stapler06,scarf,orange,battery02b,thermometer02b,blankImage,blankImage,boxingglove01,,,,,,,,,,,,0,8,8,165,,,,,,,,,,,,,,,,,,,,,,,,,,,,,,,,,,,235.08434679999482,236.0922274000477,236.07544649997726,236.67711799999233,236.67711799999233,None,238.47795249999035,None,left,0.6383139999816194,238.47795249999035,None,239.14558460004628,None,left,0.2517036999342963,239.14558460004628,None,,,,,,,,,,,,,,,,,,,,,,,PPT40,001,2022-07-07_12h34.55.191,ABstudy,2022.1.4,59.928756723608586,
AB,Lag1_T1P_T2P,1,P,P,7,8,6,5,13,disco ball,Did you see the disco ball?,0.12,0.016,JPG\,candle01,paintbrush01,scissors01,fan,microscope,toothbrush03b,discoball,stapler03b,teabag,pencil01,lemon02,ashtray01,shirt02,blankImage,blankImage,blankImage,blankImage,discoball,,,,,,,,,,,,0,9,9,60,,,,,,,,,,,,,,,,,,,,,,,,,,,,,,,,,,,239.4335212999722,240.44657060003374,240.42979159997776,241.01548549998552,241.01548549998552,None,242.6454095999943,None,left,1.4308653000043705,242.6454095999943,None,244.10000670002773,None,right,0.46419229998718947,244.10000670002773,None,,,,,,,,,,,,,,,,,,,,,,,PPT40,001,2022-07-07_12h34.55.191,ABstudy,2022.1.4,59.928756723608586,
AB,Lag5_T1P_T2P,5,P,P,7,12,6,5,17,statue,Did you see the statue?,0.12,0.016,JPG\,pear01,clock01a,cymbal,match,ashtray01,globe,statue,button01,lemon02,pen04b,dice05a,stapler06,toothbrush03b,screwdriver04b,feather03a,key01,blankImage,statue,,,,,,,,,,,,0,10,10,100,,,,,,,,,,,,,,,,,,,,,,,,,,,,,,,,,,,244.5860762000084,245.6015127999708,245.5681672000792,246.1532736000372,246.1532736000372,None,248.1139453999931,None,left,1.7702740000095218,248.1139453999931,None,249.90610560006462,None,left,0.3544034999795258,249.90610560006462,None,,,,,,,,,,,,,,,,,,,,,,,PPT40,001,2022-07-07_12h34.55.191,ABstudy,2022.1.4,59.928756723608586,
AB,Lag5_T1P_T2P,5,P,P,6,11,5,4,15,Bumper car,Did you see the Bumper car?,0.12,0.016,JPG\,eraser,measuringcup01,chain01,birthdaycandle,ring01,bumpercar,weight04a,pig,cauliflower01,celery,stapler01,sunglasses04,greenolive,candy,strawberry,blankImage,blankImage,bumpercar,,,,,,,,,,,,0,11,11,104,,,,,,,,,,,,,,,,,,,,,,,,,,,,,,,,,,,250.29316040000413,251.30757070006803,251.2908176999772,251.86694500001613,251.86694500001613,None,253.7459767999826,None,right,1.355142300017178,253.7459767999826,None,255.12759050005116,None,left,0.4694123000372201,255.12759050005116,None,,,,,,,,,,,,,,,,,,,,,,,PPT40,001,2022-07-07_12h34.55.191,ABstudy,2022.1.4,59.928756723608586,
AB,Lag5_T1P_T2P,5,P,P,5,10,4,5,15,sword fish,Did you see the sword fish?,0.12,0.016,JPG\,scissors01,balloon01b,eraser,feather03a,swordfish,candle01,measuringcup01,calculator01,thermometer02b,stapler04b,pear01,carrot01,globe,baseball01a,leaf02a,blankImage,blankImage,swordfish,,,,,,,,,,,,0,12,12,160,,,,,,,,,,,,,,,,,,,,,,,,,,,,,,,,,,,255.6304170000367,256.6458458000561,256.6124944000039,257.1957359999651,257.1957359999651,None,259.0258462000638,None,left,1.0836307998979464,259.0258462000638,None,260.1325785999652,None,left,0.25578899995889515,260.1325785999652,None,,,,,,,,,,,,,,,,,,,,,,,PPT40,001,2022-07-07_12h34.55.191,ABstudy,2022.1.4,59.928756723608586,
AB,Lag5_T1P_T2P,5,P,P,6,11,5,3,14,Poker chips,Did you see the Poker chips?,0.12,0.016,JPG\,iron01b,brick,broccoli01a,balloon01b,tomato01,pokerchips,sandal,teabag,scissors01,pineapple01a,stapler04b,measuringcup01,sock01a,book01b,blankImage,blankImage,blankImage,pokerchips,,,,,,,,,,,,0,13,13,154,,,,,,,,,,,,,,,,,,,,,,,,,,,,,,,,,,,260.423874399974,261.4338428999763,261.417269699974,262.01012960006483,262.01012960006483,None,263.71547160006594,None,left,0.8652166998945177,263.71547160006594,None,264.604249099968,None,left,0.4486604999983683,264.604249099968,None,,,,,,,,,,,,,,,,,,,,,,,PPT40,001,2022-07-07_12h34.55.191,ABstudy,2022.1.4,59.928756723608586,
AB,Lag1_T1P_T2P,1,P,P,7,8,6,5,13,school bus,Did you see the school bus?,0.12,0.016,JPG\,aceofdiamond,banana01,scissors01,pig,shirt02,leaf02a,schoolbus,stapler05,fork03c,tableknife02,balloon01b,match,toothbrush03b,blankImage,blankImage,blankImage,blankImage,schoolbus,,,,,,,,,,,,0,14,14,24,,,,,,,,,,,,,,,,,,,,,,,,,,,,,,,,,,,265.07656209997367,266.08867079997435,266.07218320004176,266.6674358000746,266.6674358000746,None,268.24406910000835,None,left,1.601187500054948,268.24406910000835,None,269.87590069998987,None,right,0.41637079999782145,269.87590069998987,None,,,,,,,,,,,,,,,,,,,,,,,PPT40,001,2022-07-07_12h34.55.191,ABstudy,2022.1.4,59.928756723608586,
AB,Lag1_T1P_T2P,1,P,P,6,7,5,4,11,cash register,Did you see the cash register?,0.12,0.016,JPG\,leaf02a,apple07,cd,pineapple01a,envelope03a,cashregister01,stapler03b,8ball,rice,feather03a,lemon02,blankImage,blankImage,blankImage,blankImage,blankImage,blankImage,cashregister01,,,,,,,,,,,,0,15,15,79,,,,,,,,,,,,,,,,,,,,,,,,,,,,,,,,,,,270.31514429999515,271.3273275999818,271.3106833000202,271.8792085000314,271.8792085000314,None,273.30845880007837,None,left,0.7363927998812869,273.30845880007837,None,274.0633901000256,None,left,0.2612718000309542,274.0633901000256,None,,,,,,,,,,,,,,,,,,,,,,,PPT40,001,2022-07-07_12h34.55.191,ABstudy,2022.1.4,59.928756723608586,
AB,Lag5_T1P_T2P,5,P,P,6,11,5,5,16,motorcycle,Did you see the motorcycle?,0.12,0.016,JPG\,cucumber,ring01,lipstick02a,microscope,violin,motorcycle,celery,lighter01,cherry01,sewingmachine01a,stapler04b,key01,binoculars01b,medal02b,watermelon01,dice05a,blankImage,motorcycle,,,,,,,,,,,,0,16,16,93,,,,,,,,,,,,,,,,,,,,,,,,,,,,,,,,,,,274.35129720007535,275.365057200077,275.3491840000497,275.93168729997706,275.93168729997706,None,277.8977755999658,None,left,1.018378600012511,277.8977755999658,None,278.9346229999792,None,right,0.46257769991643727,278.9346229999792,None,,,,,,,,,,,,,,,,,,,,,,,PPT40,001,2022-07-07_12h34.55.191,ABstudy,2022.1.4,59.928756723608586,
AB,Lag5_T1P_T2A,5,P,A,6,11,5,3,14,Balcony,Did you see the Balcony?,0.12,0.016,JPG\,tomato01,pen04b,shirt02,carrot01,lamp04a,balcony02,pizza,avocado01,sewingmachine01a,apple07,iron01b,book01b,chain01,sock01a,blankImage,blankImage,blankImage,balcony02,,,,,,,,,,,,0,17,17,207,,,,,,,,,,,,,,,,,,,,,,,,,,,,,,,,,,,279.4208150000777,280.4361282000318,280.4027823000215,280.98244330007583,280.98244330007583,None,282.75343959999736,None,left,1.0754613999743015,282.75343959999736,None,283.85664250003174,None,right,0.33986409998033196,283.85664250003174,None,,,,,,,,,,,,,,,,,,,,,,,PPT40,001,2022-07-07_12h34.55.191,ABstudy,2022.1.4,59.928756723608586,
AB,Lag1_T1P_T2P,1,P,P,8,9,7,4,13,peacock,Did you see the peacock?,0.12,0.016,JPG\,hammer01,sponge01,toaster01,cherry01,feather03a,mushroom01,measuringcup01,peacock,stapler03a,brick,clock04,medal02b,teabag,blankImage,blankImage,blankImage,blankImage,peacock,,,,,,,,,,,,0,18,18,68,,,,,,,,,,,,,,,,,,,,,,,,,,,,,,,,,,,284.22938280005474,285.2411048000213,285.22444030002225,285.8085500000743,285.8085500000743,None,287.4195242000278,None,left,1.4974923999980092,287.4195242000278,None,288.94457759999204,None,right,0.26769889995921403,288.94457759999204,None,,,,,,,,,,,,,,,,,,,,,,,PPT40,001,2022-07-07_12h34.55.191,ABstudy,2022.1.4,59.928756723608586,
AB,Lag5_T1P_T2P,5,P,P,5,10,4,5,15,scorpion,Did you see the scorpion?,0.12,0.016,JPG\,fan,tomato01,candy,screwdriver04b,scorpion,cd,thermometer02b,apple07,button01,stapler01,brownsugar,lighter01,clock01a,envelope03a,clock04,blankImage,blankImage,scorpion,,,,,,,,,,,,0,19,19,97,,,,,,,,,,,,,,,,,,,,,,,,,,,,,,,,,,,289.24817150004674,290.2626250999747,290.2294315000763,290.83651330007706,290.83651330007706,None,292.65144970000256,None,left,1.6180327999172732,292.65144970000256,None,294.30022279999685,None,right,0.39324790006503463,294.30022279999685,None,,,,,,,,,,,,,,,,,,,,,,,PPT40,001,2022-07-07_12h34.55.191,ABstudy,2022.1.4,59.928756723608586,
AB,Lag1_T1P_T2P,1,P,P,5,6,4,3,9,Escalator,Did you see the Escalator?,0.12,0.016,JPG\,celery,pencil01,fan,foosballtable,escalator,stapler05,potato02b,fork03c,button01,blankImage,blankImage,blankImage,blankImage,blankImage,blankImage,blankImage,blankImage,escalator,,,,,,,,,,,,0,20,20,82,,,,,,,,,,,,,,,,,,,,,,,,,,,,,,,,,,,294.72209000005387,295.7348144999705,295.71798249997664,296.30044760007877,296.30044760007877,None,297.3674509000266,None,left,1.7973241000436246,297.3674509000266,None,299.1885832999833,None,left,0.2561499000294134,299.1885832999833,None,,,,,,,,,,,,,,,,,,,,,,,PPT40,001,2022-07-07_12h34.55.191,ABstudy,2022.1.4,59.928756723608586,
AB,Lag5_T1A_T2P,5,A,P,5,10,4,4,14,Chefs hat,Did you see the Chefs hat?,0.12,0.016,JPG\,candle01,fork03c,plate01b,violin,computerkeyboard02,candy,calculator01,paintbrush01,cherry01,stapler06,teabag,banana01,cd,lighter01,blankImage,blankImage,blankImage,horseshoe,,,,,,,,,,,,0,21,21,278,,,,,,,,,,,,,,,,,,,,,,,,,,,,,,,,,,,299.52168220002204,300.523051999975,300.5062818999868,301.0855534999864,301.0855534999864,None,302.75392549997196,None,right,1.2420070000225678,302.75392549997196,None,304.02657079999335,None,left,0.6983327000634745,304.02657079999335,None,,,,,,,,,,,,,,,,,,,,,,,PPT40,001,2022-07-07_12h34.55.191,ABstudy,2022.1.4,59.928756723608586,
AB,Lag1_T1P_T2A,1,P,A,8,9,7,4,13,boat,Did you see the boat?,0.12,0.016,JPG\,fork03c,dandelion,dice05a,belt02a,onion,watch02a,key01,boat,eraser,medal02b,greenolive,shirt02,candle08b,blankImage,blankImage,blankImage,blankImage,boat,,,,,,,,,,,,0,22,22,199,,,,,,,,,,,,,,,,,,,,,,,,,,,,,,,,,,,304.7471768000396,305.76162830006797,305.7281606000615,306.3278433000669,306.3278433000669,None,307.99460730003193,None,right,1.4815801000222564,307.99460730003193,None,309.49931760004256,None,right,0.3619712999789044,309.49931760004256,None,,,,,,,,,,,,,,,,,,,,,,,PPT40,001,2022-07-07_12h34.55.191,ABstudy,2022.1.4,59.928756723608586,
AB,Lag1_T1A_T2A,1,A,A,5,6,4,3,9,Pigeon,Did you see the Pigeon?,0.12,0.016,JPG\,candle01,paintbrush01,scissors01,fan,microscope,toothbrush03b,candle08b,watermelon01,teabag,blankImage,blankImage,blankImage,blankImage,blankImage,blankImage,blankImage,blankImage,floorlamp,,,,,,,,,,,,0,23,23,286,,,,,,,,,,,,,,,,,,,,,,,,,,,,,,,,,,,309.88961579999886,310.89968570007477,310.8829724000534,311.4816550000105,311.4816550000105,None,312.5472465000348,None,right,2.3854224999668077,312.5472465000348,None,314.953814700013,None,right,0.37867210002150387,314.953814700013,None,,,,,,,,,,,,,,,,,,,,,,,PPT40,001,2022-07-07_12h34.55.191,ABstudy,2022.1.4,59.928756723608586,
AB,Lag1_T1P_T2P,1,P,P,8,9,7,3,12,mail box,Did you see the mail box?,0.12,0.016,JPG\,paintbrush01,dice05a,watermelon01,broccoli01a,hammer01,leaf02a,match,mailbox01,stapler05,fan,lipstick02a,grape01,blankImage,blankImage,blankImage,blankImage,blankImage,mailbox01,,,,,,,,,,,,0,24,24,20,,,,,,,,,,,,,,,,,,,,,,,,,,,,,,,,,,,315.3577477000654,316.37195459997747,316.33862940000836,316.91019780002534,316.91019780002534,None,318.4066929999972,None,right,1.34200010006316,318.4066929999972,None,319.775324700051,None,left,0.397219100035727,319.775324700051,None,,,,,,,,,,,,,,,,,,,,,,,PPT40,001,2022-07-07_12h34.55.191,ABstudy,2022.1.4,59.928756723608586,
AB,Lag5_T1P_T2P,5,P,P,8,13,7,5,18,bed,Did you see the bed?,0.12,0.016,JPG\,pencil01,broccoli01a,button01,sponge01,watermelon01,lipstick02a,comb02a,bed,lighter01,sock01a,spoon01,blueberry01,stapler04b,onion,grape01,avocado01,blankImage,bed,,,,,,,,,,,,0,25,25,124,,,,,,,,,,,,,,,,,,,,,,,,,,,,,,,,,,,320.1946134000318,321.21004240005277,321.1767442000564,321.74480800004676,321.74480800004676,None,323.7532191000646,None,left,0.9557600000407547,323.7532191000646,None,324.7302469999995,None,left,0.26697320002131164,324.7302469999995,None,,,,,,,,,,,,,,,,,,,,,,,PPT40,001,2022-07-07_12h34.55.191,ABstudy,2022.1.4,59.928756723608586,
AB,Lag5_T1P_T2A,5,P,A,6,11,5,5,16,hat,Did you see the hat?,0.12,0.016,JPG\,apple07,toiletpaper01a,pizza,dandelion,greenolive,pilgrimhat,microscope,violin,orange,lipstick02a,balloon01b,sandal,lighter01,fan,book01b,sewingmachine01a,blankImage,pilgrimhat,,,,,,,,,,,,0,26,26,206,,,,,,,,,,,,,,,,,,,,,,,,,,,,,,,,,,,325.01623910001945,326.0315346000716,325.99824029998854,326.5823756000027,326.5823756000027,None,328.64662340003997,None,left,1.085755700012669,328.64662340003997,None,329.752316600061,None,right,0.42810549994464964,329.752316600061,None,,,,,,,,,,,,,,,,,,,,,,,PPT40,001,2022-07-07_12h34.55.191,ABstudy,2022.1.4,59.928756723608586,
AB,Lag1_T1P_T2P,1,P,P,6,7,5,4,11,bowling pin,Did you see the bowling pin?,0.12,0.016,JPG\,strawberry,leaf02a,clock04,candle01,avocado01,bowlingpin,stapler03a,brownsugar,ring01,lemon02,fork03c,blankImage,blankImage,blankImage,blankImage,blankImage,blankImage,bowlingpin,,,,,,,,,,,,0,27,27,8,,,,,,,,,,,,,,,,,,,,,,,,,,,,,,,,,,,330.2093487000093,331.2202560000587,331.2035133000463,331.7954385000048,331.7954385000048,None,333.11299779999536,None,left,0.9154117000289261,333.11299779999536,None,334.05662340007257,None,left,0.5080534999724478,334.05662340007257,None,,,,,,,,,,,,,,,,,,,,,,,PPT40,001,2022-07-07_12h34.55.191,ABstudy,2022.1.4,59.928756723608586,
AB,Lag5_T1A_T2P,5,A,P,7,12,6,4,16,church,Did you see the church?,0.12,0.016,JPG\,printer02,leaf02a,cauliflower01,sock01a,brownsugar,paintbrush01,pig,orange,belt02a,shirt02,key01,stapler06,cigarette,scissors01,envelope03a,blueberry01,blankImage,ant,,,,,,,,,,,,0,28,28,279,,,,,,,,,,,,,,,,,,,,,,,,,,,,,,,,,,,334.59461969998665,335.6079353999812,335.59117170004174,336.1863177000778,336.1863177000778,None,338.12720940005966,None,right,1.1969978999113664,338.12720940005966,None,339.3460636000382,None,left,0.3541304999962449,339.3460636000382,None,,,,,,,,,,,,,,,,,,,,,,,PPT40,001,2022-07-07_12h34.55.191,ABstudy,2022.1.4,59.928756723608586,
AB,Lag1_T1P_T2P,1,P,P,5,6,4,4,10,skateboard,Did you see the skateboard?,0.12,0.016,JPG\,binoculars01b,cymbal,pizza,candy,skateboard,stapler05,grape01,thermometer02b,speaker04,lemon02,blankImage,blankImage,blankImage,blankImage,blankImage,blankImage,blankImage,skateboard,,,,,,,,,,,,0,29,29,25,,,,,,,,,,,,,,,,,,,,,,,,,,,,,,,,,,,339.73705710005015,340.74650500004645,340.72990280005615,341.3092744000023,341.3092744000023,None,342.51853060000576,None,left,0.8696665000170469,342.51853060000576,None,343.41608230001293,None,left,0.27640580001752824,343.41608230001293,None,,,,,,,,,,,,,,,,,,,,,,,PPT40,001,2022-07-07_12h34.55.191,ABstudy,2022.1.4,59.928756723608586,
AB,Lag5_T1A_T2P,5,A,P,8,13,7,5,18,fish,Did you see the fish?,0.12,0.016,JPG\,scissors01,grape01,mushroom01,toiletpaper01a,greenolive,pizza,cigarette,ashtray01,carrot01,pineapple01a,foosballtable,lipstick02a,stapler04b,tambourine02,potato02b,violin,blankImage,chimney,,,,,,,,,,,,0,30,30,283,,,,,,,,,,,,,,,,,,,,,,,,,,,,,,,,,,,343.71916249999776,344.7336814000737,344.7002430000575,345.27607869997155,345.27607869997155,None,347.25144050002564,None,right,0.9773840999696404,347.25144050002564,None,348.2564792999765,None,left,0.2998444000259042,348.2564792999765,None,,,,,,,,,,,,,,,,,,,,,,,PPT40,001,2022-07-07_12h34.55.191,ABstudy,2022.1.4,59.928756723608586,
AB,Lag1_T1P_T2P,1,P,P,5,6,4,5,11,Guitar case,Did you see the Guitar case?,0.12,0.016,JPG\,broccoli01a,scissors01,toothbrush03b,foosballtable,guitarcase,stapler05,hammer01,toiletpaper01a,cd,garlic01a,carrot01,blankImage,blankImage,blankImage,blankImage,blankImage,blankImage,guitarcase,,,,,,,,,,,,0,31,31,14,,,,,,,,,,,,,,,,,,,,,,,,,,,,,,,,,,,348.60294420004357,349.6050514000235,349.588384600007,350.16894900007173,350.16894900007173,None,351.5102968000574,None,left,0.9902636000188068,351.5102968000574,None,352.52518300001975,None,right,0.23127949994523078,352.52518300001975,None,,,,,,,,,,,,,,,,,,,,,,,PPT40,001,2022-07-07_12h34.55.191,ABstudy,2022.1.4,59.928756723608586,
AB,Lag5_T1P_T2P,5,P,P,7,12,6,3,15,Rollerblade,Did you see the Rollerblade?,0.12,0.016,JPG\,hammer01,sponge01,toaster01,cherry01,feather03a,mushroom01,rollerblade,pencil01,tennisball01b,brick,clock04,stapler06,teabag,garlic01a,envelope03a,blankImage,blankImage,rollerblade,,,,,,,,,,,,0,32,32,116,,,,,,,,,,,,,,,,,,,,,,,,,,,,,,,,,,,352.8303131000139,353.8428014999954,353.8260684000561,354.4153510000324,354.4153510000324,None,356.1820360000711,None,left,0.7992601000005379,356.1820360000711,None,357.0126571999863,None,left,1.0158918000524864,357.0126571999863,None,,,,,,,,,,,,,,,,,,,,,,,PPT40,001,2022-07-07_12h34.55.191,ABstudy,2022.1.4,59.928756723608586,
AB,Lag1_T1P_T2P,1,P,P,6,7,5,3,10,cupcake,Did you see the cupcake?,0.12,0.016,JPG\,printer02,leaf02a,cauliflower01,sock01a,brownsugar,cupcake,stapler01,orange,belt02a,shirt02,blankImage,blankImage,blankImage,blankImage,blankImage,blankImage,blankImage,cupcake,,,,,,,,,,,,0,33,33,38,,,,,,,,,,,,,,,,,,,,,,,,,,,,,,,,,,,358.0527328000171,359.06470920005813,359.0481537000742,359.67671130003873,359.67671130003873,None,360.88579510001,None,left,0.8544941999716684,360.88579510001,None,361.7669667999726,None,left,0.6292724999366328,361.7669667999726,None,,,,,,,,,,,,,,,,,,,,,,,PPT40,001,2022-07-07_12h34.55.191,ABstudy,2022.1.4,59.928756723608586,
AB,Lag1_T1A_T2P,1,A,P,8,9,7,5,14,clock,Did you see the clock?,0.12,0.016,JPG\,speaker04,sewingmachine01a,eraser,violin,globe,belt02a,sunglasses04,cymbal,stapler01,greenolive,alligator,pear01,watch02a,screwdriver04b,blankImage,blankImage,blankImage,peacock,,,,,,,,,,,,0,34,34,240,,,,,,,,,,,,,,,,,,,,,,,,,,,,,,,,,,,362.4198406999931,363.43541689997073,363.4019069999922,363.98725090001244,363.98725090001244,None,365.68253440002445,None,right,1.11388740001712,365.68253440002445,None,366.82253040000796,None,right,0.31886979995761067,366.82253040000796,None,,,,,,,,,,,,,,,,,,,,,,,PPT40,001,2022-07-07_12h34.55.191,ABstudy,2022.1.4,59.928756723608586,
AB,Lag1_T1P_T2A,1,P,A,5,6,4,5,11,Electric toothbrush,Did you see the Electric toothbrush?,0.12,0.016,JPG\,carrot01,greenolive,fork03c,chain01,electrictoothbrush01c,watermelon01,tableknife02,printer02,comb02a,toaster01,orange,blankImage,blankImage,blankImage,blankImage,blankImage,blankImage,electrictoothbrush01c,,,,,,,,,,,,0,35,35,186,,,,,,,,,,,,,,,,,,,,,,,,,,,,,,,,,,,367.1796922000358,368.1903873999836,368.17359590006527,368.76143399998546,368.76143399998546,None,370.1460934000788,None,left,1.0579416999826208,370.1460934000788,None,371.22690800006967,None,right,0.4182503999909386,371.22690800006967,None,,,,,,,,,,,,,,,,,,,,,,,PPT40,001,2022-07-07_12h34.55.191,ABstudy,2022.1.4,59.928756723608586,
AB,Lag5_T1A_T2P,5,A,P,7,12,6,3,15,hockey puck,Did you see the hockey puck?,0.12,0.016,JPG\,toiletpaper01a,lipstick02a,potato02b,speaker04,globe,strawberry,carrot01,plate01b,sock01a,candle08b,pen04b,stapler04b,foosballtable,brick,pear01,blankImage,blankImage,frisbee,,,,,,,,,,,,0,36,36,260,,,,,,,,,,,,,,,,,,,,,,,,,,,,,,,,,,,371.6840091000777,372.6948655999731,372.6782786999829,373.2592786999885,373.2592786999885,None,375.11280510004144,None,right,1.0518365999450907,375.11280510004144,None,376.1818574999925,None,right,0.3581688000122085,376.1818574999925,None,,,,,,,,,,,,,,,,,,,,,,,PPT40,001,2022-07-07_12h34.55.191,ABstudy,2022.1.4,59.928756723608586,
AB,Lag5_T1P_T2P,5,P,P,7,12,6,5,17,elbow,Did you see the elbow?,0.12,0.016,JPG\,candle01,fork03c,plate01b,violin,computerkeyboard02,candy,elbow,paintbrush01,cherry01,sock01a,teabag,stapler01,cd,lighter01,book01b,tennisball01b,blankImage,elbow,,,,,,,,,,,,0,37,37,87,,,,,,,,,,,,,,,,,,,,,,,,,,,,,,,,,,,376.62851830001455,377.6331885000691,377.61657159996685,378.2097168000182,378.2097168000182,None,380.1084551999811,None,left,1.2557964000152424,380.1084551999811,None,381.3870509000262,None,left,0.25732510001398623,381.3870509000262,None,,,,,,,,,,,,,,,,,,,,,,,PPT40,001,2022-07-07_12h34.55.191,ABstudy,2022.1.4,59.928756723608586,
AB,Lag1_T1P_T2P,1,P,P,6,7,5,5,12,Snowboard,Did you see the Snowboard?,0.12,0.016,JPG\,belt02a,measuringcup01,spoon01,chain01,greenolive,snowboard,stapler01,onion,fan,strawberry,candle01,broom01,blankImage,blankImage,blankImage,blankImage,blankImage,snowboard,,,,,,,,,,,,0,38,38,49,,,,,,,,,,,,,,,,,,,,,,,,,,,,,,,,,,,381.6801369000459,382.6879688000772,382.67130929999985,383.2459422000684,383.2459422000684,None,384.79979000007734,None,left,1.260236500063911,384.79979000007734,None,386.0915728000691,None,left,0.25649820000398904,386.0915728000691,None,,,,,,,,,,,,,,,,,,,,,,,PPT40,001,2022-07-07_12h34.55.191,ABstudy,2022.1.4,59.928756723608586,
AB,Lag5_T1P_T2P,5,P,P,5,10,4,5,15,baseball bat,Did you see the baseball bat?,0.12,0.016,JPG\,pizza,printer02,medal02b,spoon01,baseballbat,lighter01,belt02a,watermelon01,celery,stapler04b,screw02,comb02a,cauliflower01,lipstick02a,potato02b,blankImage,blankImage,baseballbat,,,,,,,,,,,,0,39,39,123,,,,,,,,,,,,,,,,,,,,,,,,,,,,,,,,,,,386.37747539998963,387.3765770000173,387.3608109999914,388.03644120006356,388.03644120006356,None,389.7528127999976,None,left,1.6829953000415117,389.7528127999976,None,391.4662456000224,None,right,0.28264130000025034,391.4662456000224,None,,,,,,,,,,,,,,,,,,,,,,,PPT40,001,2022-07-07_12h34.55.191,ABstudy,2022.1.4,59.928756723608586,
AB,Lag1_T1P_T2P,1,P,P,5,6,4,5,11,owl,Did you see the owl?,0.12,0.016,JPG\,cellphone,tomato01,comb02a,candy,barnowl,stapler03a,toaster01,fan,feather03a,pen04b,lemon02,blankImage,blankImage,blankImage,blankImage,blankImage,blankImage,barnowl,,,,,,,,,,,,0,40,40,33,,,,,,,,,,,,,,,,,,,,,,,,,,,,,,,,,,,391.78920420003124,392.7978598000482,392.7812494999962,393.3552727000788,393.3552727000788,None,394.723637899966,None,left,0.9456620001001284,394.723637899966,None,395.7011595000513,None,right,0.20000069995876402,395.7011595000513,None,,,,,,,,,,,,,,,,,,,,,,,PPT40,001,2022-07-07_12h34.55.191,ABstudy,2022.1.4,59.928756723608586,
AB,Lag1_T1P_T2A,1,P,A,6,7,5,5,12,Barn,Did you see the Barn?,0.12,0.016,JPG\,celery,pencil01,fan,foosballtable,iron01b,barn,potato02b,fork03c,button01,pineapple01a,baseball01a,printer02,blankImage,blankImage,blankImage,blankImage,blankImage,barn,,,,,,,,,,,,0,41,41,181,,,,,,,,,,,,,,,,,,,,,,,,,,,,,,,,,,,395.9226494000759,396.935694099986,396.91889169998467,397.50605490000453,397.50605490000453,None,398.96295159996953,None,left,0.7050909000681713,398.96295159996953,None,399.6892483000411,None,right,0.1947408999549225,399.6892483000411,None,,,,,,,,,,,,,,,,,,,,,,,PPT40,001,2022-07-07_12h34.55.191,ABstudy,2022.1.4,59.928756723608586,
AB,Lag5_T1P_T2A,5,P,A,5,10,4,3,13,martini glass,Did you see the martini glass?,0.12,0.016,JPG\,brick,eraser,cucumber,ashtray01,martiniglass01b,binoculars01b,lipstick02a,screwdriver04b,grape01,brownsugar,battery02b,iron01b,dice05a,blankImage,blankImage,blankImage,blankImage,martiniglass01b,,,,,,,,,,,,0,42,42,217,,,,,,,,,,,,,,,,,,,,,,,,,,,,,,,,,,,399.91253490000963,400.92260160006117,400.9058933000779,401.48607189999893,401.48607189999893,None,403.0925674000755,None,left,1.895215299911797,403.0925674000755,None,405.0100210000528,None,right,0.20980920002330095,405.0100210000528,None,,,,,,,,,,,,,,,,,,,,,,,PPT40,001,2022-07-07_12h34.55.191,ABstudy,2022.1.4,59.928756723608586,
AB,Lag1_T1P_T2P,1,P,P,6,7,5,3,10,spider web,Did you see the spider web?,0.12,0.016,JPG\,toaster01,chain01,sponge01,baseball01a,carrot01,spiderweb,stapler03b,iron01b,grape01,brick,blankImage,blankImage,blankImage,blankImage,blankImage,blankImage,blankImage,spiderweb,,,,,,,,,,,,0,43,43,72,,,,,,,,,,,,,,,,,,,,,,,,,,,,,,,,,,,405.24578890006524,406.24536760000046,406.2298393000383,406.8604011000134,406.8604011000134,None,408.0297730000457,None,left,0.6787776999408379,408.0297730000457,None,408.7312186000636,None,left,0.17648789996746927,408.7312186000636,None,,,,,,,,,,,,,,,,,,,,,,,PPT40,001,2022-07-07_12h34.55.191,ABstudy,2022.1.4,59.928756723608586,
AB,Lag5_T1P_T2P,5,P,P,6,11,5,4,15,saxophone,Did you see the saxophone?,0.12,0.016,JPG\,pizza,strawberry,potato02b,speaker04,battery02b,saxophone,dice05a,cellphone,globe,banana01,stapler03b,baseball01a,toaster01,broom01,ring01,blankImage,blankImage,saxophone,,,,,,,,,,,,0,44,44,117,,,,,,,,,,,,,,,,,,,,,,,,,,,,,,,,,,,408.9334072000347,409.9486393000698,409.9151162999915,410.49326320004184,410.49326320004184,None,412.2991186999716,None,left,0.378207000088878,412.2991186999716,None,412.7011538000079,None,left,0.2788652000017464,412.7011538000079,None,,,,,,,,,,,,,,,,,,,,,,,PPT40,001,2022-07-07_12h34.55.191,ABstudy,2022.1.4,59.928756723608586,
AB,Lag1_T1P_T2A,1,P,A,5,6,4,5,11,Moon,Did you see the Moon?,0.12,0.016,JPG\,lamp04a,broccoli01a,alligator,garlic01a,moon,brownsugar,avocado01,ring01,leaf02a,cellphone,medal02b,blankImage,blankImage,blankImage,blankImage,blankImage,blankImage,moon,,,,,,,,,,,,0,45,45,190,,,,,,,,,,,,,,,,,,,,,,,,,,,,,,,,,,,413.00325160007924,414.0027911000652,413.98611200007144,414.571968400036,414.571968400036,None,415.96428109996486,None,right,1.1276632999069989,415.96428109996486,None,417.1226724999724,None,right,0.257179299951531,417.1226724999724,None,,,,,,,,,,,,,,,,,,,,,,,PPT40,001,2022-07-07_12h34.55.191,ABstudy,2022.1.4,59.928756723608586,
AB,Lag5_T1P_T2P,5,P,P,5,10,4,5,15,Eye,Did you see the Eye?,0.12,0.016,JPG\,apple07,toiletpaper01a,pizza,dandelion,eye,eraser,microscope,violin,orange,stapler01,balloon01b,sandal,lighter01,fan,book01b,blankImage,blankImage,eye,,,,,,,,,,,,0,46,46,171,,,,,,,,,,,,,,,,,,,,,,,,,,,,,,,,,,,417.41915380000137,418.42384820000734,418.39060879999306,418.9879693000112,418.9879693000112,None,420.78505160007626,None,left,0.3874140999978408,420.78505160007626,None,421.1943219000241,None,left,0.26729749992955476,421.1943219000241,None,,,,,,,,,,,,,,,,,,,,,,,PPT40,001,2022-07-07_12h34.55.191,ABstudy,2022.1.4,59.928756723608586,
AB,Lag5_T1P_T2A,5,P,A,6,11,5,5,16,fish,Did you see the fish?,0.12,0.016,JPG\,cucumber,ring01,lipstick02a,microscope,violin,redlionfish,celery,lighter01,cherry01,sewingmachine01a,belt02a,key01,binoculars01b,medal02b,watermelon01,dice05a,blankImage,redlionfish,,,,,,,,,,,,0,47,47,221,,,,,,,,,,,,,,,,,,,,,,,,,,,,,,,,,,,421.4976137999911,422.51154940004926,422.49596550001297,423.0993125999812,423.0993125999812,None,425.003688900033,None,left,0.6325081000104547,425.003688900033,None,425.6650883000111,None,right,0.21928249998018146,425.6650883000111,None,,,,,,,,,,,,,,,,,,,,,,,PPT40,001,2022-07-07_12h34.55.191,ABstudy,2022.1.4,59.928756723608586,
AB,Lag1_T1P_T2P,1,P,P,5,6,4,3,9,hockey stick,Did you see the hockey stick?,0.12,0.016,JPG\,violin,pizza,toothbrush03b,pineapple01a,hockeystick,stapler03b,candy,dandelion,clock04,blankImage,blankImage,blankImage,blankImage,blankImage,blankImage,blankImage,blankImage,hockeystick,,,,,,,,,,,,0,48,48,63,,,,,,,,,,,,,,,,,,,,,,,,,,,,,,,,,,,425.9159215000691,426.9155179000227,426.89875170006417,427.48203010007273,427.48203010007273,None,428.63296109996736,None,left,0.5794337000697851,428.63296109996736,None,429.2341844000621,None,left,0.24337010004092008,429.2341844000621,None,,,,,,,,,,,,,,,,,,,,,,,PPT40,001,2022-07-07_12h34.55.191,ABstudy,2022.1.4,59.928756723608586,
AB,Lag1_T1P_T2A,1,P,A,7,8,6,3,11,walkie talkie,Did you see the walkie talkie?,0.12,0.016,JPG\,teabag,envelope03a,cellphone,apple07,cauliflower01,orange,walkietalkie,book01b,hammer01,feather03a,toaster01,blankImage,blankImage,blankImage,blankImage,blankImage,blankImage,walkietalkie,,,,,,,,,,,,0,49,49,197,,,,,,,,,,,,,,,,,,,,,,,,,,,,,,,,,,,429.50497600005474,430.5189018000383,430.50221180007793,431.0978545000544,431.0978545000544,None,432.4160529000219,None,left,0.6760696000419557,432.4160529000219,None,433.12226119998377,None,right,0.25897309998981655,433.12226119998377,None,,,,,,,,,,,,,,,,,,,,,,,PPT40,001,2022-07-07_12h34.55.191,ABstudy,2022.1.4,59.928756723608586,
AB,Lag5_T1A_T2P,5,A,P,5,10,4,5,15,Eye patch,Did you see the Eye patch?,0.12,0.016,JPG\,scissors01,balloon01b,eraser,feather03a,banana01,candle01,measuringcup01,calculator01,thermometer02b,stapler03b,pear01,carrot01,globe,baseball01a,leaf02a,blankImage,blankImage,cross01,,,,,,,,,,,,0,50,50,258,,,,,,,,,,,,,,,,,,,,,,,,,,,,,,,,,,,433.41209240001626,434.4230974999955,434.40624340006616,434.9793151000049,434.9793151000049,None,436.8324024999747,None,right,0.6913417000323534,436.8324024999747,None,437.5429110999685,None,left,0.26064340001903474,437.5429110999685,None,,,,,,,,,,,,,,,,,,,,,,,PPT40,001,2022-07-07_12h34.55.191,ABstudy,2022.1.4,59.928756723608586,
AB,Lag5_T1P_T2P,5,P,P,8,13,7,5,18,sock,Did you see the sock?,0.12,0.016,JPG\,thermometer02b,avocado01,scissors01,tennisball01b,medal02b,banana01,strawberry,athleticsock,potato02b,pineapple01a,microscope,cymbal,stapler03b,celery,garlic01a,sunglasses04,blankImage,athleticsock,,,,,,,,,,,,0,51,51,141,,,,,,,,,,,,,,,,,,,,,,,,,,,,,,,,,,,437.8310613000067,438.8441073000431,438.827327099978,439.4305746000027,439.4305746000027,None,441.34214940003585,None,right,0.7502527999458835,441.34214940003585,None,442.1141861000797,None,left,0.2583074999274686,442.1141861000797,None,,,,,,,,,,,,,,,,,,,,,,,PPT40,001,2022-07-07_12h34.55.191,ABstudy,2022.1.4,59.928756723608586,
AB,Lag1_T1P_T2P,1,P,P,5,6,4,5,11,beaver,Did you see the beaver?,0.12,0.016,JPG\,belt02a,sunglasses04,computerkeyboard02,cherry01,beaver,stapler03a,watch02a,dice05a,blueberry01,spoon01,match,blankImage,blankImage,blankImage,blankImage,blankImage,blankImage,beaver,,,,,,,,,,,,0,52,52,55,,,,,,,,,,,,,,,,,,,,,,,,,,,,,,,,,,,442.4009363000514,443.4152691999916,443.3819178000558,443.9891827000538,443.9891827000538,None,445.2851766999811,None,left,0.918500900035724,445.2851766999811,None,446.2353326000739,None,left,0.25738590001128614,446.2353326000739,None,,,,,,,,,,,,,,,,,,,,,,,PPT40,001,2022-07-07_12h34.55.191,ABstudy,2022.1.4,59.928756723608586,
AB,Lag5_T1P_T2P,5,P,P,8,13,7,5,18,Kiwi,Did you see the Kiwi?,0.12,0.016,JPG\,violin,pizza,toothbrush03b,pineapple01a,banana01,ashtray01,candy,kiwi03,clock04,sock01a,microscope,speaker04,stapler04b,sunglasses04,lipstick02a,blueberry01,blankImage,kiwi03,,,,,,,,,,,,0,53,53,111,,,,,,,,,,,,,,,,,,,,,,,,,,,,,,,,,,,446.5249504999956,447.53568159998395,447.5189362000674,448.09849230002146,448.09849230002146,None,450.0863032999914,None,left,0.4225808000192046,450.0863032999914,None,450.53908830008004,None,left,0.4491572000551969,450.53908830008004,None,,,,,,,,,,,,,,,,,,,,,,,PPT40,001,2022-07-07_12h34.55.191,ABstudy,2022.1.4,59.928756723608586,
AB,Lag1_T1P_T2P,1,P,P,8,9,7,4,13,bowling ball,Did you see the bowling ball?,0.12,0.016,JPG\,dandelion,pineapple01a,broom01,pen04b,sock01a,sandal,foosballtable,bowlingball,stapler01,toothbrush03b,celery,candle08b,tennisball01b,blankImage,blankImage,blankImage,blankImage,bowlingball,,,,,,,,,,,,0,54,54,7,,,,,,,,,,,,,,,,,,,,,,,,,,,,,,,,,,,451.05022249999456,452.0572055999655,452.0404032000806,452.5425277000759,452.5425277000759,None,454.202077700058,None,right,0.8426672999048606,454.202077700058,None,455.0766958000604,None,left,0.2549771999474615,455.0766958000604,None,,,,,,,,,,,,,,,,,,,,,,,PPT40,001,2022-07-07_12h34.55.191,ABstudy,2022.1.4,59.928756723608586,
AB,Lag5_T1P_T2A,5,P,A,8,13,7,3,16,leaf blower,Did you see the leaf blower?,0.12,0.016,JPG\,printer02,leaf02a,cauliflower01,sock01a,brownsugar,paintbrush01,pig,leafblower01,belt02a,shirt02,key01,match,cigarette,scissors01,envelope03a,blueberry01,blankImage,leafblower01,,,,,,,,,,,,0,55,55,216,,,,,,,,,,,,,,,,,,,,,,,,,,,,,,,,,,,455.36303690006025,456.377989300061,456.3613250000635,457.0329459999921,456.9420960000716,None,458.8915542999748,None,right,1.9843964000465348,458.8915542999748,None,460.8995365999872,None,left,0.2562170000746846,460.8995365999872,None,,,,,,,,,,,,,,,,,,,,,,,PPT40,001,2022-07-07_12h34.55.191,ABstudy,2022.1.4,59.928756723608586,
AB,Lag1_T1P_T2P,1,P,P,5,6,4,5,11,Light switch,Did you see the Light switch?,0.12,0.016,JPG\,iron01b,orange,birthdaycandle,potato02b,lightswitch01,stapler03b,key01,candle08b,celery,tableknife02,pen04b,blankImage,blankImage,blankImage,blankImage,blankImage,blankImage,lightswitch01,,,,,,,,,,,,0,56,56,18,,,,,,,,,,,,,,,,,,,,,,,,,,,,,,,,,,,461.1903541000793,462.20065690006595,462.18407349998597,462.75209840002935,462.75209840002935,None,464.10974490002263,None,right,0.7582506999606267,464.10974490002263,None,464.8861519000493,None,left,0.22233580006286502,464.8861519000493,None,,,,,,,,,,,,,,,,,,,,,,,PPT40,001,2022-07-07_12h34.55.191,ABstudy,2022.1.4,59.928756723608586,
AB,Lag5_T1A_T2P,5,A,P,6,11,5,4,15,fish,Did you see the fish?,0.12,0.016,JPG\,pingpongpaddle01c,banana01,scissors01,pig,shirt02,leaf02a,pear01,sponge01,fork03c,tableknife02,stapler03a,match,toothbrush03b,birthdaycandle,candle01,blankImage,blankImage,lighthouse,,,,,,,,,,,,0,57,57,265,,,,,,,,,,,,,,,,,,,,,,,,,,,,,,,,,,,465.13978430000134,466.15474590007216,466.12127340002917,466.6988301000092,466.6988301000092,None,468.5142290000804,None,right,0.7772197000449523,468.5142290000804,None,469.3241960000014,None,right,0.5690225000726059,469.3241960000014,None,,,,,,,,,,,,,,,,,,,,,,,PPT40,001,2022-07-07_12h34.55.191,ABstudy,2022.1.4,59.928756723608586,
AB,Lag1_T1A_T2P,1,A,P,8,9,7,3,12,porcupine,Did you see the porcupine?,0.12,0.016,JPG\,celery,orange,scissors01,balloon01b,avocado01,printer02,mushroom01,sewingmachine01a,stapler01,dice05a,ashtray01,fan,blankImage,blankImage,blankImage,blankImage,blankImage,drumstick,,,,,,,,,,,,0,58,58,233,,,,,,,,,,,,,,,,,,,,,,,,,,,,,,,,,,,469.9274976999732,470.94248319999315,470.90914740005974,471.4839201000286,471.4839201000286,None,472.9424186999677,None,right,0.7257599000586197,472.9424186999677,None,473.69558280007914,None,right,0.3646768000908196,473.69558280007914,None,,,,,,,,,,,,,,,,,,,,,,,PPT40,001,2022-07-07_12h34.55.191,ABstudy,2022.1.4,59.928756723608586,
AB,Lag5_T1P_T2P,5,P,P,7,12,6,5,17,Badminton Racket,Did you see the Badminton Racket?,0.12,0.016,JPG\,paintbrush01,dice05a,watermelon01,broccoli01a,hammer01,leaf02a,badmintonracket,tennisball01b,lemon02,fan,lipstick02a,stapler04b,envelope03a,sponge01,foosballtable,orange,blankImage,badmintonracket,,,,,,,,,,,,0,59,59,163,,,,,,,,,,,,,,,,,,,,,,,,,,,,,,,,,,,474.1391521000769,475.14688660006505,475.1301593000535,475.7063726000488,475.7063726000488,None,477.5774143000599,None,left,0.5063400999642909,477.5774143000599,None,478.11643040005583,None,left,0.23209479998331517,478.11643040005583,None,,,,,,,,,,,,,,,,,,,,,,,PPT40,001,2022-07-07_12h34.55.191,ABstudy,2022.1.4,59.928756723608586,
AB,Lag1_T1P_T2P,1,P,P,6,7,5,3,10,Pool table,Did you see the Pool table?,0.12,0.016,JPG\,tomato01,pen04b,shirt02,carrot01,lamp04a,pooltable,stapler06,avocado01,sewingmachine01a,apple07,blankImage,blankImage,blankImage,blankImage,blankImage,blankImage,blankImage,pooltable,,,,,,,,,,,,0,60,60,29,,,,,,,,,,,,,,,,,,,,,,,,,,,,,,,,,,,478.37341780005954,479.38451220002025,479.3679611000698,479.9447953000199,479.9447953000199,None,481.24160449998453,None,left,0.482276700087823,481.24160449998453,None,481.7536393000046,None,left,0.36192130006384104,481.7536393000046,None,,,,,,,,,,,,,,,,,,,,,,,PPT40,001,2022-07-07_12h34.55.191,ABstudy,2022.1.4,59.928756723608586,
AB,Lag1_T1P_T2P,1,P,P,5,6,4,3,9,kangaroo,Did you see the kangaroo?,0.12,0.016,JPG\,candle01,shirt02,brick,orange,kangaroo,stapler03a,pizza,thermometer02b,book01b,blankImage,blankImage,blankImage,blankImage,blankImage,blankImage,blankImage,blankImage,kangaroo,,,,,,,,,,,,0,61,61,16,,,,,,,,,,,,,,,,,,,,,,,,,,,,,,,,,,,482.14012450003065,483.15467369998805,483.1212105000159,483.69668100005947,483.69668100005947,None,484.8518640999682,None,left,1.1125038999598473,484.8518640999682,None,485.9911745999707,None,right,0.6448592999950051,485.9911745999707,None,,,,,,,,,,,,,,,,,,,,,,,PPT40,001,2022-07-07_12h34.55.191,ABstudy,2022.1.4,59.928756723608586,
AB,Lag5_T1P_T2P,5,P,P,5,10,4,5,15,funnel,Did you see the funnel?,0.12,0.016,JPG\,pineapple01a,tennisball01b,computerkeyboard02,feather03a,funnel,acorn,violin,blueberry01,medal02b,stapler01,greenolive,screwdriver04b,potato02b,fork03c,cymbal,blankImage,blankImage,funnel,,,,,,,,,,,,0,62,62,109,,,,,,,,,,,,,,,,,,,,,,,,,,,,,,,,,,,486.6619705000194,487.67623810004443,487.65948060003575,488.2435719000641,488.2435719000641,None,489.9673050000565,None,right,0.8446290000574663,489.9673050000565,None,490.82936750003137,None,left,0.26290890004020184,490.82936750003137,None,,,,,,,,,,,,,,,,,,,,,,,PPT40,001,2022-07-07_12h34.55.191,ABstudy,2022.1.4,59.928756723608586,
AB,Lag1_T1A_T2P,1,A,P,5,6,4,3,9,Crown,Did you see the Crown?,0.12,0.016,JPG\,leaf02a,pear01,measuringcup01,cigarette,fan,stapler04b,teabag,tableknife02,ring01,blankImage,blankImage,blankImage,blankImage,blankImage,blankImage,blankImage,blankImage,arrow02,,,,,,,,,,,,0,63,63,248,,,,,,,,,,,,,,,,,,,,,,,,,,,,,,,,,,,491.1179282000521,492.1305274000624,492.1138499000808,492.6839396000141,492.6839396000141,None,493.79194510006346,None,right,0.9087788999313489,493.79194510006346,None,494.7329590000445,None,left,0.3347611000062898,494.7329590000445,None,,,,,,,,,,,,,,,,,,,,,,,PPT40,001,2022-07-07_12h34.55.191,ABstudy,2022.1.4,59.928756723608586,
AB,Lag1_T1A_T2P,1,A,P,8,9,7,4,13,Toolbox,Did you see the Toolbox?,0.12,0.016,JPG\,pizza,printer02,medal02b,spoon01,grape01,lighter01,belt02a,watermelon01,stapler03b,battery02b,screw02,comb02a,cauliflower01,blankImage,blankImage,blankImage,blankImage,ladybug03,,,,,,,,,,,,0,64,64,237,,,,,,,,,,,,,,,,,,,,,,,,,,,,,,,,,,,495.10289510001894,496.11760370002594,496.08417180005927,496.6872956000734,496.6872956000734,None,498.32776600006036,None,right,0.9317323999712244,498.32776600006036,None,499.28734989999793,None,left,0.2694549000589177,499.28734989999793,None,,,,,,,,,,,,,,,,,,,,,,,PPT40,001,2022-07-07_12h34.55.191,ABstudy,2022.1.4,59.928756723608586,
AB,Lag1_T1P_T2A,1,P,A,5,6,4,4,10,flower,Did you see the flower?,0.12,0.016,JPG\,broom01,globe,cellphone,tableknife02,daffodil,scissors01,ring01,alligator,rice,toaster01,blankImage,blankImage,blankImage,blankImage,blankImage,blankImage,blankImage,daffodil,,,,,,,,,,,,0,65,65,184,,,,,,,,,,,,,,,,,,,,,,,,,,,,,,,,,,,499.5899551999755,500.6055975999916,500.5719903999707,501.1482155000558,501.1482155000558,None,502.43183969997335,None,right,1.0281008000019938,502.43183969997335,None,503.494391300017,None,right,0.3816914000781253,503.494391300017,None,,,,,,,,,,,,,,,,,,,,,,,PPT40,001,2022-07-07_12h34.55.191,ABstudy,2022.1.4,59.928756723608586,
AB,Lag5_T1P_T2P,5,P,P,8,13,7,3,16,shrimp,Did you see the shrimp?,0.12,0.016,JPG\,globe,belt02a,sponge01,violin,fork03c,tomato01,clock01a,cocktailshrimp02,balloon01b,scarf,teabag,pen04b,stapler03a,brownsugar,speaker04,screwdriver04b,blankImage,cocktailshrimp02,,,,,,,,,,,,0,66,66,169,,,,,,,,,,,,,,,,,,,,,,,,,,,,,,,,,,,503.90388180001173,504.9102079999866,504.8946131999837,505.49907600006554,505.49907600006554,None,507.42960919998586,None,left,0.9747413999866694,507.42960919998586,None,508.4301977000432,None,right,0.6291085999691859,508.4301977000432,None,,,,,,,,,,,,,,,,,,,,,,,PPT40,001,2022-07-07_12h34.55.191,ABstudy,2022.1.4,59.928756723608586,
AB,Lag1_T1A_T2P,1,A,P,8,9,7,4,13,Christmas tree,Did you see the Christmas tree?,0.12,0.016,JPG\,broom01,globe,cellphone,tableknife02,cauliflower01,scissors01,ring01,alligator,stapler03a,toaster01,cigarette,grape01,microscope,blankImage,blankImage,blankImage,blankImage,windmill,,,,,,,,,,,,0,67,67,247,,,,,,,,,,,,,,,,,,,,,,,,,,,,,,,,,,,509.08945420000236,510.09820440004114,510.0817027000012,510.69062010000926,510.69062010000926,None,512.2323720999993,None,right,0.8355166000546888,512.2323720999993,None,513.0874586000573,None,left,0.42064120003487915,513.0874586000573,None,,,,,,,,,,,,,,,,,,,,,,,PPT40,001,2022-07-07_12h34.55.191,ABstudy,2022.1.4,59.928756723608586,
AB,Lag5_T1P_T2P,5,P,P,7,12,6,4,16,Bird feeder,Did you see the Bird feeder?,0.12,0.016,JPG\,watermelon01,banana01,ring01,pencil01,tomato01,speaker04,birdfeeder,thermometer02b,key01,foosballtable,violin,stapler06,clock04,dice05a,pen04b,mushroom01,blankImage,birdfeeder,,,,,,,,,,,,0,68,68,164,,,,,,,,,,,,,,,,,,,,,,,,,,,,,,,,,,,513.5450127000222,514.5525777000003,514.5359074000735,515.124896000023,515.124896000023,None,517.0831077999901,None,left,0.43325160001404583,517.0831077999901,None,517.5391137000406,None,left,0.45629130001179874,517.5391137000406,None,,,,,,,,,,,,,,,,,,,,,,,PPT40,001,2022-07-07_12h34.55.191,ABstudy,2022.1.4,59.928756723608586,
AB,Lag1_T1P_T2A,1,P,A,6,7,5,3,10,Dragon fly,Did you see the Dragon fly?,0.12,0.016,JPG\,leaf02a,pear01,measuringcup01,cigarette,fan,dragonfly01,teabag,tableknife02,ring01,pencil01,blankImage,blankImage,blankImage,blankImage,blankImage,blankImage,blankImage,dragonfly01,,,,,,,,,,,,0,69,69,185,,,,,,,,,,,,,,,,,,,,,,,,,,,,,,,,,,,518.0249378000153,519.0403434999753,519.006981600076,519.5799980000593,519.5799980000593,None,520.8299555999693,None,left,0.6626145000336692,520.8299555999693,None,521.5098886999767,None,right,0.5180323000531644,521.5098886999767,None,,,,,,,,,,,,,,,,,,,,,,,PPT40,001,2022-07-07_12h34.55.191,ABstudy,2022.1.4,59.928756723608586,
AB,Lag5_T1A_T2A,5,A,A,7,12,6,4,16,Eye,Did you see the Eye?,0.12,0.016,JPG\,rice,watermelon01,tableknife02,scarf,computerkeyboard02,cauliflower01,battery02b,binoculars01b,book01b,sandal,sponge01,microscope,tomato01,fork03c,thermometer02b,apple07,blankImage,scooter,,,,,,,,,,,,0,70,70,302,,,,,,,,,,,,,,,,,,,,,,,,,,,,,,,,,,,522.0639090000186,523.077948500053,523.0611603000434,523.6766530000605,523.6766530000605,None,525.6865131000523,None,right,0.5973759999033064,525.6865131000523,None,526.3143591000699,None,right,0.4495397999417037,526.3143591000699,None,,,,,,,,,,,,,,,,,,,,,,,PPT40,001,2022-07-07_12h34.55.191,ABstudy,2022.1.4,59.928756723608586,
AB,Lag5_T1P_T2P,5,P,P,6,11,5,5,16,Parking meter,Did you see the Parking meter?,0.12,0.016,JPG\,dice05a,watch02a,pig,lighter01,button01,parkingmeter,paintbrush01,microscope,plate01b,pen04b,stapler03b,weight04a,carrot01,shirt02,globe,garlic01a,blankImage,parkingmeter,,,,,,,,,,,,0,71,71,172,,,,,,,,,,,,,,,,,,,,,,,,,,,,,,,,,,,526.7861083999742,527.7991326000774,527.7823963999981,528.3581288000569,528.3581288000569,None,530.3239471999696,None,right,0.7201555999927223,530.3239471999696,None,531.0693270000629,None,left,0.2618838999187574,531.0693270000629,None,,,,,,,,,,,,,,,,,,,,,,,PPT40,001,2022-07-07_12h34.55.191,ABstudy,2022.1.4,59.928756723608586,
AB,Lag5_T1A_T2A,5,A,A,5,10,4,5,15,window,Did you see the window?,0.12,0.016,JPG\,leaf02a,apple07,cd,pineapple01a,envelope03a,paintbrush01,pig,canoftennisballs,rice,feather03a,lemon02,balloon01b,avocado01,calculator01,watermelon01,blankImage,blankImage,saxophone,,,,,,,,,,,,0,72,72,301,,,,,,,,,,,,,,,,,,,,,,,,,,,,,,,,,,,531.3564966999693,532.3705161999678,532.3537138999673,533.0005402000388,532.9262121000793,None,534.7775583000621,None,right,0.8902203999459743,534.7775583000621,None,535.6906087000389,None,right,0.386321899946779,535.6906087000389,None,,,,,,,,,,,,,,,,,,,,,,,PPT40,001,2022-07-07_12h34.55.191,ABstudy,2022.1.4,59.928756723608586,
AB,Lag5_T1A_T2P,5,A,P,6,11,5,3,14,keys,Did you see the keys?,0.12,0.016,JPG\,pencil01,microscope,banana01,computerkeyboard02,celery,cellphone,scissors01,sock01a,book01b,onion,stapler03a,binoculars01b,baseball01a,iron01b,blankImage,blankImage,blankImage,treadmill,,,,,,,,,,,,0,73,73,275,,,,,,,,,,,,,,,,,,,,,,,,,,,,,,,,,,,536.1121157000307,537.1253427000483,537.1085352000082,537.6745558000403,537.6745558000403,None,539.3852587000001,None,left,0.48244619998149574,539.3852587000001,None,539.8961746999994,None,left,0.7087237000232562,539.8961746999994,None,,,,,,,,,,,,,,,,,,,,,,,PPT40,001,2022-07-07_12h34.55.191,ABstudy,2022.1.4,59.928756723608586,
AB,Lag1_T1A_T2P,1,A,P,6,7,5,3,10,curtain,Did you see the curtain?,0.12,0.016,JPG\,carrot01,greenolive,fork03c,chain01,ashtray01,watermelon01,stapler06,printer02,comb02a,toaster01,blankImage,blankImage,blankImage,blankImage,blankImage,blankImage,blankImage,birdhouse,,,,,,,,,,,,0,74,74,249,,,,,,,,,,,,,,,,,,,,,,,,,,,,,,,,,,,540.6323740000371,541.6464178999886,541.6296699000522,542.2698298000032,542.1958378000418,None,543.4369306999724,None,right,0.8870046000229195,543.4369306999724,None,544.3492217999883,None,left,0.48656880005728453,544.3492217999883,None,,,,,,,,,,,,,,,,,,,,,,,PPT40,001,2022-07-07_12h34.55.191,ABstudy,2022.1.4,59.928756723608586,
AB,Lag5_T1P_T2P,5,P,P,5,10,4,4,14,bell,Did you see the bell?,0.12,0.016,JPG\,teabag,envelope03a,cellphone,apple07,callbell,orange,brownsugar,book01b,hammer01,stapler03b,toaster01,calculator01,globe,battery02b,blankImage,blankImage,blankImage,callbell,,,,,,,,,,,,0,75,75,147,,,,,,,,,,,,,,,,,,,,,,,,,,,,,,,,,,,544.8690760000609,545.8839140000055,545.8671695999801,546.5062058999902,546.4317100000335,None,548.1547639999771,None,left,0.7204803000204265,548.1547639999771,None,548.9031289999839,None,left,0.3409425000427291,548.9031289999839,None,,,,,,,,,,,,,,,,,,,,,,,PPT40,001,2022-07-07_12h34.55.191,ABstudy,2022.1.4,59.928756723608586,
AB,Lag1_T1P_T2P,1,P,P,8,9,7,4,13,kite,Did you see the kite?,0.12,0.016,JPG\,scissors01,balloon01b,eraser,feather03a,banana01,candle01,measuringcup01,kite,stapler04b,strawberry,pear01,carrot01,globe,blankImage,blankImage,blankImage,blankImage,kite,,,,,,,,,,,,0,76,76,17,,,,,,,,,,,,,,,,,,,,,,,,,,,,,,,,,,,549.2771299000597,550.2879933000077,550.2712869000388,550.8425328000449,550.8425328000449,None,552.543763600057,None,right,1.0847609000047669,552.543763600057,None,553.6591425000224,None,left,0.29654130002018064,553.6591425000224,None,,,,,,,,,,,,,,,,,,,,,,,PPT40,001,2022-07-07_12h34.55.191,ABstudy,2022.1.4,59.928756723608586,
AB,Lag5_T1P_T2P,5,P,P,5,10,4,4,14,License Plate,Did you see the License Plate?,0.12,0.016,JPG\,toaster01,chain01,sponge01,baseball01a,licenseplate,belt02a,book01b,iron01b,grape01,stapler06,celery,onion,mushroom01,toothbrush03b,blankImage,blankImage,blankImage,licenseplate,,,,,,,,,,,,0,77,77,120,,,,,,,,,,,,,,,,,,,,,,,,,,,,,,,,,,,553.9828953000251,554.9931507000001,554.9763611999806,555.5668428000063,555.5668428000063,None,557.2696607999969,None,left,0.3740854000207037,557.2696607999969,None,557.6633056000574,None,left,0.3156428000656888,557.6633056000574,None,,,,,,,,,,,,,,,,,,,,,,,PPT40,001,2022-07-07_12h34.55.191,ABstudy,2022.1.4,59.928756723608586,
AB,Lag5_T1A_T2P,5,A,P,5,10,4,3,13,flower,Did you see the flower?,0.12,0.016,JPG\,cucumber,ring01,lipstick02a,microscope,violin,garlic01a,celery,lighter01,cherry01,stapler03a,belt02a,key01,binoculars01b,blankImage,blankImage,blankImage,blankImage,christmastree,,,,,,,,,,,,0,78,78,284,,,,,,,,,,,,,,,,,,,,,,,,,,,,,,,,,,,557.9956442000112,558.9971040000673,558.9805254000239,559.5548622000497,559.5548622000497,None,561.2496244000504,None,right,0.5299966000020504,561.2496244000504,None,561.799984900048,None,right,0.2677256999304518,561.799984900048,None,,,,,,,,,,,,,,,,,,,,,,,PPT40,001,2022-07-07_12h34.55.191,ABstudy,2022.1.4,59.928756723608586,
AB,Lag5_T1A_T2P,5,A,P,6,11,5,3,14,saxophone,Did you see the saxophone?,0.12,0.016,JPG\,globe,belt02a,sponge01,violin,fork03c,tomato01,clock01a,microscope,balloon01b,scarf,stapler03b,pen04b,brick,brownsugar,blankImage,blankImage,blankImage,microphone01,,,,,,,,,,,,0,79,79,267,,,,,,,,,,,,,,,,,,,,,,,,,,,,,,,,,,,562.0995605000062,563.1008350000484,563.0841933999909,563.6806337999878,563.6806337999878,None,565.291622800054,None,right,0.6078139999881387,565.291622800054,None,565.9202060999814,None,left,0.22713870008010417,565.9202060999814,None,,,,,,,,,,,,,,,,,,,,,,,PPT40,001,2022-07-07_12h34.55.191,ABstudy,2022.1.4,59.928756723608586,
AB,Lag5_T1A_T2A,5,A,A,5,10,4,5,15,truck,Did you see the truck?,0.12,0.016,JPG\,pizza,printer02,medal02b,spoon01,grape01,lighter01,belt02a,watermelon01,celery,battery02b,screw02,comb02a,cauliflower01,lipstick02a,potato02b,blankImage,blankImage,postalmailbox01,,,,,,,,,,,,0,80,80,297,,,,,,,,,,,,,,,,,,,,,,,,,,,,,,,,,,,566.1756731000496,567.1884430000791,567.1719146000687,567.7555049000075,567.7555049000075,None,569.6307103000581,None,right,0.805282499990426,569.6307103000581,None,570.4613270000555,None,right,0.27848550002090633,570.4613270000555,None,,,,,,,,,,,,,,,,,,,,,,,PPT40,001,2022-07-07_12h34.55.191,ABstudy,2022.1.4,59.928756723608586,
AB,Lag1_T1A_T2P,1,A,P,5,6,4,4,10,Bull,Did you see the Bull?,0.12,0.016,JPG\,celery,pencil01,fan,foosballtable,iron01b,stapler01,potato02b,fork03c,button01,pineapple01a,blankImage,blankImage,blankImage,blankImage,blankImage,blankImage,blankImage,spiderweb,,,,,,,,,,,,0,81,81,244,,,,,,,,,,,,,,,,,,,,,,,,,,,,,,,,,,,570.7700659000548,571.7759973000502,571.7593307000352,572.3776947000297,572.3776947000297,None,573.5467456000624,None,right,0.6087361999088898,573.5467456000624,None,574.1785085999873,None,right,0.28904209996107966,574.1785085999873,None,,,,,,,,,,,,,,,,,,,,,,,PPT40,001,2022-07-07_12h34.55.191,ABstudy,2022.1.4,59.928756723608586,
AB,Lag5_T1P_T2P,5,P,P,6,11,5,5,16,keys,Did you see the keys?,0.12,0.016,JPG\,toiletpaper01a,mushroom01,medal02b,sandal,rice,foldingchair,feather03a,pizza,candle08b,garlic01a,stapler01,belt02a,cigarette,violin,lemon02,fork03c,blankImage,foldingchair,,,,,,,,,,,,0,82,82,125,,,,,,,,,,,,,,,,,,,,,,,,,,,,,,,,,,,574.4978059000568,575.5132119000191,575.4798589000711,576.0696282000281,576.0696282000281,None,578.0231398000615,None,right,0.7959258001064882,578.0231398000615,None,578.850340200006,None,left,0.2098013999639079,578.850340200006,None,,,,,,,,,,,,,,,,,,,,,,,PPT40,001,2022-07-07_12h34.55.191,ABstudy,2022.1.4,59.928756723608586,
AB,Lag5_T1P_T2A,5,P,A,5,10,4,4,14,rocket,Did you see the rocket?,0.12,0.016,JPG\,fan,tomato01,candy,screwdriver04b,spacerocket,cd,thermometer02b,apple07,button01,plate01b,brownsugar,lighter01,clock01a,envelope03a,blankImage,blankImage,blankImage,spacerocket,,,,,,,,,,,,0,83,83,226,,,,,,,,,,,,,,,,,,,,,,,,,,,,,,,,,,,579.0894512999803,580.1014763000421,580.0847951000324,580.6692077000625,580.6692077000625,None,582.3995532999979,None,left,0.9320540999760851,582.3995532999979,None,583.3547971000662,None,right,0.31271939992439,583.3547971000662,None,,,,,,,,,,,,,,,,,,,,,,,PPT40,001,2022-07-07_12h34.55.191,ABstudy,2022.1.4,59.928756723608586,
AB,Lag5_T1A_T2A,5,A,A,7,12,6,3,15,Christmas lights,Did you see the Christmas lights?,0.12,0.016,JPG\,toiletpaper01a,mushroom01,medal02b,sandal,rice,cd,feather03a,pizza,candle08b,garlic01a,toaster01,belt02a,cigarette,violin,lemon02,blankImage,blankImage,rockbass,,,,,,,,,,,,0,84,84,299,,,,,,,,,,,,,,,,,,,,,,,,,,,,,,,,,,,583.6950458000647,584.7059832999948,584.6892254999839,585.2794937000144,585.2794937000144,None,587.1120336999884,None,right,1.7321833000751212,587.1120336999884,None,588.8768802999984,None,right,0.40634589991532266,588.8768802999984,None,,,,,,,,,,,,,,,,,,,,,,,PPT40,001,2022-07-07_12h34.55.191,ABstudy,2022.1.4,59.928756723608586,
AB,Lag1_T1P_T2A,1,P,A,5,6,4,4,10,bird,Did you see the bird?,0.12,0.016,JPG\,toaster01,scarf,toiletpaper01a,calculator01,swallow,sewingmachine01a,fan,teabag,strawberry,balloon01b,blankImage,blankImage,blankImage,blankImage,blankImage,blankImage,blankImage,swallow,,,,,,,,,,,,0,85,85,195,,,,,,,,,,,,,,,,,,,,,,,,,,,,,,,,,,,589.3136384000536,590.3282154999906,590.294876000029,590.8966132000787,590.8966132000787,None,592.1308846999891,None,left,0.7042265000054613,592.1308846999891,None,592.8642105000326,None,right,0.5950058000162244,592.8642105000326,None,,,,,,,,,,,,,,,,,,,,,,,PPT40,001,2022-07-07_12h34.55.191,ABstudy,2022.1.4,59.928756723608586,
AB,Lag1_T1A_T2P,1,A,P,5,6,4,3,9,Stool,Did you see the Stool?,0.12,0.016,JPG\,cherry01,cymbal,envelope03a,foosballtable,shirt02,stapler01,sewingmachine01a,candle08b,battery02b,blankImage,blankImage,blankImage,blankImage,blankImage,blankImage,blankImage,blankImage,hulahoop,,,,,,,,,,,,0,86,86,236,,,,,,,,,,,,,,,,,,,,,,,,,,,,,,,,,,,593.4869355000556,594.4990068000043,594.4824360000202,595.0610476000002,595.0610476000002,None,596.2415187000297,None,right,1.3383132999297231,596.2415187000297,None,597.6050854000496,None,right,0.33390670001972467,597.6050854000496,None,,,,,,,,,,,,,,,,,,,,,,,PPT40,001,2022-07-07_12h34.55.191,ABstudy,2022.1.4,59.928756723608586,
AB,Lag5_T1P_T2A,5,P,A,7,12,6,3,15,Toy soldier,Did you see the Toy soldier?,0.12,0.016,JPG\,binoculars01b,cymbal,pizza,candy,paintbrush01,sponge01,toysoldier01b,thermometer02b,speaker04,lemon02,lipstick02a,strawberry,candle01,acorn,plate01b,blankImage,blankImage,toysoldier01b,,,,,,,,,,,,0,87,87,203,,,,,,,,,,,,,,,,,,,,,,,,,,,,,,,,,,,597.98205900006,598.9868610000703,598.9701071999734,599.5803465000354,599.5803465000354,None,601.3770434000762,None,left,11.2905459998874,601.3770434000762,None,612.7002635999816,None,right,0.36837129993364215,612.7002635999816,None,,,,,,,,,,,,,,,,,,,,,,,PPT40,001,2022-07-07_12h34.55.191,ABstudy,2022.1.4,59.928756723608586,
AB,Lag1_T1A_T2P,1,A,P,8,9,7,3,12,elbow,Did you see the elbow?,0.12,0.016,JPG\,watermelon01,cigarette,faucet,cymbal,cauliflower01,feather03a,cherry01,broom01,stapler01,key01,baseball01a,iron01b,blankImage,blankImage,blankImage,blankImage,blankImage,cashregister01,,,,,,,,,,,,0,88,88,251,,,,,,,,,,,,,,,,,,,,,,,,,,,,,,,,,,,613.1028464999981,614.1183455999708,614.0849935000297,614.6737007000484,614.6737007000484,None,616.1828037999803,None,right,0.7726193000562489,616.1828037999803,None,616.9876450999873,None,right,1.4080745000392199,616.9876450999873,None,,,,,,,,,,,,,,,,,,,,,,,PPT40,001,2022-07-07_12h34.55.191,ABstudy,2022.1.4,59.928756723608586,
AB,Lag1_T1P_T2P,1,P,P,6,7,5,3,10,windmill,Did you see the windmill?,0.12,0.016,JPG\,pizza,printer02,medal02b,spoon01,grape01,windmill,stapler04b,watermelon01,celery,battery02b,blankImage,blankImage,blankImage,blankImage,blankImage,blankImage,blankImage,windmill,,,,,,,,,,,,0,89,89,75,,,,,,,,,,,,,,,,,,,,,,,,,,,,,,,,,,,618.4284958000062,619.4406263000565,619.4239528999897,620.0358920000726,620.0358920000726,None,621.2134858000791,None,left,0.9816622999496758,621.2134858000791,None,622.2267076000571,None,right,2.3375799999339506,622.2267076000571,None,,,,,,,,,,,,,,,,,,,,,,,PPT40,001,2022-07-07_12h34.55.191,ABstudy,2022.1.4,59.928756723608586,
AB,Lag1_T1A_T2P,1,A,P,5,6,4,3,9,chimney,Did you see the chimney?,0.12,0.016,JPG\,cucumber,sponge01,alligator,pear01,ashtray01,stapler06,clock04,battery02b,fork03c,blankImage,blankImage,blankImage,blankImage,blankImage,blankImage,blankImage,blankImage,trophy01,,,,,,,,,,,,0,90,90,246,,,,,,,,,,,,,,,,,,,,,,,,,,,,,,,,,,,624.6002755999798,625.6134754000232,625.5968274000334,626.1747961000074,626.1747961000074,None,627.2744280999759,None,right,1.3777203999925405,627.2744280999759,None,628.6829069000669,None,left,0.3040466000093147,628.6829069000669,None,,,,,,,,,,,,,,,,,,,,,,,PPT40,001,2022-07-07_12h34.55.191,ABstudy,2022.1.4,59.928756723608586,
AB,Lag1_T1P_T2A,1,P,A,7,8,6,4,12,gorilla,Did you see the gorilla?,0.12,0.016,JPG\,scissors01,ashtray01,garlic01a,medal02b,cigarette,candle08b,gorilla,envelope03a,cucumber,rice,toiletpaper01a,greenolive,blankImage,blankImage,blankImage,blankImage,blankImage,gorilla,,,,,,,,,,,,0,91,91,189,,,,,,,,,,,,,,,,,,,,,,,,,,,,,,,,,,,629.018826100044,630.0342174000107,630.000889100018,630.5718636000529,630.5718636000529,None,632.0831342000747,None,left,0.9597691000672057,632.0831342000747,None,633.0709227999905,None,right,0.8204421000555158,633.0709227999905,None,,,,,,,,,,,,,,,,,,,,,,,PPT40,001,2022-07-07_12h34.55.191,ABstudy,2022.1.4,59.928756723608586,
AB,Lag5_T1A_T2P,5,A,P,7,12,6,4,16,scooter,Did you see the scooter?,0.12,0.016,JPG\,cigarette,pig,banana01,strawberry,clock01a,plate01b,spoon01,blueberry01,battery02b,pineapple01a,chain01,stapler05,candy,pen04b,teabag,birthdaycandle,blankImage,1nose,,,,,,,,,,,,0,92,92,268,,,,,,,,,,,,,,,,,,,,,,,,,,,,,,,,,,,633.9248783000512,634.9392519000685,634.922537400038,635.5115497000515,635.5115497000515,None,637.4055978000397,None,right,0.8777817999944091,637.4055978000397,None,638.3119672000175,None,right,0.5169215999776497,638.3119672000175,None,,,,,,,,,,,,,,,,,,,,,,,PPT40,001,2022-07-07_12h34.55.191,ABstudy,2022.1.4,59.928756723608586,
AB,Lag5_T1P_T2A,5,P,A,5,10,4,4,14,Ship in a bottle,Did you see the Ship in a bottle?,0.12,0.016,JPG\,sewingmachine01a,thermometer02b,sponge01,eraser,shipinabottle,fork03c,pizza,violin,belt02a,medal02b,pineapple01a,tennisball01b,dandelion,cauliflower01,blankImage,blankImage,blankImage,shipinabottle,,,,,,,,,,,,0,93,93,208,,,,,,,,,,,,,,,,,,,,,,,,,,,,,,,,,,,638.8727127000457,639.8779342999915,639.8623830999713,640.4719083000673,640.4719083000673,None,642.1679343000287,None,left,0.9873350999550894,642.1679343000287,None,643.1805840000743,None,right,0.3196193999610841,643.1805840000743,None,,,,,,,,,,,,,,,,,,,,,,,PPT40,001,2022-07-07_12h34.55.191,ABstudy,2022.1.4,59.928756723608586,
AB,Lag1_T1P_T2P,1,P,P,8,9,7,5,14,bullet,Did you see the bullet?,0.12,0.016,JPG\,measuringcup01,dice05a,greenolive,lipstick02a,feather03a,balloon01b,lighter01,bullet,stapler04b,plate01b,microscope,brick,thermometer02b,screw02,blankImage,blankImage,blankImage,bullet,,,,,,,,,,,,0,94,94,57,,,,,,,,,,,,,,,,,,,,,,,,,,,,,,,,,,,643.5331627000123,644.5486120000714,644.515175800072,645.112934099976,645.112934099976,None,646.7941034999676,None,left,0.6014559000032023,646.7941034999676,None,647.4185010000365,None,left,0.24142370000481606,647.4185010000365,None,,,,,,,,,,,,,,,,,,,,,,,PPT40,001,2022-07-07_12h34.55.191,ABstudy,2022.1.4,59.928756723608586,
AB,Lag1_T1P_T2P,1,P,P,7,8,6,3,11,cloud,Did you see the cloud?,0.12,0.016,JPG\,lighter01,hammer01,spoon01,chain01,cymbal,sponge01,cloud,stapler06,pig,watermelon01,cauliflower01,blankImage,blankImage,blankImage,blankImage,blankImage,blankImage,cloud,,,,,,,,,,,,0,95,95,36,,,,,,,,,,,,,,,,,,,,,,,,,,,,,,,,,,,647.6893522000173,648.7030191000085,648.6864053000463,649.254287000047,649.254287000047,None,650.6188426000299,None,left,0.6727176000131294,650.6188426000299,None,651.3246824999806,None,right,1.110403599916026,651.3246824999806,None,,,,,,,,,,,,,,,,,,,,,,,PPT40,001,2022-07-07_12h34.55.191,ABstudy,2022.1.4,59.928756723608586,
AB,Lag5_T1P_T2A,5,P,A,8,13,7,4,17,knife,Did you see the knife?,0.12,0.016,JPG\,lighter01,hammer01,spoon01,chain01,cymbal,sponge01,lipstick02a,knife03,pig,watermelon01,cauliflower01,lemon02,broccoli01a,tableknife02,tennisball01b,toothbrush03b,blankImage,knife03,,,,,,,,,,,,0,96,96,214,,,,,,,,,,,,,,,,,,,,,,,,,,,,,,,,,,,652.4589336999925,653.4741810000269,653.4407958000666,654.0213402999798,654.0213402999798,None,655.9713319999864,None,left,0.6242423000512645,655.9713319999864,None,656.6297410000116,None,right,0.41349360009189695,656.6297410000116,None,,,,,,,,,,,,,,,,,,,,,,,PPT40,001,2022-07-07_12h34.55.191,ABstudy,2022.1.4,59.928756723608586,
AB,Lag1_T1P_T2P,1,P,P,8,9,7,4,13,Hula hoop,Did you see the Hula hoop?,0.12,0.016,JPG\,brownsugar,candle01,match,printer02,broom01,balloon01b,belt02a,hulahoop,stapler04b,feather03a,rice,mushroom01,pencil01,blankImage,blankImage,blankImage,blankImage,hulahoop,,,,,,,,,,,,0,97,97,64,,,,,,,,,,,,,,,,,,,,,,,,,,,,,,,,,,,657.0686067000497,658.0788184000412,658.0621211000253,658.5628846000182,658.5628846000182,None,660.2476952000288,None,left,0.6353916999651119,660.2476952000288,None,660.9158634999767,None,left,0.33606929995585233,660.9158634999767,None,,,,,,,,,,,,,,,,,,,,,,,PPT40,001,2022-07-07_12h34.55.191,ABstudy,2022.1.4,59.928756723608586,
AB,Lag1_T1P_T2A,1,P,A,7,8,6,3,11,fish,Did you see the fish?,0.12,0.016,JPG\,rice,watermelon01,tableknife02,scarf,computerkeyboard02,cauliflower01,salmon,binoculars01b,book01b,sandal,sponge01,blankImage,blankImage,blankImage,blankImage,blankImage,blankImage,salmon,,,,,,,,,,,,0,98,98,179,,,,,,,,,,,,,,,,,,,,,,,,,,,,,,,,,,,661.2846846000757,662.299861800042,662.2663823000621,662.8586475000484,662.8586475000484,None,664.211539800046,None,left,0.7917679999954998,664.211539800046,None,665.0357432999881,None,right,0.703603700036183,665.0357432999881,None,,,,,,,,,,,,,,,,,,,,,,,PPT40,001,2022-07-07_12h34.55.191,ABstudy,2022.1.4,59.928756723608586,
AB,Lag1_T1A_T2P,1,A,P,7,8,6,5,13,Horseshoe,Did you see the Horseshoe?,0.12,0.016,JPG\,leaf02a,apple07,cd,pineapple01a,envelope03a,paintbrush01,pig,stapler06,rice,feather03a,lemon02,balloon01b,avocado01,blankImage,blankImage,blankImage,blankImage,rooster,,,,,,,,,,,,0,99,99,241,,,,,,,,,,,,,,,,,,,,,,,,,,,,,,,,,,,665.7722695000703,666.7876270000124,666.7541301000165,667.3549950000597,667.3549950000597,None,669.0480662999908,None,right,0.5466362000443041,669.0480662999908,None,669.6240617000731,None,left,0.394620000035502,669.6240617000731,None,,,,,,,,,,,,,,,,,,,,,,,PPT40,001,2022-07-07_12h34.55.191,ABstudy,2022.1.4,59.928756723608586,
AB,Lag1_T1P_T2A,1,P,A,5,6,4,5,11,Sailboat,Did you see the Sailboat?,0.12,0.016,JPG\,chain01,speaker04,avocado01,watermelon01,sailboat,comb02a,lamp04a,fork03c,toaster01,slipper03b,scissors01,blankImage,blankImage,blankImage,blankImage,blankImage,blankImage,sailboat,,,,,,,,,,,,0,100,100,193,,,,,,,,,,,,,,,,,,,,,,,,,,,,,,,,,,,670.0470917000202,671.0587493000785,671.0419694000157,671.6078649000265,671.6078649000265,None,672.9908361000707,None,left,0.42092390009202063,672.9908361000707,None,673.4445176000008,None,right,0.39067870005965233,673.4445176000008,None,,,,,,,,,,,,,,,,,,,,,,,PPT40,001,2022-07-07_12h34.55.191,ABstudy,2022.1.4,59.928756723608586,
AB,Lag5_T1P_T2A,5,P,A,5,10,4,3,13,cork,Did you see the cork?,0.12,0.016,JPG\,clock01a,grape01,plate01b,key01,cork02,feather03a,pineapple01a,iron01b,toothbrush03b,comb02a,broom01,toaster01,pizza,blankImage,blankImage,blankImage,blankImage,cork02,,,,,,,,,,,,0,101,101,209,,,,,,,,,,,,,,,,,,,,,,,,,,,,,,,,,,,673.8664551000111,674.8790220000083,674.8624558000593,675.4433978999732,675.4433978999732,None,677.1183787999908,None,left,0.7811278000008315,677.1183787999908,None,677.9332970000105,None,left,1.0944118000334129,677.9332970000105,None,,,,,,,,,,,,,,,,,,,,,,,PPT40,001,2022-07-07_12h34.55.191,ABstudy,2022.1.4,59.928756723608586,
AB,Lag1_T1P_T2A,1,P,A,7,8,6,4,12,gate,Did you see the gate?,0.12,0.016,JPG\,pen04b,speaker04,lighter01,cherry01,pintofbeer,onion,entrancegate,toothbrush03b,broom01,sewingmachine01a,book01b,iron01b,blankImage,blankImage,blankImage,blankImage,blankImage,entrancegate,,,,,,,,,,,,0,102,102,187,,,,,,,,,,,,,,,,,,,,,,,,,,,,,,,,,,,679.0532076000236,680.067544599995,680.0340683000395,680.651924500009,680.651924500009,None,682.0764231000794,None,left,0.7263116999529302,682.0764231000794,None,682.8200572000351,None,right,0.28764150000642985,682.8200572000351,None,,,,,,,,,,,,,,,,,,,,,,,PPT40,001,2022-07-07_12h34.55.191,ABstudy,2022.1.4,59.928756723608586,
AB,Lag5_T1P_T2P,5,P,P,8,13,7,4,17,cruise ship,Did you see the cruise ship?,0.12,0.016,JPG\,measuringcup01,dice05a,greenolive,lipstick02a,feather03a,balloon01b,lighter01,cruiseship,carrot01,plate01b,microscope,brick,stapler05,screw02,speaker04,spoon01,blankImage,cruiseship,,,,,,,,,,,,0,103,103,105,,,,,,,,,,,,,,,,,,,,,,,,,,,,,,,,,,,683.1410215999931,684.1547915000701,684.1380822000792,684.723001300008,684.723001300008,None,686.7129307000432,None,left,0.6017269999720156,686.7129307000432,None,687.3412210000679,None,left,0.2622719999635592,687.3412210000679,None,,,,,,,,,,,,,,,,,,,,,,,PPT40,001,2022-07-07_12h34.55.191,ABstudy,2022.1.4,59.928756723608586,
AB,Lag1_T1A_T2P,1,A,P,8,9,7,3,12,seal,Did you see the seal?,0.12,0.016,JPG\,dice05a,watch02a,pig,lighter01,button01,strawberry,paintbrush01,microscope,stapler03a,pen04b,feather03a,8ball,blankImage,blankImage,blankImage,blankImage,blankImage,hockeystick,,,,,,,,,,,,0,104,104,235,,,,,,,,,,,,,,,,,,,,,,,,,,,,,,,,,,,687.6271489000646,688.6425608000718,688.6091770000057,689.1897507000249,689.1897507000249,None,690.6396165000042,None,right,1.2685197000391781,690.6396165000042,None,691.9295392000349,None,left,0.28954659996088594,691.9295392000349,None,,,,,,,,,,,,,,,,,,,,,,,PPT40,001,2022-07-07_12h34.55.191,ABstudy,2022.1.4,59.928756723608586,
AB,Lag1_T1P_T2P,1,P,P,7,8,6,5,13,arrow,Did you see the arrow?,0.12,0.016,JPG\,pencil01,broccoli01a,button01,sponge01,watermelon01,lipstick02a,arrow02,stapler04b,lighter01,sock01a,spoon01,blueberry01,belt02a,blankImage,blankImage,blankImage,blankImage,arrow02,,,,,,,,,,,,0,105,105,76,,,,,,,,,,,,,,,,,,,,,,,,,,,,,,,,,,,692.2503211000003,693.2641555999871,693.2474422999658,693.869458500063,693.8000167000573,None,695.3747711000033,None,left,0.5968115000287071,695.3747711000033,None,696.0018004999729,None,left,0.2490694000152871,696.0018004999729,None,,,,,,,,,,,,,,,,,,,,,,,PPT40,001,2022-07-07_12h34.55.191,ABstudy,2022.1.4,59.928756723608586,
AB,Lag1_T1P_T2A,1,P,A,7,8,6,3,11,Armadillo,Did you see the Armadillo?,0.12,0.016,JPG\,clock01a,cellphone,toaster01,toothbrush03b,cauliflower01,microscope,armadillo,paintbrush01,scarf,clock04,sponge01,blankImage,blankImage,blankImage,blankImage,blankImage,blankImage,armadillo,,,,,,,,,,,,0,106,106,180,,,,,,,,,,,,,,,,,,,,,,,,,,,,,,,,,,,696.3446906000609,697.3512174000498,697.3346861000173,697.9323048000224,697.9323048000224,None,699.2014523000689,None,left,0.8095613999757916,699.2014523000689,None,700.0376928000478,None,right,0.789742499939166,700.0376928000478,None,,,,,,,,,,,,,,,,,,,,,,,PPT40,001,2022-07-07_12h34.55.191,ABstudy,2022.1.4,59.928756723608586,
AB,Lag1_T1A_T2A,1,A,A,6,7,5,5,12,flamingo,Did you see the flamingo?,0.12,0.016,JPG\,chain01,pen04b,birthdaycandle,watermelon01,broom01,scissors01,measuringcup01,candle01,hammer01,calculator01,ashtray01,feather03a,blankImage,blankImage,blankImage,blankImage,blankImage,witchhat,,,,,,,,,,,,0,107,107,288,,,,,,,,,,,,,,,,,,,,,,,,,,,,,,,,,,,700.8607937999768,701.8729651999893,701.8573329000501,702.503724200069,702.4333451000275,None,703.9174318000441,None,right,0.6611253999872133,703.9174318000441,None,704.6089315999998,None,right,0.2742341000121087,704.6089315999998,None,,,,,,,,,,,,,,,,,,,,,,,PPT40,001,2022-07-07_12h34.55.191,ABstudy,2022.1.4,59.928756723608586,
AB,Lag1_T1P_T2P,1,P,P,6,7,5,3,10,fortune cookie,Did you see the fortune cookie?,0.12,0.016,JPG\,scissors01,grape01,mushroom01,toiletpaper01a,greenolive,fortunecookie,stapler03b,ashtray01,carrot01,pineapple01a,blankImage,blankImage,blankImage,blankImage,blankImage,blankImage,blankImage,fortunecookie,,,,,,,,,,,,0,108,108,42,,,,,,,,,,,,,,,,,,,,,,,,,,,,,,,,,,,704.9182836000109,705.926773800049,705.9100357000716,706.5426903000334,706.5426903000334,None,707.7518107000506,None,left,0.4908804999431595,707.7518107000506,None,708.2622659000335,None,left,0.2363683000439778,708.2622659000335,None,,,,,,,,,,,,,,,,,,,,,,,PPT40,001,2022-07-07_12h34.55.191,ABstudy,2022.1.4,59.928756723608586,
AB,Lag5_T1P_T2P,5,P,P,6,11,5,5,16,Car,Did you see the Car?,0.12,0.016,JPG\,leaf02a,apple07,cd,pineapple01a,envelope03a,car,pig,canoftennisballs,rice,feather03a,stapler03a,balloon01b,avocado01,calculator01,watermelon01,teabag,blankImage,car,,,,,,,,,,,,0,109,109,127,,,,,,,,,,,,,,,,,,,,,,,,,,,,,,,,,,,708.5344241000712,709.5469025999773,709.5301474999869,710.1123469000449,710.1123469000449,None,712.0599765999941,None,left,0.47927739995066077,712.0599765999941,None,712.5692553999834,None,left,0.19413099996745586,712.5692553999834,None,,,,,,,,,,,,,,,,,,,,,,,PPT40,001,2022-07-07_12h34.55.191,ABstudy,2022.1.4,59.928756723608586,
AB,Lag5_T1A_T2A,5,A,A,6,11,5,5,16,shrimp,Did you see the shrimp?,0.12,0.016,JPG\,speaker04,sewingmachine01a,eraser,violin,globe,belt02a,sunglasses04,cymbal,cd,greenolive,alligator,pear01,watch02a,screwdriver04b,banana01,cigarette,blankImage,rollerblade,,,,,,,,,,,,0,110,110,300,,,,,,,,,,,,,,,,,,,,,,,,,,,,,,,,,,,712.7954932000721,713.8007469000295,713.7840880000731,714.360941800056,714.360941800056,None,716.2981520000612,None,right,1.4490603999001905,716.2981520000612,None,717.7745721000247,None,left,0.34940300008747727,717.7745721000247,None,,,,,,,,,,,,,,,,,,,,,,,PPT40,001,2022-07-07_12h34.55.191,ABstudy,2022.1.4,59.928756723608586,
AB,Lag5_T1P_T2P,5,P,P,6,11,5,5,16,microwave,Did you see the microwave?,0.12,0.016,JPG\,pen04b,speaker04,lighter01,cherry01,weight04a,microwave,sock01a,toothbrush03b,broom01,sewingmachine01a,stapler06,iron01b,clock01a,sandal,cd,blueberry01,blankImage,microwave,,,,,,,,,,,,0,111,111,136,,,,,,,,,,,,,,,,,,,,,,,,,,,,,,,,,,,718.1654393000063,719.172887200024,719.1562271000585,719.726772199967,719.726772199967,None,721.6858547000447,None,left,0.373564500012435,721.6858547000447,None,722.0927950000623,None,left,0.1985941999591887,722.0927950000623,None,,,,,,,,,,,,,,,,,,,,,,,PPT40,001,2022-07-07_12h34.55.191,ABstudy,2022.1.4,59.928756723608586,
AB,Lag5_T1P_T2P,5,P,P,6,11,5,5,16,sword,Did you see the sword?,0.12,0.016,JPG\,chain01,speaker04,avocado01,watermelon01,scarf,sword01,lamp04a,fork03c,toaster01,slipper03b,stapler03a,cucumber,teabag,ashtray01,computerkeyboard02,book01b,blankImage,sword01,,,,,,,,,,,,0,112,112,143,,,,,,,,,,,,,,,,,,,,,,,,,,,,,,,,,,,722.3138750999933,723.3272960999748,723.3105154000223,723.8988991000224,723.8988991000224,None,725.8533654999919,None,left,0.5813883000519127,725.8533654999919,None,726.4638399999822,None,left,0.2750487000448629,726.4638399999822,None,,,,,,,,,,,,,,,,,,,,,,,PPT40,001,2022-07-07_12h34.55.191,ABstudy,2022.1.4,59.928756723608586,
AB,Lag1_T1P_T2A,1,P,A,8,9,7,5,14,Fridge,Did you see the Fridge?,0.12,0.016,JPG\,cherry01,cymbal,envelope03a,foosballtable,shirt02,cellphone,sewingmachine01a,fridge,battery02b,apple07,pencil01,screwdriver04b,strawberry,sunglasses04,blankImage,blankImage,blankImage,fridge,,,,,,,,,,,,0,113,113,173,,,,,,,,,,,,,,,,,,,,,,,,,,,,,,,,,,,726.8331360999728,727.8479246000061,727.8317131999647,728.4139138000319,728.4139138000319,None,730.1050170999952,None,left,0.7058344000251964,730.1050170999952,None,730.8348951999797,None,right,1.5207316000014544,730.8348951999797,None,,,,,,,,,,,,,,,,,,,,,,,PPT40,001,2022-07-07_12h34.55.191,ABstudy,2022.1.4,59.928756723608586,
AB,Lag5_T1A_T2A,5,A,A,5,10,4,4,14,music sheet,Did you see the music sheet?,0.12,0.016,JPG\,celery,pencil01,fan,foosballtable,iron01b,shirt02,potato02b,fork03c,button01,pineapple01a,baseball01a,printer02,cauliflower01,dandelion,blankImage,blankImage,blankImage,licenseplate,,,,,,,,,,,,0,114,114,304,,,,,,,,,,,,,,,,,,,,,,,,,,,,,,,,,,,732.3908618000569,733.4040387000423,733.3874197000405,733.9590874999994,733.9590874999994,None,735.6019427999854,None,right,1.1132725999923423,735.6019427999854,None,736.7404118999839,None,right,0.4785919999703765,736.7404118999839,None,,,,,,,,,,,,,,,,,,,,,,,PPT40,001,2022-07-07_12h34.55.191,ABstudy,2022.1.4,59.928756723608586,
AB,Lag1_T1P_T2P,1,P,P,5,6,4,5,11,golf ball,Did you see the golf ball?,0.12,0.016,JPG\,foosballtable,cigarette,pen04b,birthdaycandle,golfball,stapler05,binoculars01b,chain01,potato02b,cauliflower01,paintbrush01,blankImage,blankImage,blankImage,blankImage,blankImage,blankImage,golfball,,,,,,,,,,,,0,115,115,13,,,,,,,,,,,,,,,,,,,,,,,,,,,,,,,,,,,737.2434709999943,738.2586514999857,738.2253056999762,738.7259939999785,738.7259939999785,None,740.1744971000589,None,left,0.5082054999656975,740.1744971000589,None,740.7110135999974,None,right,0.30791600001975894,740.7110135999974,None,,,,,,,,,,,,,,,,,,,,,,,PPT40,001,2022-07-07_12h34.55.191,ABstudy,2022.1.4,59.928756723608586,
AB,Lag1_T1P_T2P,1,P,P,6,7,5,5,12,exit sign,Did you see the exit sign?,0.12,0.016,JPG\,printer02,envelope03a,potato02b,calculator01,tableknife02,exitsign,stapler01,pig,broom01,greenolive,candle08b,battery02b,blankImage,blankImage,blankImage,blankImage,blankImage,exitsign,,,,,,,,,,,,0,116,116,41,,,,,,,,,,,,,,,,,,,,,,,,,,,,,,,,,,,741.0475764999865,742.0624119000277,742.0457643000409,742.6994838999817,742.6188303000527,None,744.1553736000787,None,left,0.6238003999460489,744.1553736000787,None,744.7987932000542,None,right,0.3094562999904156,744.7987932000542,None,,,,,,,,,,,,,,,,,,,,,,,PPT40,001,2022-07-07_12h34.55.191,ABstudy,2022.1.4,59.928756723608586,
AB,Lag1_T1A_T2P,1,A,P,8,9,7,4,13,nose,Did you see the nose?,0.12,0.016,JPG\,pizza,strawberry,potato02b,speaker04,battery02b,iron01b,dice05a,cellphone,stapler06,banana01,medal02b,baseball01a,toaster01,blankImage,blankImage,blankImage,blankImage,cow,,,,,,,,,,,,0,117,117,231,,,,,,,,,,,,,,,,,,,,,,,,,,,,,,,,,,,745.1357261000667,746.1499928999692,746.1165754999965,746.7133334999671,746.7133334999671,None,748.2831735999789,None,right,0.8240287000080571,748.2831735999789,None,749.1364685000153,None,left,0.5141435000114143,749.1364685000153,None,,,,,,,,,,,,,,,,,,,,,,,PPT40,001,2022-07-07_12h34.55.191,ABstudy,2022.1.4,59.928756723608586,
AB,Lag5_T1A_T2P,5,A,P,7,12,6,4,16,hand,Did you see the hand?,0.12,0.016,JPG\,celery,tennisball01b,calculator01,pear01,screw02,orange,button01,cellphone,onion,apple07,iron01b,stapler05,banana01,paintbrush01,dandelion,toothbrush03b,blankImage,bull,,,,,,,,,,,,0,118,118,281,,,,,,,,,,,,,,,,,,,,,,,,,,,,,,,,,,,749.673010700033,750.6878675000044,750.6544268999714,751.2462994999951,751.2462994999951,None,753.2514090000186,None,right,0.6477543000364676,753.2514090000186,None,753.9252401000122,None,right,0.6699968000175431,753.9252401000122,None,,,,,,,,,,,,,,,,,,,,,,,PPT40,001,2022-07-07_12h34.55.191,ABstudy,2022.1.4,59.928756723608586,
AB,Lag5_T1P_T2P,5,P,P,7,12,6,4,16,Wolf,Did you see the Wolf?,0.12,0.016,JPG\,brick,eraser,cucumber,ashtray01,thermometer02b,binoculars01b,greywolf,screwdriver04b,grape01,brownsugar,battery02b,stapler03b,dice05a,avocado01,birthdaycandle,watch02a,blankImage,greywolf,,,,,,,,,,,,0,119,119,89,,,,,,,,,,,,,,,,,,,,,,,,,,,,,,,,,,,754.6291779000312,755.642876500031,755.6262598000467,756.2218815999804,756.2218815999804,None,758.1844811000628,None,left,1.0748989999992773,758.1844811000628,None,759.279729800066,None,right,1.251342400093563,759.279729800066,None,,,,,,,,,,,,,,,,,,,,,,,PPT40,001,2022-07-07_12h34.55.191,ABstudy,2022.1.4,59.928756723608586,
AB,Lag1_T1P_T2P,1,P,P,8,9,7,3,12,Wheelchair,Did you see the Wheelchair?,0.12,0.016,JPG\,cigarette,pig,banana01,strawberry,clock01a,plate01b,spoon01,wheelchair,stapler03b,pineapple01a,chain01,paintbrush01,blankImage,blankImage,blankImage,blankImage,blankImage,wheelchair,,,,,,,,,,,,0,120,120,27,,,,,,,,,,,,,,,,,,,,,,,,,,,,,,,,,,,760.5520375000779,761.5653168000281,761.5485732000088,762.1405054000206,762.1405054000206,None,763.600661000004,None,left,0.5703825000673532,763.600661000004,None,764.2011484999675,None,left,0.48211309988982975,764.2011484999675,None,,,,,,,,,,,,,,,,,,,,,,,PPT40,001,2022-07-07_12h34.55.191,ABstudy,2022.1.4,59.928756723608586,
AB,Lag5_T1P_T2P,5,P,P,7,12,6,3,15,mail box,Did you see the mail box?,0.12,0.016,JPG\,key01,apple07,ring01,leaf02a,hammer01,tableknife02,postalmailbox01,sponge01,baseball01a,thermometer02b,celery,stapler06,grape01,cucumber,tennisball01b,blankImage,blankImage,postalmailbox01,,,,,,,,,,,,0,121,121,113,,,,,,,,,,,,,,,,,,,,,,,,,,,,,,,,,,,764.7079674999695,765.7195064000553,765.7027386999689,766.2979763000039,766.2979763000039,None,768.1058938000351,None,left,0.3764818999916315,768.1058938000351,None,768.5054267999949,None,left,0.22498920001089573,768.5054267999949,None,,,,,,,,,,,,,,,,,,,,,,,PPT40,001,2022-07-07_12h34.55.191,ABstudy,2022.1.4,59.928756723608586,
AB,Lag1_T1P_T2P,1,P,P,7,8,6,3,11,harmonica,Did you see the harmonica?,0.12,0.016,JPG\,cucumber,ring01,lipstick02a,microscope,violin,garlic01a,harmonica,stapler03b,cherry01,sewingmachine01a,belt02a,blankImage,blankImage,blankImage,blankImage,blankImage,blankImage,harmonica,,,,,,,,,,,,0,122,122,43,,,,,,,,,,,,,,,,,,,,,,,,,,,,,,,,,,,768.757887499989,769.7569387999829,769.7402935000136,770.32710460003,770.32710460003,None,771.695467100013,None,left,0.5550642999587581,771.695467100013,None,772.2764078000328,None,right,0.30192410002928227,772.2764078000328,None,,,,,,,,,,,,,,,,,,,,,,,PPT40,001,2022-07-07_12h34.55.191,ABstudy,2022.1.4,59.928756723608586,
AB,Lag1_T1P_T2P,1,P,P,8,9,7,3,12,Fire hydrant,Did you see the Fire hydrant?,0.12,0.016,JPG\,foosballtable,candy,envelope03a,microscope,pencil01,leaf02a,scissors01,firehydrant,stapler01,dandelion,pineapple01a,hammer01,blankImage,blankImage,blankImage,blankImage,blankImage,firehydrant,,,,,,,,,,,,0,123,123,83,,,,,,,,,,,,,,,,,,,,,,,,,,,,,,,,,,,772.6177270000335,773.6274733999744,773.6108407999855,774.1113144999836,774.1113144999836,None,775.6774048000807,None,left,0.5413638000609353,775.6774048000807,None,776.2466925000772,None,right,0.28436470008455217,776.2466925000772,None,,,,,,,,,,,,,,,,,,,,,,,PPT40,001,2022-07-07_12h34.55.191,ABstudy,2022.1.4,59.928756723608586,
AB,Lag5_T1A_T2P,5,A,P,7,12,6,5,17,funnel,Did you see the funnel?,0.12,0.016,JPG\,iron01b,orange,birthdaycandle,potato02b,cauliflower01,pencil01,key01,candle08b,celery,tableknife02,pen04b,stapler04b,ring01,rice,lemon02,tomato01,blankImage,englishcucumber,,,,,,,,,,,,0,124,124,259,,,,,,,,,,,,,,,,,,,,,,,,,,,,,,,,,,,776.5669921999797,777.5813150000758,777.5647923999932,778.1963234000141,778.1198639000067,None,780.083817900042,None,right,0.6145015999209136,780.083817900042,None,780.7175529999658,None,left,0.2777360000181943,780.7175529999658,None,,,,,,,,,,,,,,,,,,,,,,,PPT40,001,2022-07-07_12h34.55.191,ABstudy,2022.1.4,59.928756723608586,
AB,Lag5_T1A_T2P,5,A,P,7,12,6,3,15,Car,Did you see the Car?,0.12,0.016,JPG\,lighter01,hammer01,spoon01,chain01,cymbal,sponge01,lipstick02a,alligator,pig,watermelon01,cauliflower01,stapler03b,broccoli01a,tableknife02,tennisball01b,blankImage,blankImage,wallclock,,,,,,,,,,,,0,125,125,277,,,,,,,,,,,,,,,,,,,,,,,,,,,,,,,,,,,781.0200926000252,782.0357914000051,782.0024195000296,782.5830939000007,782.5830939000007,None,784.5269901000429,None,left,1.1074727999512106,784.5269901000429,None,785.6552936000517,None,left,1.363519800012,785.6552936000517,None,,,,,,,,,,,,,,,,,,,,,,,PPT40,001,2022-07-07_12h34.55.191,ABstudy,2022.1.4,59.928756723608586,
AB,Lag5_T1P_T2A,5,P,A,7,12,6,5,17,shoulder,Did you see the shoulder?,0.12,0.016,JPG\,battery02b,sunglasses04,pear01,tennisball01b,clock01a,speaker04,shoulder,spoon01,alligator,pineapple01a,avocado01,grape01,blueberry01,violin,strawberry,sock01a,blankImage,shoulder,,,,,,,,,,,,0,126,126,224,,,,,,,,,,,,,,,,,,,,,,,,,,,,,,,,,,,787.0425507000182,788.0418342000339,788.0249996000202,788.6034420999931,788.6034420999931,None,790.5906975000398,None,left,0.8764029999729246,790.5906975000398,None,791.4978687000694,None,right,0.43251269997563213,791.4978687000694,None,,,,,,,,,,,,,,,,,,,,,,,PPT40,001,2022-07-07_12h34.55.191,ABstudy,2022.1.4,59.928756723608586,
AB,Lag1_T1P_T2P,1,P,P,7,8,6,4,12,rooster,Did you see the rooster?,0.12,0.016,JPG\,pizza,strawberry,potato02b,speaker04,battery02b,iron01b,rooster,stapler03b,globe,banana01,medal02b,baseball01a,blankImage,blankImage,blankImage,blankImage,blankImage,rooster,,,,,,,,,,,,0,127,127,69,,,,,,,,,,,,,,,,,,,,,,,,,,,,,,,,,,,791.9710261999862,792.980311900028,792.9646293000551,793.5623655000236,793.5623655000236,None,795.1325031999731,None,left,0.6063761000987142,795.1325031999731,None,795.7687761000125,None,right,0.6655905999941751,795.7687761000125,None,,,,,,,,,,,,,,,,,,,,,,,PPT40,001,2022-07-07_12h34.55.191,ABstudy,2022.1.4,59.928756723608586,
AB,Lag5_T1A_T2P,5,A,P,6,11,5,5,16,baseball bat,Did you see the baseball bat?,0.12,0.016,JPG\,avocado01,aceofdiamond,match,cauliflower01,paintbrush01,clock01a,pig,cd,balloon01b,cellphone,stapler01,pear01,toaster01,sponge01,orange,blueberry01,blankImage,stool01,,,,,,,,,,,,0,128,128,273,,,,,,,,,,,,,,,,,,,,,,,,,,,,,,,,,,,796.4727496000705,797.4845364000648,797.4678875000682,798.1345708000008,798.1345708000008,None,800.0342859000666,None,right,0.6480318000540137,800.0342859000666,None,800.7184910000069,None,right,0.2376070999307558,800.7184910000069,None,,,,,,,,,,,,,,,,,,,,,,,PPT40,001,2022-07-07_12h34.55.191,ABstudy,2022.1.4,59.928756723608586,
AB,Lag1_T1P_T2A,1,P,A,5,6,4,5,11,Toaster oven,Did you see the Toaster oven?,0.12,0.016,JPG\,fork03c,toothbrush03b,cellphone,fan,toasteroven,clock01a,ring01,eraser,sunglasses04,thermometer02b,violin,blankImage,blankImage,blankImage,blankImage,blankImage,blankImage,toasteroven,,,,,,,,,,,,0,129,129,200,,,,,,,,,,,,,,,,,,,,,,,,,,,,,,,,,,,800.9897967000725,802.0052363000577,801.9718927000649,802.541519499966,802.541519499966,None,803.9828431999777,None,left,0.6847214000299573,803.9828431999777,None,804.6917759000789,None,right,0.21465879993047565,804.6917759000789,None,,,,,,,,,,,,,,,,,,,,,,,PPT40,001,2022-07-07_12h34.55.191,ABstudy,2022.1.4,59.928756723608586,
AB,Lag5_T1A_T2A,5,A,A,7,12,6,4,16,boxing glove,Did you see the boxing glove?,0.12,0.016,JPG\,cherry01,cymbal,envelope03a,foosballtable,shirt02,cellphone,sewingmachine01a,candle08b,battery02b,apple07,pencil01,screwdriver04b,strawberry,sunglasses04,feather03a,rice,blankImage,lollipop04,,,,,,,,,,,,0,130,130,296,,,,,,,,,,,,,,,,,,,,,,,,,,,,,,,,,,,804.9319937999826,805.9426987000043,805.9260446999688,806.5063485000283,806.5063485000283,None,808.4161058000755,None,right,0.8982471999479458,808.4161058000755,None,809.3463294999674,None,right,0.2559860000619665,809.3463294999674,None,,,,,,,,,,,,,,,,,,,,,,,PPT40,001,2022-07-07_12h34.55.191,ABstudy,2022.1.4,59.928756723608586,
AB,Lag5_T1P_T2P,5,P,P,7,12,6,3,15,marble,Did you see the marble?,0.12,0.016,JPG\,cigarette,ashtray01,envelope03a,sandal,chain01,cucumber,marble,tomato01,dandelion,candle01,lemon02,stapler03b,potato02b,cymbal,clock01a,blankImage,blankImage,marble,,,,,,,,,,,,0,131,131,146,,,,,,,,,,,,,,,,,,,,,,,,,,,,,,,,,,,809.6337334000273,810.6475777999731,810.630790199968,811.2190859999973,811.2190859999973,None,813.0986804000568,None,left,0.5447837999090552,813.0986804000568,None,813.6670253999764,None,left,0.24736909999046475,813.6670253999764,None,,,,,,,,,,,,,,,,,,,,,,,PPT40,001,2022-07-07_12h34.55.191,ABstudy,2022.1.4,59.928756723608586,
AB,Lag1_T1P_T2A,1,P,A,7,8,6,4,12,bird,Did you see the bird?,0.12,0.016,JPG\,speaker04,sewingmachine01a,eraser,violin,globe,belt02a,tern,cymbal,cd,greenolive,alligator,pear01,blankImage,blankImage,blankImage,blankImage,blankImage,tern,,,,,,,,,,,,0,132,132,177,,,,,,,,,,,,,,,,,,,,,,,,,,,,,,,,,,,813.9361960999668,814.9516216000775,814.9182841000147,815.5004884999944,815.5004884999944,None,816.946164599969,None,left,0.656494399998337,816.946164599969,None,817.6238583000377,None,right,1.3392026000656188,817.6238583000377,None,,,,,,,,,,,,,,,,,,,,,,,PPT40,001,2022-07-07_12h34.55.191,ABstudy,2022.1.4,59.928756723608586,
AB,Lag1_T1P_T2P,1,P,P,5,6,4,5,11,candy cane,Did you see the candy cane?,0.12,0.016,JPG\,shirt02,match,screw02,foosballtable,candycane01a,stapler04b,sewingmachine01a,watch02a,button01,comb02a,dice05a,blankImage,blankImage,blankImage,blankImage,blankImage,blankImage,candycane01a,,,,,,,,,,,,0,133,133,9,,,,,,,,,,,,,,,,,,,,,,,,,,,,,,,,,,,818.9917566999793,820.0066894000629,819.9733332999749,820.5617172999773,820.5617172999773,None,821.9332654000027,None,left,0.4612328000366688,821.9332654000027,None,822.4260238000425,None,left,0.2405283999396488,822.4260238000425,None,,,,,,,,,,,,,,,,,,,,,,,PPT40,001,2022-07-07_12h34.55.191,ABstudy,2022.1.4,59.928756723608586,
AB,Lag5_T1P_T2P,5,P,P,8,13,7,4,17,Accordion,Did you see the Accordion?,0.12,0.016,JPG\,toiletpaper01a,lipstick02a,potato02b,speaker04,globe,strawberry,carrot01,accordion01,sock01a,candle08b,pen04b,calculator01,stapler01,brick,pear01,fork03c,blankImage,accordion01,,,,,,,,,,,,0,134,134,162,,,,,,,,,,,,,,,,,,,,,,,,,,,,,,,,,,,822.6983708000043,823.710706599988,823.6940403999761,824.2768946000142,824.2768946000142,None,826.2375295000384,None,left,0.397046500002034,826.2375295000384,None,826.6632736000465,None,left,0.22721000004094094,826.6632736000465,None,,,,,,,,,,,,,,,,,,,,,,,PPT40,001,2022-07-07_12h34.55.191,ABstudy,2022.1.4,59.928756723608586,
AB,Lag1_T1P_T2P,1,P,P,7,8,6,3,11,Moose,Did you see the Moose?,0.12,0.016,JPG\,sock01a,spoon01,alligator,comb02a,printer02,medal02b,moose,stapler03a,greenolive,computerkeyboard02,cauliflower01,blankImage,blankImage,blankImage,blankImage,blankImage,blankImage,moose,,,,,,,,,,,,0,135,135,67,,,,,,,,,,,,,,,,,,,,,,,,,,,,,,,,,,,826.9683506999863,827.9815726999659,827.9649819000624,828.5680121000623,828.5680121000623,None,829.8669141000137,None,left,0.7118036999600008,829.8669141000137,None,830.6034950000467,None,right,0.24039599997922778,830.6034950000467,None,,,,,,,,,,,,,,,,,,,,,,,PPT40,001,2022-07-07_12h34.55.191,ABstudy,2022.1.4,59.928756723608586,
AB,Lag1_T1P_T2P,1,P,P,8,9,7,5,14,lawn mower,Did you see the lawn mower?,0.12,0.016,JPG\,battery02b,sunglasses04,pear01,tennisball01b,clock01a,speaker04,binoculars01b,lawnmower,stapler05,pineapple01a,avocado01,grape01,blueberry01,violin,blankImage,blankImage,blankImage,lawnmower,,,,,,,,,,,,0,136,136,46,,,,,,,,,,,,,,,,,,,,,,,,,,,,,,,,,,,830.8698291999754,831.8854022000451,831.851833099965,832.4399355000351,832.4399355000351,None,834.1266648999881,None,right,0.7813375000841916,834.1266648999881,None,834.9381626000395,None,left,0.4800453999778256,834.9381626000395,None,,,,,,,,,,,,,,,,,,,,,,,PPT40,001,2022-07-07_12h34.55.191,ABstudy,2022.1.4,59.928756723608586,
