TrialType,CondType,Lag,T1_PA,T2_PA,T1Loc,T2Loc,PreDistractor,PostDistractor,TotalImg,cueWord,T1cue,StimLength,isi,PicFolder,Img1,Img2,Img3,Img4,Img5,Img6,Img7,Img8,Img9,Img10,Img11,Img12,Img13,Img14,Img15,Img16,Img17,T1_Identity,ImageType,T1PA,T2PA,Picture,Image,FullPathName,FilePath,Practice_Trials.thisRepN,Practice_Trials.thisTrialN,Practice_Trials.thisN,Practice_Trials.thisIndex,trials.thisRepN,trials.thisTrialN,trials.thisN,trials.thisIndex,trials_2.thisRepN,trials_2.thisTrialN,trials_2.thisN,trials_2.thisIndex,Practice_Ins.started,Practice_Ins.stopped,End_Prac_Ins.keys,End_Prac_Ins.rt,End_Prac_Ins.started,End_Prac_Ins.stopped,text_2.started,text_2.stopped,Fixation_Cross_2.started,Fixation_Cross_2.stopped,Rapid_Image_Present_2.started,Rapid_Image_Present_2.stopped,key_resp.keys,key_resp.rt,key_resp.started,key_resp.stopped,T1Response_2.started,T1Response_2.stopped,T2Response_2.started,T2Response_2.stopped,key_resp_4.keys,key_resp_4.rt,key_resp_4.started,key_resp_4.stopped,text.started,text.stopped,End_Instructions.keys,End_Instructions.rt,End_Instructions.started,End_Instructions.stopped,text_5.started,text_5.stopped,FC.started,FC.stopped,Rapid_Image_Present.started,Rapid_Image_Present.stopped,T1Response.started,T1Response.stopped,key_resp_2.keys,key_resp_2.rt,key_resp_2.started,key_resp_2.stopped,T2Response.started,T2Response.stopped,key_resp_3.keys,key_resp_3.rt,key_resp_3.started,key_resp_3.stopped,text_6.started,text_6.stopped,Fin_ins.keys,Fin_ins.rt,Fin_ins.started,Fin_ins.stopped,MemTest.started,MemTest.stopped,MemResponse.keys,MemResponse.rt,MemResponse.started,MemResponse.stopped,Display.started,Display.stopped,text_7.started,text_7.stopped,endOfExperiment.started,endOfExperiment.stopped,key_resp_5.keys,key_resp_5.rt,key_resp_5.started,key_resp_5.stopped,participant,session,date,expName,psychopyVersion,frameRate,
,,,,,,,,,,,,,,,,,,,,,,,,,,,,,,,,,,,,,,,,,,,,,,,,,,,,23.674127400037833,None,space,18.987536699976772,23.674127400037833,None,,,,,,,,,,,,,,,,,,,,,,,,,,,,,,,,,,,,,,,,,,,,,,,,,,,,,,,,,,,,,,,,,PPT47,001,2022-07-11_12h24.32.322,ABstudy,2022.1.4,59.927858824444364,
AB_Prac,Lag1_T1P_T2A,1,P,A,8,9,7,5,14,flower,Did you see the flower?,0.5,0.016,JPG\,razor01,axe01,binder03b,bowl01,kettle01,lettuce,lime,plasticflower01b,mitten04,pencilcase01,plunger02,strawbasket01,toothpick02,wallet02a,blankImage,blankImage,blankImage,plasticflower01b,,,,,,,,0,0,0,5,,,,,,,,,,,,,,,42.74618300003931,43.747019100002944,43.73070379998535,44.351873100036755,44.351873100036755,None,left,1.5471017999807373,51.418961100047454,None,51.418961100047454,None,52.99089819996152,None,right,1.2064154000254348,52.99089819996152,None,,,,,,,,,,,,,,,,,,,,,,,,,,,,,,,,,,,,,,,,,,,,,,,PPT47,001,2022-07-11_12h24.32.322,ABstudy,2022.1.4,59.927858824444364,
AB_Prac,Lag1_T1P_T2A,1,P,A,5,6,4,5,11,Webcam,Did you see the Webcam?,0.5,0.016,JPG\,pictureframe04,binder03b,straw,adjustablewrench01b,webcam,cane,hairdryer02a,icepack,kitchenscale01a,lifejacket,piggybank,blankImage,blankImage,blankImage,blankImage,blankImage,blankImage,webcam,,,,,,,,0,1,1,6,,,,,,,,,,,,,,,54.228256099973805,55.241731800022535,55.22517849993892,55.824853500002064,55.824853500002064,None,left,1.262932199984789,61.39128590002656,None,61.39128590002656,None,62.68290719995275,None,right,0.746336100040935,62.68290719995275,None,,,,,,,,,,,,,,,,,,,,,,,,,,,,,,,,,,,,,,,,,,,,,,,PPT47,001,2022-07-11_12h24.32.322,ABstudy,2022.1.4,59.927858824444364,
AB_Prac,Lag1_T1P_T2P,1,P,P,8,9,7,5,14,Tennis racket,Did you see the Tennis racket?,0.5,0.016,JPG\,coconut,computermouse06,croissant01,deodorant02a,pillow01a,peanut01,boot02b,tennisracket,stapler03b,crayon,eggplant,marker01a,plant01,radish01,blankImage,blankImage,blankImage,tennisracket,,,,,,,,0,2,2,0,,,,,,,,,,,,,,,63.45871759997681,64.46772159996908,64.45105060003698,65.04833030002192,65.04833030002192,None,left,0.9542680999729782,72.09213310002815,None,72.09213310002815,None,73.07642299996223,None,left,2.113548699999228,73.07642299996223,None,,,,,,,,,,,,,,,,,,,,,,,,,,,,,,,,,,,,,,,,,,,,,,,PPT47,001,2022-07-11_12h24.32.322,ABstudy,2022.1.4,59.927858824444364,
AB_Prac,Lag5_T1P_T2P,5,P,P,5,10,4,5,15,Vulture,Did you see the Vulture?,0.5,0.016,JPG\,shorts01,toast,ramekin01,bib,vulture,cracker02,date,glasses01a,hat03b,stapler01,measuringtape01,nail,pill,drum01,starfish01,blankImage,blankImage,vulture,,,,,,,,0,3,3,3,,,,,,,,,,,,,,,75.21813149994705,76.22943910001777,76.21271560003515,76.7977292999858,76.7977292999858,None,left,1.1707695999648422,84.4111891000066,None,84.4111891000066,None,85.60509339999408,None,left,0.6004641000181437,85.60509339999408,None,,,,,,,,,,,,,,,,,,,,,,,,,,,,,,,,,,,,,,,,,,,,,,,PPT47,001,2022-07-11_12h24.32.322,ABstudy,2022.1.4,59.927858824444364,
AB_Prac,Lag5_T1P_T2P,5,P,P,7,12,6,3,15,vacuum,Did you see the vacuum?,0.5,0.016,JPG\,fork07b,lightbulb01,manshoe,saw02b,shoelace,soap03a,vacuumcleaner01,floortile01,necklace,doll,cabbage,stapler03a,hanger02a,laptop01a,nailpolish03b,blankImage,blankImage,vacuumcleaner01,,,,,,,,0,4,4,2,,,,,,,,,,,,,,,86.22962250001729,87.24022529996,87.22357319993898,87.80472310003825,87.80472310003825,None,left,1.177883299998939,95.36410420003813,None,95.36410420003813,None,96.56638490001205,None,left,0.7270326999714598,96.56638490001205,None,,,,,,,,,,,,,,,,,,,,,,,,,,,,,,,,,,,,,,,,,,,,,,,PPT47,001,2022-07-11_12h24.32.322,ABstudy,2022.1.4,59.927858824444364,
AB_Prac,Lag1_T1P_T2P,1,P,P,6,7,5,5,12,triangle,Did you see the triangle?,0.5,0.016,JPG\,ginger,mousetrap,plum01,slipper01b,dropper01,triangle,stapler04b,pants,raspberry01,rope03,scale01a,vase01,blankImage,blankImage,blankImage,blankImage,blankImage,triangle,,,,,,,,0,5,5,1,,,,,,,,,,,,,,,97.31873019994237,98.31802480004262,98.30144469998777,98.89588990004268,98.89588990004268,None,left,1.197224700008519,105.0087446999969,None,105.0087446999969,None,106.22583180002403,None,left,0.6282273000106215,106.22583180002403,None,,,,,,,,,,,,,,,,,,,,,,,,,,,,,,,,,,,,,,,,,,,,,,,PPT47,001,2022-07-11_12h24.32.322,ABstudy,2022.1.4,59.927858824444364,
AB_Prac,Lag5_T1P_T2P,5,P,P,5,10,4,5,15,washing machine,Did you see the washing machine?,0.5,0.016,JPG\,waterbottle03,wheel01,flashlight02b,zucchini01,washingmachine,headphones02b,nutcracker01,paintroller01,paperclip03,stapler06,ribbon04,electricrazor,bottleofredwine01,pitabread,pot02a,blankImage,blankImage,washingmachine,,,,,,,,0,6,6,4,,,,,,,,,,,,,,,106.88373070000671,107.89391260000411,107.8772244999418,108.45437829999719,108.45437829999719,None,left,1.1279227999038994,115.97381590004079,None,115.97381590004079,None,117.11975760001224,None,left,0.5270086000673473,117.11975760001224,None,,,,,,,,,,,,,,,,,,,,,,,,,,,,,,,,,,,,,,,,,,,,,,,PPT47,001,2022-07-11_12h24.32.322,ABstudy,2022.1.4,59.927858824444364,
AB_Prac,Lag5_T1A_T2A,5,A,A,6,11,5,5,16,castle,Did you see the castle?,0.5,0.016,JPG\,tape02a,englishmuffin,flask,ladle02a,monitor,peach01,keychain,squeegee01b,telephone01b,whisk,walkman,syringe02,baguette01,coaster,box01a,coffeepot03a,blankImage,None,,,,,,,,0,7,7,11,,,,,,,,,,,,,,,117.6725679000374,118.68799000000581,118.65458830003627,119.23924559995066,119.23924559995066,None,right,1.3050871000159532,127.26070019998588,None,127.26070019998588,None,128.5981185999699,None,right,0.7206081000622362,128.5981185999699,None,,,,,,,,,,,,,,,,,,,,,,,,,,,,,,,,,,,,,,,,,,,,,,,PPT47,001,2022-07-11_12h24.32.322,ABstudy,2022.1.4,59.927858824444364,
AB_Prac,Lag5_T1P_T2A,5,P,A,6,11,5,5,16,Wheat,Did you see the Wheat?,0.5,0.016,JPG\,bottleopener01,dentalfloss03b,cooler01,icecreamcone01a,paperclip01b,wheat,pencilsharpener02a,plasticbasket01a,toycar04,apricot,hairclip02,rock01a,honeydewmelon,antenna,blackberry,cardboardbox,blankImage,wheat,,,,,,,,0,8,8,7,,,,,,,,,,,,,,,129.35182239999995,130.36651469999924,130.3497752000112,131.00102359999437,130.92632970004342,None,left,1.3702827000524849,138.97902309999336,None,138.97902309999336,None,140.3762653999729,None,right,0.6933932000538334,140.3762653999729,None,,,,,,,,,,,,,,,,,,,,,,,,,,,,,,,,,,,,,,,,,,,,,,,PPT47,001,2022-07-11_12h24.32.322,ABstudy,2022.1.4,59.927858824444364,
AB_Prac,Lag5_T1P_T2A,5,P,A,6,11,5,5,16,bread,Did you see the bread?,0.5,0.016,JPG\,cleaver01,clipboard,dustpan,hikingshoe01,notebook03a,baguette01,playingcard,pliers02b,styrofoamcup,rollingpin01a,swimgoggles,wineglass01,fryingpan02a,safetypin,syringe01,thimble,blankImage,baguette01,,,,,,,,0,9,9,8,,,,,,,,,,,,,,,141.09603080002125,142.1117667000508,142.0780742999632,142.66346349997912,142.66346349997912,None,left,1.285639900015667,150.66330190002918,None,150.66330190002918,None,151.97238000005018,None,right,0.6805900000035763,151.97238000005018,None,,,,,,,,,,,,,,,,,,,,,,,,,,,,,,,,,,,,,,,,,,,,,,,PPT47,001,2022-07-11_12h24.32.322,ABstudy,2022.1.4,59.927858824444364,
AB_Prac,Lag1_T1A_T2A,1,A,A,8,9,7,3,12,Moose,Did you see the Moose?,0.5,0.016,JPG\,clothespin03b,corkscrew03a,drillbit03a,fusilli03a,needlenosepliers01,perfume01a,pistachio,scrubbingbrush05b,spatula03,toothpastetube,hinge,toydinosaur,blankImage,blankImage,blankImage,blankImage,blankImage,None,,,,,,,,0,10,10,10,,,,,,,,,,,,,,,152.68454960000236,153.68968169996515,153.65639270003885,154.22350840002764,154.22350840002764,None,right,1.1784618000965565,160.31449799996335,None,160.31449799996335,None,161.51406860002317,None,right,0.5166808000067249,161.51406860002317,None,,,,,,,,,,,,,,,,,,,,,,,,,,,,,,,,,,,,,,,,,,,,,,,PPT47,001,2022-07-11_12h24.32.322,ABstudy,2022.1.4,59.927858824444364,
AB_Prac,Lag5_T1A_T2P,5,A,P,6,11,5,3,14,dog,Did you see the dog?,0.5,0.016,JPG\,bucket01a,doorlock,cookiecutter,fireextinguisher01,gluestick,highlighter02b,sportbag,spraybottle01,suitcase,thread02,stapler05,walnut01c,icecubetray01a,vikingmask01b,blankImage,blankImage,blankImage,None,,,,,,,,0,11,11,9,,,,,,,,,,,,,,,162.05032699997537,163.06550729996525,163.03217170003336,163.62361540005077,163.62361540005077,None,right,1.5561219000956044,170.6333428999642,None,170.6333428999642,None,172.2093576999614,None,left,0.5239807000616565,172.2093576999614,None,,,,,,,,,,,,,,,,,,,,,,,,,,,,,,,,,,,,,,,,,,,,,,,PPT47,001,2022-07-11_12h24.32.322,ABstudy,2022.1.4,59.927858824444364,
,,,,,,,,,,,,,,,,,,,,,,,,,,,,,,,,,,,,,,,,,,,,,,,,,,,,,,,,,,,,,,,,,,,,,,,,,,,,172.76091399998404,None,space,14.132257799967192,172.76091399998404,None,,,,,,,,,,,,,,,,,,,,,,,,,,,,,,,,,,,,,,,,,PPT47,001,2022-07-11_12h24.32.322,ABstudy,2022.1.4,59.927858824444364,
AB,Lag5_T1P_T2P,5,P,P,8,13,7,5,18,sock,Did you see the sock?,0.12,0.016,JPG\,thermometer02b,avocado01,scissors01,tennisball01b,medal02b,banana01,strawberry,athleticsock,potato02b,pineapple01a,microscope,cymbal,stapler03b,celery,garlic01a,sunglasses04,blankImage,athleticsock,,,,,,,,,,,,0,0,0,141,,,,,,,,,,,,,,,,,,,,,,,,,,,,,,,,,,,187.66782640002202,188.6743883000454,188.65773860004265,189.26183019997552,189.26183019997552,None,191.20530489995144,None,right,3.1121557001024485,191.20530489995144,None,194.34964589995798,None,right,1.1198073999257758,194.34964589995798,None,,,,,,,,,,,,,,,,,,,,,,,PPT47,001,2022-07-11_12h24.32.322,ABstudy,2022.1.4,59.927858824444364,
AB,Lag1_T1A_T2A,1,A,A,8,9,7,3,12,popcorn,Did you see the popcorn?,0.12,0.016,JPG\,brownsugar,candle01,match,printer02,broom01,balloon01b,belt02a,potato02b,computerkeyboard02,feather03a,rice,mushroom01,blankImage,blankImage,blankImage,blankImage,blankImage,banjo,,,,,,,,,,,,0,1,1,290,,,,,,,,,,,,,,,,,,,,,,,,,,,,,,,,,,,195.50369969999883,196.5158929999452,196.49895269994158,197.0027336999774,197.0027336999774,None,198.5271549000172,None,right,1.2382595000090078,198.5271549000172,None,199.7861019000411,None,right,1.0119996999856085,199.7861019000411,None,,,,,,,,,,,,,,,,,,,,,,,PPT47,001,2022-07-11_12h24.32.322,ABstudy,2022.1.4,59.927858824444364,
AB,Lag1_T1P_T2P,1,P,P,6,7,5,3,10,Pool table,Did you see the Pool table?,0.12,0.016,JPG\,tomato01,pen04b,shirt02,carrot01,lamp04a,pooltable,stapler06,avocado01,sewingmachine01a,apple07,blankImage,blankImage,blankImage,blankImage,blankImage,blankImage,blankImage,pooltable,,,,,,,,,,,,0,2,2,29,,,,,,,,,,,,,,,,,,,,,,,,,,,,,,,,,,,200.82224300003145,201.82141420000698,201.8057575999992,202.51300909998827,202.51300909998827,None,203.6090158999432,None,left,1.1244114000583068,203.6090158999432,None,204.7570363000268,None,left,0.5692185000516474,204.7570363000268,None,,,,,,,,,,,,,,,,,,,,,,,PPT47,001,2022-07-11_12h24.32.322,ABstudy,2022.1.4,59.927858824444364,
AB,Lag5_T1P_T2P,5,P,P,8,13,7,5,18,pipe,Did you see the pipe?,0.12,0.016,JPG\,scissors01,ashtray01,garlic01a,medal02b,cigarette,candle08b,leaf02a,smokingpipe,cucumber,rice,toiletpaper01a,greenolive,stapler01,cellphone,tableknife02,spoon01,blankImage,smokingpipe,,,,,,,,,,,,0,3,3,138,,,,,,,,,,,,,,,,,,,,,,,,,,,,,,,,,,,205.4116494000191,206.42554640001617,206.4087943000486,206.99930060002953,206.99930060002953,None,208.89378060004674,None,left,0.9284484999952838,208.89378060004674,None,209.8458617000142,None,left,0.44725980004295707,209.8458617000142,None,,,,,,,,,,,,,,,,,,,,,,,PPT47,001,2022-07-11_12h24.32.322,ABstudy,2022.1.4,59.927858824444364,
AB,Lag1_T1A_T2P,1,A,P,8,9,7,3,12,porcupine,Did you see the porcupine?,0.12,0.016,JPG\,celery,orange,scissors01,balloon01b,avocado01,printer02,mushroom01,sewingmachine01a,stapler01,dice05a,ashtray01,fan,blankImage,blankImage,blankImage,blankImage,blankImage,drumstick,,,,,,,,,,,,0,4,4,233,,,,,,,,,,,,,,,,,,,,,,,,,,,,,,,,,,,210.31958140002098,211.3308889999753,211.31531660002656,211.909638299956,211.909638299956,None,213.45127810002305,None,right,1.1302383999573067,213.45127810002305,None,214.60009490000084,None,right,0.8861319000134245,214.60009490000084,None,,,,,,,,,,,,,,,,,,,,,,,PPT47,001,2022-07-11_12h24.32.322,ABstudy,2022.1.4,59.927858824444364,
AB,Lag5_T1A_T2A,5,A,A,5,10,4,5,15,flower,Did you see the flower?,0.12,0.016,JPG\,clock01a,cellphone,toaster01,toothbrush03b,cauliflower01,microscope,comb02a,paintbrush01,scarf,clock04,sponge01,iron01b,watch02a,celery,ring01,blankImage,blankImage,stepladder,,,,,,,,,,,,0,5,5,303,,,,,,,,,,,,,,,,,,,,,,,,,,,,,,,,,,,215.51997589995153,216.53543129994068,216.50205949996598,217.08364299999084,217.08364299999084,None,218.89618110004812,None,right,2.076922700041905,218.89618110004812,None,220.99025489995256,None,right,0.5518888999940827,220.99025489995256,None,,,,,,,,,,,,,,,,,,,,,,,PPT47,001,2022-07-11_12h24.32.322,ABstudy,2022.1.4,59.927858824444364,
AB,Lag5_T1P_T2P,5,P,P,6,11,5,4,15,punching bag,Did you see the punching bag?,0.12,0.016,JPG\,foosballtable,cigarette,pen04b,birthdaycandle,hammer01,punchingbag,binoculars01b,chain01,potato02b,cauliflower01,stapler04b,ashtray01,scarf,cellphone,calculator01,blankImage,blankImage,punchingbag,,,,,,,,,,,,0,6,6,156,,,,,,,,,,,,,,,,,,,,,,,,,,,,,,,,,,,221.58103949995711,222.5917758999858,222.57493560004514,223.0761706000194,223.0761706000194,None,225.0124460000079,None,left,0.7288744000252336,225.0124460000079,None,225.76205290004145,None,left,0.5161634999094531,225.76205290004145,None,,,,,,,,,,,,,,,,,,,,,,,PPT47,001,2022-07-11_12h24.32.322,ABstudy,2022.1.4,59.927858824444364,
AB,Lag5_T1A_T2P,5,A,P,7,12,6,4,16,scooter,Did you see the scooter?,0.12,0.016,JPG\,cigarette,pig,banana01,strawberry,clock01a,plate01b,spoon01,blueberry01,battery02b,pineapple01a,chain01,stapler05,candy,pen04b,teabag,birthdaycandle,blankImage,1nose,,,,,,,,,,,,0,7,7,268,,,,,,,,,,,,,,,,,,,,,,,,,,,,,,,,,,,226.300169599941,227.31304160004947,227.2962770999875,227.90074599999934,227.90074599999934,None,229.7364601000445,None,right,1.2522963000228629,229.7364601000445,None,231.016843099962,None,right,0.7080470001092181,231.016843099962,None,,,,,,,,,,,,,,,,,,,,,,,PPT47,001,2022-07-11_12h24.32.322,ABstudy,2022.1.4,59.927858824444364,
AB,Lag1_T1P_T2A,1,P,A,7,8,6,4,12,gorilla,Did you see the gorilla?,0.12,0.016,JPG\,scissors01,ashtray01,garlic01a,medal02b,cigarette,candle08b,gorilla,envelope03a,cucumber,rice,toiletpaper01a,greenolive,blankImage,blankImage,blankImage,blankImage,blankImage,gorilla,,,,,,,,,,,,0,8,8,189,,,,,,,,,,,,,,,,,,,,,,,,,,,,,,,,,,,231.75571049994323,232.76845980004873,232.75183129997458,233.3228674000129,233.3228674000129,None,234.8200035999762,None,left,1.0407203000504524,234.8200035999762,None,235.88844270003028,None,right,0.39721490000374615,235.88844270003028,None,,,,,,,,,,,,,,,,,,,,,,,PPT47,001,2022-07-11_12h24.32.322,ABstudy,2022.1.4,59.927858824444364,
AB,Lag1_T1P_T2P,1,P,P,6,7,5,5,12,snowman,Did you see the snowman?,0.12,0.016,JPG\,comb02a,watch02a,scissors01,dice05a,tableknife02,snowman,stapler03a,printer02,dandelion,spoon01,ashtray01,battery02b,blankImage,blankImage,blankImage,blankImage,blankImage,snowman,,,,,,,,,,,,0,9,9,4,,,,,,,,,,,,,,,,,,,,,,,,,,,,,,,,,,,236.30953460000455,237.3229698999785,237.30626199999824,237.88705859996844,237.88705859996844,None,239.38377369998489,None,left,1.0530033999821171,239.38377369998489,None,240.45964529993944,None,left,0.3130773000884801,240.45964529993944,None,,,,,,,,,,,,,,,,,,,,,,,PPT47,001,2022-07-11_12h24.32.322,ABstudy,2022.1.4,59.927858824444364,
AB,Lag1_T1A_T2P,1,A,P,5,6,4,3,9,Spider,Did you see the Spider?,0.12,0.016,JPG\,pen04b,speaker04,lighter01,cherry01,8ball,stapler04b,sock01a,toothbrush03b,broom01,blankImage,blankImage,blankImage,blankImage,blankImage,blankImage,blankImage,blankImage,bridge,,,,,,,,,,,,0,10,10,250,,,,,,,,,,,,,,,,,,,,,,,,,,,,,,,,,,,240.84419650002383,241.8440935999388,241.82744589995127,242.40883900003973,242.40883900003973,None,243.49362199997995,None,right,1.1917105000466108,243.49362199997995,None,244.71647959994152,None,right,1.1210435000248253,244.71647959994152,None,,,,,,,,,,,,,,,,,,,,,,,PPT47,001,2022-07-11_12h24.32.322,ABstudy,2022.1.4,59.927858824444364,
AB,Lag1_T1P_T2P,1,P,P,6,7,5,5,12,owl,Did you see the owl?,0.12,0.016,JPG\,paintbrush01,eraser,medal02b,hammer01,speaker04,greathornowl,stapler01,comb02a,plate01b,clock01a,button01,globe,blankImage,blankImage,blankImage,blankImage,blankImage,greathornowl,,,,,,,,,,,,0,11,11,1,,,,,,,,,,,,,,,,,,,,,,,,,,,,,,,,,,,245.87763430003542,246.88209750002716,246.84875689994078,247.4169811999891,247.4169811999891,None,248.96241030003875,None,left,1.0745866999495775,248.96241030003875,None,250.06906969996635,None,right,0.7681435000849888,250.06906969996635,None,,,,,,,,,,,,,,,,,,,,,,,PPT47,001,2022-07-11_12h24.32.322,ABstudy,2022.1.4,59.927858824444364,
AB,Lag5_T1A_T2P,5,A,P,5,10,4,3,13,License Plate,Did you see the License Plate?,0.12,0.016,JPG\,tomato01,pen04b,shirt02,carrot01,lamp04a,key01,pizza,avocado01,sewingmachine01a,stapler06,iron01b,book01b,chain01,blankImage,blankImage,blankImage,blankImage,porcupine,,,,,,,,,,,,0,12,12,270,,,,,,,,,,,,,,,,,,,,,,,,,,,,,,,,,,,250.93512529996224,251.93747729994357,251.92080660001375,252.52723679994233,252.52723679994233,None,254.0666046999395,None,right,1.0345726000377908,254.0666046999395,None,255.12422719993629,None,right,0.5209287999896333,255.12422719993629,None,,,,,,,,,,,,,,,,,,,,,,,PPT47,001,2022-07-11_12h24.32.322,ABstudy,2022.1.4,59.927858824444364,
AB,Lag1_T1P_T2P,1,P,P,6,7,5,4,11,American football,Did you see the American football?,0.12,0.016,JPG\,toaster01,garlic01a,faucet,fan,comb02a,football,stapler06,watch02a,onion,blueberry01,toiletpaper01a,blankImage,blankImage,blankImage,blankImage,blankImage,blankImage,football,,,,,,,,,,,,0,13,13,12,,,,,,,,,,,,,,,,,,,,,,,,,,,,,,,,,,,255.6842045999365,256.69229200005066,256.6755834999494,257.27045499999076,257.27045499999076,None,258.6888648000313,None,left,0.9090792000060901,258.6888648000313,None,259.6286084000021,None,left,0.616241900017485,259.6286084000021,None,,,,,,,,,,,,,,,,,,,,,,,PPT47,001,2022-07-11_12h24.32.322,ABstudy,2022.1.4,59.927858824444364,
AB,Lag5_T1A_T2P,5,A,P,5,10,4,5,15,shower,Did you see the shower?,0.12,0.016,JPG\,sewingmachine01a,thermometer02b,sponge01,eraser,broccoli01a,fork03c,pizza,violin,belt02a,stapler04b,pineapple01a,tennisball01b,dandelion,cauliflower01,lemon02,blankImage,blankImage,redfox,,,,,,,,,,,,0,14,14,271,,,,,,,,,,,,,,,,,,,,,,,,,,,,,,,,,,,260.26668380002957,261.2801625999855,261.26341200002935,261.881173199974,261.881173199974,None,263.7052838000236,None,right,1.2273154000286013,263.7052838000236,None,264.95064029993955,None,right,0.3899942000862211,264.95064029993955,None,,,,,,,,,,,,,,,,,,,,,,,PPT47,001,2022-07-11_12h24.32.322,ABstudy,2022.1.4,59.927858824444364,
AB,Lag5_T1P_T2P,5,P,P,6,11,5,3,14,ladder,Did you see the ladder?,0.12,0.016,JPG\,celery,orange,scissors01,balloon01b,avocado01,stepladder,mushroom01,sewingmachine01a,lighter01,dice05a,stapler01,fan,cd,sock01a,blankImage,blankImage,blankImage,stepladder,,,,,,,,,,,,0,15,15,119,,,,,,,,,,,,,,,,,,,,,,,,,,,,,,,,,,,265.3720755999675,266.38521199999377,266.3685020999983,266.9810868999921,266.9810868999921,None,268.6872345999582,None,left,0.7899521000217646,268.6872345999582,None,269.5047850999981,None,left,0.48455439996905625,269.5047850999981,None,,,,,,,,,,,,,,,,,,,,,,,PPT47,001,2022-07-11_12h24.32.322,ABstudy,2022.1.4,59.927858824444364,
AB,Lag5_T1P_T2A,5,P,A,5,10,4,3,13,pin,Did you see the pin?,0.12,0.016,JPG\,candle01,fork03c,plate01b,violin,pin,candy,calculator01,paintbrush01,cherry01,sock01a,teabag,banana01,cd,blankImage,blankImage,blankImage,blankImage,pin,,,,,,,,,,,,0,16,16,215,,,,,,,,,,,,,,,,,,,,,,,,,,,,,,,,,,,270.0242780999979,271.03972320002504,271.00632829999086,271.58219929994084,271.58219929994084,None,273.24906399997417,None,right,1.0369554000208154,273.24906399997417,None,274.3098849999951,None,right,0.464008399983868,274.3098849999951,None,,,,,,,,,,,,,,,,,,,,,,,PPT47,001,2022-07-11_12h24.32.322,ABstudy,2022.1.4,59.927858824444364,
AB,Lag1_T1A_T2P,1,A,P,8,9,7,4,13,Fireplace,Did you see the Fireplace?,0.12,0.016,JPG\,scissors01,ashtray01,garlic01a,medal02b,cigarette,candle08b,leaf02a,envelope03a,stapler06,rice,toiletpaper01a,greenolive,cymbal,blankImage,blankImage,blankImage,blankImage,dartboard,,,,,,,,,,,,0,17,17,252,,,,,,,,,,,,,,,,,,,,,,,,,,,,,,,,,,,274.79582140001,275.81115660001524,275.7777610999765,276.3742112000473,276.3742112000473,None,277.96335930004716,None,right,1.0263136000139639,277.96335930004716,None,279.01426470000297,None,right,0.4073831000132486,279.01426470000297,None,,,,,,,,,,,,,,,,,,,,,,,PPT47,001,2022-07-11_12h24.32.322,ABstudy,2022.1.4,59.927858824444364,
AB,Lag5_T1A_T2P,5,A,P,7,12,6,5,17,Rollerblade,Did you see the Rollerblade?,0.12,0.016,JPG\,binoculars01b,cymbal,pizza,candy,paintbrush01,sponge01,grape01,thermometer02b,speaker04,lemon02,lipstick02a,stapler03b,candle01,8ball,plate01b,pen04b,blankImage,lion,,,,,,,,,,,,0,18,18,266,,,,,,,,,,,,,,,,,,,,,,,,,,,,,,,,,,,279.45372440002393,280.4657041999744,280.4489964999957,281.0330380999949,281.0330380999949,None,282.97753279993776,None,right,1.5393508999841288,282.97753279993776,None,284.55083810002543,None,right,0.41369429999031126,284.55083810002543,None,,,,,,,,,,,,,,,,,,,,,,,PPT47,001,2022-07-11_12h24.32.322,ABstudy,2022.1.4,59.927858824444364,
AB,Lag1_T1A_T2P,1,A,P,5,6,4,3,9,Crown,Did you see the Crown?,0.12,0.016,JPG\,leaf02a,pear01,measuringcup01,cigarette,fan,stapler04b,teabag,tableknife02,ring01,blankImage,blankImage,blankImage,blankImage,blankImage,blankImage,blankImage,blankImage,arrow02,,,,,,,,,,,,0,19,19,248,,,,,,,,,,,,,,,,,,,,,,,,,,,,,,,,,,,285.0025913999416,286.0055098000448,285.98990819999017,286.64021790004335,286.56679730000906,None,287.69727460003924,None,right,1.1956804998917505,287.69727460003924,None,288.92444249999244,None,right,0.8810832999879494,288.92444249999244,None,,,,,,,,,,,,,,,,,,,,,,,PPT47,001,2022-07-11_12h24.32.322,ABstudy,2022.1.4,59.927858824444364,
AB,Lag1_T1P_T2P,1,P,P,8,9,7,4,13,mattress,Did you see the mattress?,0.12,0.016,JPG\,button01,celery,birthdaycandle,apple07,avocado01,tennisball01b,dice05a,mattress,stapler01,feather03a,tomato01,scarf,orange,blankImage,blankImage,blankImage,blankImage,mattress,,,,,,,,,,,,0,20,20,22,,,,,,,,,,,,,,,,,,,,,,,,,,,,,,,,,,,289.8380701999413,290.84288380004,290.80972449993715,291.42155870003626,291.42155870003626,None,293.03914000000805,None,right,2.246136700036004,293.03914000000805,None,295.3142301000189,None,left,0.5223563000326976,295.3142301000189,None,,,,,,,,,,,,,,,,,,,,,,,PPT47,001,2022-07-11_12h24.32.322,ABstudy,2022.1.4,59.927858824444364,
AB,Lag1_T1P_T2P,1,P,P,6,7,5,5,12,Snowboard,Did you see the Snowboard?,0.12,0.016,JPG\,belt02a,measuringcup01,spoon01,chain01,greenolive,snowboard,stapler01,onion,fan,strawberry,candle01,broom01,blankImage,blankImage,blankImage,blankImage,blankImage,snowboard,,,,,,,,,,,,0,21,21,49,,,,,,,,,,,,,,,,,,,,,,,,,,,,,,,,,,,295.8702109999722,296.8823659999762,296.8655165999662,297.4658204000443,297.4658204000443,None,298.9163840999827,None,left,1.3202997000189498,298.9163840999827,None,300.26876480004285,None,left,0.6157492999918759,300.26876480004285,None,,,,,,,,,,,,,,,,,,,,,,,PPT47,001,2022-07-11_12h24.32.322,ABstudy,2022.1.4,59.927858824444364,
AB,Lag1_T1P_T2P,1,P,P,8,9,7,3,12,Sheep,Did you see the Sheep?,0.12,0.016,JPG\,celery,orange,scissors01,balloon01b,avocado01,printer02,mushroom01,sheep,stapler03b,dice05a,ashtray01,fan,blankImage,blankImage,blankImage,blankImage,blankImage,sheep,,,,,,,,,,,,0,22,22,71,,,,,,,,,,,,,,,,,,,,,,,,,,,,,,,,,,,300.90570110001136,301.9204764999449,301.8871077999938,302.50307219999377,302.50307219999377,None,303.9895269999979,None,left,1.1674583000130951,303.9895269999979,None,305.17405150004197,None,right,0.49515239999163896,305.17405150004197,None,,,,,,,,,,,,,,,,,,,,,,,PPT47,001,2022-07-11_12h24.32.322,ABstudy,2022.1.4,59.927858824444364,
AB,Lag5_T1P_T2P,5,P,P,7,12,6,5,17,American football helmet,Did you see the American football helmet?,0.12,0.016,JPG\,alligator,banana01,apple07,tomato01,button01,spoon01,footballhelmet,fork03c,slipper03b,potato02b,grape01,stapler03b,teabag,screwdriver04b,hammer01,tennisball01b,blankImage,footballhelmet,,,,,,,,,,,,0,23,23,148,,,,,,,,,,,,,,,,,,,,,,,,,,,,,,,,,,,305.7406539999647,306.74188780004624,306.725214599981,307.22573109995574,307.22573109995574,None,309.2314071999863,None,left,0.7819823999889195,309.2314071999863,None,310.0453738999786,None,left,0.24708820006344467,310.0453738999786,None,,,,,,,,,,,,,,,,,,,,,,,PPT47,001,2022-07-11_12h24.32.322,ABstudy,2022.1.4,59.927858824444364,
AB,Lag1_T1P_T2P,1,P,P,5,6,4,5,11,squirrel,Did you see the squirrel?,0.12,0.016,JPG\,pencil01,orange,clock01a,sponge01,squirrel,stapler05,lipstick02a,strawberry,book01b,mushroom01,envelope03a,blankImage,blankImage,blankImage,blankImage,blankImage,blankImage,squirrel,,,,,,,,,,,,0,24,24,5,,,,,,,,,,,,,,,,,,,,,,,,,,,,,,,,,,,310.3240220999578,311.3296295000473,311.31288149999455,311.8802340000402,311.8802340000402,None,313.29593829996884,None,left,1.0286241000285372,313.29593829996884,None,314.35015910002403,None,left,0.27105320000555366,314.35015910002403,None,,,,,,,,,,,,,,,,,,,,,,,PPT47,001,2022-07-11_12h24.32.322,ABstudy,2022.1.4,59.927858824444364,
AB,Lag5_T1P_T2P,5,P,P,6,11,5,4,15,fish,Did you see the fish?,0.12,0.016,JPG\,sock01a,spoon01,alligator,comb02a,printer02,rockbass,lamp04a,cymbal,greenolive,computerkeyboard02,stapler03a,scarf,teabag,watermelon01,battery02b,blankImage,blankImage,rockbass,,,,,,,,,,,,0,25,25,115,,,,,,,,,,,,,,,,,,,,,,,,,,,,,,,,,,,314.653180000023,315.6676830999786,315.63438019994646,316.22096950002015,316.22096950002015,None,318.0788354999386,None,left,0.8381999999983236,318.0788354999386,None,318.94040620001033,None,left,0.26585480000358075,318.94040620001033,None,,,,,,,,,,,,,,,,,,,,,,,PPT47,001,2022-07-11_12h24.32.322,ABstudy,2022.1.4,59.927858824444364,
AB,Lag1_T1A_T2P,1,A,P,8,9,7,5,14,Wolf,Did you see the Wolf?,0.12,0.016,JPG\,carrot01,watch02a,clock04,microscope,toiletpaper01a,potato02b,alligator,ring01,stapler03b,watermelon01,cd,pencil01,measuringcup01,balloon01b,blankImage,blankImage,blankImage,dreamcatcher,,,,,,,,,,,,0,26,26,253,,,,,,,,,,,,,,,,,,,,,,,,,,,,,,,,,,,319.2457856000401,320.25540459994227,320.2387335000094,320.81706589995883,320.81706589995883,None,322.57265899993945,None,right,1.6881771999178454,322.57265899993945,None,324.29300720000174,None,left,0.455956400022842,324.29300720000174,None,,,,,,,,,,,,,,,,,,,,,,,PPT47,001,2022-07-11_12h24.32.322,ABstudy,2022.1.4,59.927858824444364,
AB,Lag1_T1P_T2P,1,P,P,7,8,6,5,13,school bus,Did you see the school bus?,0.12,0.016,JPG\,aceofdiamond,banana01,scissors01,pig,shirt02,leaf02a,schoolbus,stapler05,fork03c,tableknife02,balloon01b,match,toothbrush03b,blankImage,blankImage,blankImage,blankImage,schoolbus,,,,,,,,,,,,0,27,27,24,,,,,,,,,,,,,,,,,,,,,,,,,,,,,,,,,,,324.7814752999693,325.79437709995545,325.77766859997064,326.37079349998385,326.37079349998385,None,327.92854360002093,None,left,0.9247909999685362,327.92854360002093,None,328.8805765999714,None,right,0.3646841000299901,328.8805765999714,None,,,,,,,,,,,,,,,,,,,,,,,PPT47,001,2022-07-11_12h24.32.322,ABstudy,2022.1.4,59.927858824444364,
AB,Lag5_T1P_T2P,5,P,P,6,11,5,4,15,shovel,Did you see the shovel?,0.12,0.016,JPG\,carrot01,watch02a,clock04,microscope,toiletpaper01a,shovel01,alligator,ring01,brick,watermelon01,stapler03b,pencil01,measuringcup01,balloon01b,computerkeyboard02,blankImage,blankImage,shovel01,,,,,,,,,,,,0,28,28,139,,,,,,,,,,,,,,,,,,,,,,,,,,,,,,,,,,,329.26716020004824,330.281889099977,330.24862159998156,330.8323134999955,330.8323134999955,None,332.6542495000176,None,right,1.7750030999304727,332.6542495000176,None,334.45276499993633,None,left,0.49628910003229976,334.45276499993633,None,,,,,,,,,,,,,,,,,,,,,,,PPT47,001,2022-07-11_12h24.32.322,ABstudy,2022.1.4,59.927858824444364,
AB,Lag1_T1A_T2P,1,A,P,5,6,4,3,9,microphone,Did you see the microphone?,0.12,0.016,JPG\,hammer01,sponge01,toaster01,cherry01,feather03a,stapler06,measuringcup01,pencil01,tennisball01b,blankImage,blankImage,blankImage,blankImage,blankImage,blankImage,blankImage,blankImage,cactus,,,,,,,,,,,,0,29,29,230,,,,,,,,,,,,,,,,,,,,,,,,,,,,,,,,,,,334.9729732000269,335.9876818000339,335.95429769996554,336.5287809999427,336.5287809999427,None,337.6321864000056,None,right,1.636595500051044,337.6321864000056,None,339.2913633999415,None,left,1.4255515000550076,339.2913633999415,None,,,,,,,,,,,,,,,,,,,,,,,PPT47,001,2022-07-11_12h24.32.322,ABstudy,2022.1.4,59.927858824444364,
AB,Lag5_T1P_T2P,5,P,P,8,13,7,5,18,popcorn,Did you see the popcorn?,0.12,0.016,JPG\,toaster01,garlic01a,hairclip03,fan,comb02a,apple07,orange,popcorn,onion,blueberry01,toiletpaper01a,fork03c,stapler06,pineapple01a,scarf,eraser,blankImage,popcorn,,,,,,,,,,,,0,30,30,155,,,,,,,,,,,,,,,,,,,,,,,,,,,,,,,,,,,340.74721209995914,341.76022499997634,341.7435515000252,342.3399653999368,342.3399653999368,None,344.297139500035,None,left,0.7955085000721738,344.297139500035,None,345.11379860003944,None,left,0.2198670000070706,345.11379860003944,None,,,,,,,,,,,,,,,,,,,,,,,PPT47,001,2022-07-11_12h24.32.322,ABstudy,2022.1.4,59.927858824444364,
AB,Lag5_T1P_T2P,5,P,P,5,10,4,5,15,scorpion,Did you see the scorpion?,0.12,0.016,JPG\,fan,tomato01,candy,screwdriver04b,scorpion,cd,thermometer02b,apple07,button01,stapler01,brownsugar,lighter01,clock01a,envelope03a,clock04,blankImage,blankImage,scorpion,,,,,,,,,,,,0,31,31,97,,,,,,,,,,,,,,,,,,,,,,,,,,,,,,,,,,,345.3684010000434,346.3816148999613,346.36478409997653,346.9627241999842,346.9627241999842,None,348.74099149997346,None,left,1.0409813000587747,348.74099149997346,None,349.8017977999989,None,right,0.35535490000620484,349.8017977999989,None,,,,,,,,,,,,,,,,,,,,,,,PPT47,001,2022-07-11_12h24.32.322,ABstudy,2022.1.4,59.927858824444364,
AB,Lag5_T1A_T2P,5,A,P,8,13,7,5,18,lollipop,Did you see the lollipop?,0.12,0.016,JPG\,watermelon01,banana01,ring01,pencil01,tomato01,speaker04,cucumber,thermometer02b,key01,foosballtable,violin,spoon01,stapler04b,dice05a,pen04b,mushroom01,blankImage,jeans01,,,,,,,,,,,,0,32,32,262,,,,,,,,,,,,,,,,,,,,,,,,,,,,,,,,,,,350.23082799999975,351.2362093999982,351.219528799993,351.8350642999867,351.8350642999867,None,353.74637559999246,None,right,1.114335700054653,353.74637559999246,None,354.89230139995925,None,right,0.39362280000932515,354.89230139995925,None,,,,,,,,,,,,,,,,,,,,,,,PPT47,001,2022-07-11_12h24.32.322,ABstudy,2022.1.4,59.927858824444364,
AB,Lag1_T1P_T2P,1,P,P,7,8,6,3,11,Sand castle,Did you see the Sand castle?,0.12,0.016,JPG\,thermometer02b,candle08b,comb02a,toothbrush03b,brick,computerkeyboard02,sandcastle,stapler06,candy,birthdaycandle,clock04,blankImage,blankImage,blankImage,blankImage,blankImage,blankImage,sandcastle,,,,,,,,,,,,0,33,33,70,,,,,,,,,,,,,,,,,,,,,,,,,,,,,,,,,,,355.31034880003426,356.3248110000277,356.3080309999641,356.95153189997654,356.8729003999615,None,358.2531520000193,None,left,0.8794856999302283,358.2531520000193,None,359.16301300004125,None,right,0.3693694000830874,359.16301300004125,None,,,,,,,,,,,,,,,,,,,,,,,PPT47,001,2022-07-11_12h24.32.322,ABstudy,2022.1.4,59.927858824444364,
AB,Lag5_T1P_T2A,5,P,A,8,13,7,4,17,Drum set,Did you see the Drum set?,0.12,0.016,JPG\,pencil01,microscope,banana01,computerkeyboard02,celery,cellphone,scissors01,drumset,book01b,onion,dice05a,binoculars01b,baseball01a,iron01b,screw02,fork03c,blankImage,drumset,,,,,,,,,,,,0,34,34,212,,,,,,,,,,,,,,,,,,,,,,,,,,,,,,,,,,,359.5658207000233,360.57968399999663,360.56369340000674,361.15069789998233,361.15069789998233,None,363.0651374999434,None,left,0.8606445000041276,363.0651374999434,None,363.949204799952,None,right,0.4155306000029668,363.949204799952,None,,,,,,,,,,,,,,,,,,,,,,,PPT47,001,2022-07-11_12h24.32.322,ABstudy,2022.1.4,59.927858824444364,
AB,Lag1_T1P_T2P,1,P,P,8,9,7,5,14,lawn mower,Did you see the lawn mower?,0.12,0.016,JPG\,battery02b,sunglasses04,pear01,tennisball01b,clock01a,speaker04,binoculars01b,lawnmower,stapler05,pineapple01a,avocado01,grape01,blueberry01,violin,blankImage,blankImage,blankImage,lawnmower,,,,,,,,,,,,0,35,35,46,,,,,,,,,,,,,,,,,,,,,,,,,,,,,,,,,,,364.38844070001505,365.4004608000396,365.383733100025,365.9832099999767,365.9832099999767,None,367.70319859997835,None,left,0.9570229999953881,367.70319859997835,None,368.6872441000305,None,right,0.5101882999297231,368.6872441000305,None,,,,,,,,,,,,,,,,,,,,,,,PPT47,001,2022-07-11_12h24.32.322,ABstudy,2022.1.4,59.927858824444364,
AB,Lag5_T1A_T2P,5,A,P,7,12,6,3,15,hockey puck,Did you see the hockey puck?,0.12,0.016,JPG\,toiletpaper01a,lipstick02a,potato02b,speaker04,globe,strawberry,carrot01,plate01b,sock01a,candle08b,pen04b,stapler04b,foosballtable,brick,pear01,blankImage,blankImage,frisbee,,,,,,,,,,,,0,36,36,260,,,,,,,,,,,,,,,,,,,,,,,,,,,,,,,,,,,369.2280289999908,370.2387948000105,370.2220913999481,370.8023710999405,370.8023710999405,None,372.6615471999394,None,right,1.1763379001058638,372.6615471999394,None,373.859089900041,None,right,0.505088199977763,373.859089900041,None,,,,,,,,,,,,,,,,,,,,,,,PPT47,001,2022-07-11_12h24.32.322,ABstudy,2022.1.4,59.927858824444364,
AB,Lag1_T1P_T2P,1,P,P,7,8,6,4,12,Dog House,Did you see the Dog House?,0.12,0.016,JPG\,pineapple01a,leaf02a,grape01,toiletpaper01a,match,tennisball01b,doghouse,stapler03b,pig,measuringcup01,ring01,lemon02,blankImage,blankImage,blankImage,blankImage,blankImage,doghouse,,,,,,,,,,,,0,37,37,44,,,,,,,,,,,,,,,,,,,,,,,,,,,,,,,,,,,374.40292220003903,375.41044020000845,375.3939047999447,375.981978100026,375.981978100026,None,377.4034736000467,None,left,0.8809845999348909,377.4034736000467,None,378.3135095000034,None,right,0.523035499965772,378.3135095000034,None,,,,,,,,,,,,,,,,,,,,,,,PPT47,001,2022-07-11_12h24.32.322,ABstudy,2022.1.4,59.927858824444364,
AB,Lag1_T1P_T2A,1,P,A,6,7,5,4,11,Road,Did you see the Road?,0.12,0.016,JPG\,pizza,printer02,medal02b,spoon01,grape01,road02,belt02a,watermelon01,celery,battery02b,screw02,blankImage,blankImage,blankImage,blankImage,blankImage,blankImage,road02,,,,,,,,,,,,0,38,38,174,,,,,,,,,,,,,,,,,,,,,,,,,,,,,,,,,,,378.8664992999984,379.8817155000288,379.8483077000128,380.43459880002774,380.43459880002774,None,381.78117800003383,None,left,0.9518562000012025,381.78117800003383,None,382.7509155999869,None,right,0.33506880002096295,382.7509155999869,None,,,,,,,,,,,,,,,,,,,,,,,PPT47,001,2022-07-11_12h24.32.322,ABstudy,2022.1.4,59.927858824444364,
AB,Lag5_T1A_T2P,5,A,P,5,10,4,3,13,flower,Did you see the flower?,0.12,0.016,JPG\,cucumber,ring01,lipstick02a,microscope,violin,garlic01a,celery,lighter01,cherry01,stapler03a,belt02a,key01,binoculars01b,blankImage,blankImage,blankImage,blankImage,christmastree,,,,,,,,,,,,0,39,39,284,,,,,,,,,,,,,,,,,,,,,,,,,,,,,,,,,,,383.1201895000413,384.1356493999483,384.1024212000193,384.6855825999519,384.6855825999519,None,386.309030000004,None,right,1.1275781999574974,386.309030000004,None,387.45605259994045,None,right,0.47674450010526925,387.45605259994045,None,,,,,,,,,,,,,,,,,,,,,,,PPT47,001,2022-07-11_12h24.32.322,ABstudy,2022.1.4,59.927858824444364,
AB,Lag5_T1P_T2P,5,P,P,7,12,6,4,16,Wolf,Did you see the Wolf?,0.12,0.016,JPG\,brick,eraser,cucumber,ashtray01,thermometer02b,binoculars01b,greywolf,screwdriver04b,grape01,brownsugar,battery02b,stapler03b,dice05a,avocado01,birthdaycandle,watch02a,blankImage,greywolf,,,,,,,,,,,,0,40,40,89,,,,,,,,,,,,,,,,,,,,,,,,,,,,,,,,,,,387.9593266999582,388.97396940004546,388.94055509998,389.53615039994475,389.53615039994475,None,391.47987249994185,None,left,0.8448529000161216,391.47987249994185,None,392.3467103999574,None,right,0.5618952999357134,392.3467103999574,None,,,,,,,,,,,,,,,,,,,,,,,PPT47,001,2022-07-11_12h24.32.322,ABstudy,2022.1.4,59.927858824444364,
AB,Lag1_T1P_T2P,1,P,P,8,9,7,3,12,Eiffel tower,Did you see the Eiffel tower?,0.12,0.016,JPG\,celery,tennisball01b,calculator01,pear01,screw02,orange,button01,eiffeltower,stapler03b,apple07,iron01b,brownsugar,blankImage,blankImage,blankImage,blankImage,blankImage,eiffeltower,,,,,,,,,,,,0,41,41,40,,,,,,,,,,,,,,,,,,,,,,,,,,,,,,,,,,,392.9983733999543,394.01280469994526,393.9971699999878,394.6538738999516,394.57170640002005,None,395.8823345999699,None,left,1.0259052000474185,395.8823345999699,None,396.9316881999839,None,left,1.0413378999801353,396.9316881999839,None,,,,,,,,,,,,,,,,,,,,,,,PPT47,001,2022-07-11_12h24.32.322,ABstudy,2022.1.4,59.927858824444364,
AB,Lag1_T1P_T2P,1,P,P,5,6,4,5,11,football,Did you see the football?,0.12,0.016,JPG\,globe,belt02a,sponge01,violin,soccerball,stapler01,clock01a,microscope,balloon01b,scarf,teabag,blankImage,blankImage,blankImage,blankImage,blankImage,blankImage,soccerball,,,,,,,,,,,,0,42,42,26,,,,,,,,,,,,,,,,,,,,,,,,,,,,,,,,,,,398.0016843000194,399.0171017999528,398.9837783999974,399.5786700999597,399.5786700999597,None,400.9241814999841,None,left,1.872913199942559,400.9241814999841,None,402.8208814000245,None,left,0.27203760005068034,402.8208814000245,None,,,,,,,,,,,,,,,,,,,,,,,PPT47,001,2022-07-11_12h24.32.322,ABstudy,2022.1.4,59.927858824444364,
AB,Lag1_T1P_T2A,1,P,A,5,6,4,5,11,Electric toothbrush,Did you see the Electric toothbrush?,0.12,0.016,JPG\,carrot01,greenolive,fork03c,chain01,electrictoothbrush01c,watermelon01,tableknife02,printer02,comb02a,toaster01,orange,blankImage,blankImage,blankImage,blankImage,blankImage,blankImage,electrictoothbrush01c,,,,,,,,,,,,0,43,43,186,,,,,,,,,,,,,,,,,,,,,,,,,,,,,,,,,,,403.1251973999897,404.1394591999706,404.1237893999787,404.7176620999817,404.7176620999817,None,406.04823109996505,None,left,0.8840056000044569,406.04823109996505,None,406.97272049996536,None,right,0.49558539991267025,406.97272049996536,None,,,,,,,,,,,,,,,,,,,,,,,PPT47,001,2022-07-11_12h24.32.322,ABstudy,2022.1.4,59.927858824444364,
AB,Lag1_T1P_T2P,1,P,P,6,7,5,3,10,cupcake,Did you see the cupcake?,0.12,0.016,JPG\,printer02,leaf02a,cauliflower01,sock01a,brownsugar,cupcake,stapler01,orange,belt02a,shirt02,blankImage,blankImage,blankImage,blankImage,blankImage,blankImage,blankImage,cupcake,,,,,,,,,,,,0,44,44,38,,,,,,,,,,,,,,,,,,,,,,,,,,,,,,,,,,,407.50498369999696,408.50999519997276,408.49358989996836,409.0969689999474,409.0969689999474,None,410.3678783000214,None,left,0.780510599957779,410.3678783000214,None,411.179540000041,None,right,0.6101153999334201,411.179540000041,None,,,,,,,,,,,,,,,,,,,,,,,PPT47,001,2022-07-11_12h24.32.322,ABstudy,2022.1.4,59.927858824444364,
AB,Lag5_T1P_T2P,5,P,P,7,12,6,4,16,Recycling bin,Did you see the Recycling bin?,0.12,0.016,JPG\,broccoli01a,scissors01,toothbrush03b,foosballtable,iron01b,brick,recyclingbin,toiletpaper01a,cd,garlic01a,carrot01,stapler03a,envelope03a,battery02b,balloon01b,broom01,blankImage,recyclingbin,,,,,,,,,,,,0,45,45,157,,,,,,,,,,,,,,,,,,,,,,,,,,,,,,,,,,,411.82047799997963,412.8308565999614,412.81415829993784,413.3806851999834,413.3806851999834,None,415.35486469999887,None,left,0.9057190000312403,415.35486469999887,None,416.28448569995817,None,left,0.23155899997800589,416.28448569995817,None,,,,,,,,,,,,,,,,,,,,,,,PPT47,001,2022-07-11_12h24.32.322,ABstudy,2022.1.4,59.927858824444364,
AB,Lag1_T1P_T2P,1,P,P,8,9,7,5,14,Waterfall,Did you see the Waterfall?,0.12,0.016,JPG\,pizza,watch02a,greenolive,cucumber,match,violin,scissors01,waterfall,stapler03a,cherry01,ring01,cigarette,microscope,cellphone,blankImage,blankImage,blankImage,waterfall,,,,,,,,,,,,0,46,46,52,,,,,,,,,,,,,,,,,,,,,,,,,,,,,,,,,,,416.53678059997037,417.55223130004015,417.5188541000243,418.11017050000373,418.11017050000373,None,419.8322774999542,None,left,1.0438066000351682,419.8322774999542,None,420.90624829998706,None,right,0.6177703000139445,420.90624829998706,None,,,,,,,,,,,,,,,,,,,,,,,PPT47,001,2022-07-11_12h24.32.322,ABstudy,2022.1.4,59.927858824444364,
AB,Lag1_T1P_T2P,1,P,P,6,7,5,3,10,drum sticks,Did you see the drum sticks?,0.12,0.016,JPG\,pineapple01a,tennisball01b,computerkeyboard02,feather03a,belt02a,drumstick,stapler03b,blueberry01,medal02b,alligator,blankImage,blankImage,blankImage,blankImage,blankImage,blankImage,blankImage,drumstick,,,,,,,,,,,,0,47,47,61,,,,,,,,,,,,,,,,,,,,,,,,,,,,,,,,,,,421.562814099947,422.57424740004353,422.5575480000116,423.1415230999701,423.1415230999701,None,424.2763756000204,None,left,1.1285259999567643,424.2763756000204,None,425.4270502999425,None,right,0.546046799980104,425.4270502999425,None,,,,,,,,,,,,,,,,,,,,,,,PPT47,001,2022-07-11_12h24.32.322,ABstudy,2022.1.4,59.927858824444364,
AB,Lag1_T1P_T2P,1,P,P,8,9,7,3,12,snow globe,Did you see the Snow globe?,0.12,0.016,JPG\,eraser,measuringcup01,chain01,birthdaycandle,ring01,rice,8ball,stapler04b,stapler01,celery,microscope,sunglasses04,blankImage,blankImage,blankImage,blankImage,blankImage,snowglobe,,,,,,,,,,,,0,48,48,56,,,,,,,,,,,,,,,,,,,,,,,,,,,,,,,,,,,426.0012861000141,427.0119115000125,426.9953032999765,427.5604749999475,427.5604749999475,None,429.0089228999568,None,right,1.723762399982661,429.0089228999568,None,430.7630340999458,None,right,0.7308312000241131,430.7630340999458,None,,,,,,,,,,,,,,,,,,,,,,,PPT47,001,2022-07-11_12h24.32.322,ABstudy,2022.1.4,59.927858824444364,
AB,Lag1_T1P_T2A,1,P,A,6,7,5,5,12,foot,Did you see the foot?,0.12,0.016,JPG\,watermelon01,cigarette,weight04a,cymbal,cauliflower01,foot,cherry01,broom01,battery02b,key01,baseball01a,iron01b,blankImage,blankImage,blankImage,blankImage,blankImage,foot,,,,,,,,,,,,0,49,49,188,,,,,,,,,,,,,,,,,,,,,,,,,,,,,,,,,,,431.5249560000375,432.5343647999689,432.51868820004165,433.12109979998786,433.12109979998786,None,434.55836379993707,None,left,0.8938771000830457,434.55836379993707,None,435.4704577999655,None,right,0.5258649000898004,435.4704577999655,None,,,,,,,,,,,,,,,,,,,,,,,PPT47,001,2022-07-11_12h24.32.322,ABstudy,2022.1.4,59.927858824444364,
AB,Lag1_T1P_T2P,1,P,P,7,8,6,3,11,tree,Did you see the tree?,0.12,0.016,JPG\,pear01,clock01a,cymbal,match,ashtray01,globe,tree,stapler03b,lemon02,pen04b,dice05a,blankImage,blankImage,blankImage,blankImage,blankImage,blankImage,tree,,,,,,,,,,,,0,50,50,51,,,,,,,,,,,,,,,,,,,,,,,,,,,,,,,,,,,436.02399529994,437.0384405000368,437.0050380999455,437.61063510004897,437.61063510004897,None,438.92316230002325,None,left,0.9375210999278352,438.92316230002325,None,439.89136899996083,None,right,0.441353700007312,439.89136899996083,None,,,,,,,,,,,,,,,,,,,,,,,PPT47,001,2022-07-11_12h24.32.322,ABstudy,2022.1.4,59.927858824444364,
AB,Lag1_T1A_T2P,1,A,P,6,7,5,5,12,Treadmill,Did you see the Treadmill?,0.12,0.016,JPG\,pencil01,broccoli01a,button01,sponge01,watermelon01,lipstick02a,stapler04b,fan,lighter01,sock01a,spoon01,blueberry01,blankImage,blankImage,blankImage,blankImage,blankImage,magneticcompass,,,,,,,,,,,,0,51,51,238,,,,,,,,,,,,,,,,,,,,,,,,,,,,,,,,,,,440.3624668000266,441.3761395999463,441.35947499994654,441.9201208000304,441.9201208000304,None,443.429878899944,None,right,3.6953846000833437,443.429878899944,None,447.1486658999929,None,right,0.4077298999764025,447.1486658999929,None,,,,,,,,,,,,,,,,,,,,,,,PPT47,001,2022-07-11_12h24.32.322,ABstudy,2022.1.4,59.927858824444364,
AB,Lag5_T1P_T2P,5,P,P,8,13,7,5,18,skis,Did you see the skis?,0.12,0.016,JPG\,tennisball01b,paintbrush01,medal02b,apple07,speaker04,iron01b,avocado01,downhillski,belt02a,toiletpaper01a,watermelon01,candle01,stapler01,cymbal,ashtray01,screwdriver04b,blankImage,downhillski,,,,,,,,,,,,0,52,52,106,,,,,,,,,,,,,,,,,,,,,,,,,,,,,,,,,,,447.5849629000295,448.5999986999668,448.5666411999846,449.17074890004005,449.17074890004005,None,451.1416031999979,None,left,0.9512574999826029,451.1416031999979,None,452.1203585000476,None,right,0.47659149998798966,452.1203585000476,None,,,,,,,,,,,,,,,,,,,,,,,PPT47,001,2022-07-11_12h24.32.322,ABstudy,2022.1.4,59.927858824444364,
AB,Lag5_T1P_T2P,5,P,P,5,10,4,3,13,Rabbit,Did you see the Rabbit?,0.12,0.016,JPG\,celery,tennisball01b,calculator01,pear01,jackrabbit,orange,button01,cellphone,onion,stapler06,iron01b,brownsugar,banana01,blankImage,blankImage,blankImage,blankImage,jackrabbit,,,,,,,,,,,,0,53,53,90,,,,,,,,,,,,,,,,,,,,,,,,,,,,,,,,,,,452.62616099999286,453.63837269996293,453.6215923000127,454.223584100022,454.223584100022,None,455.749973100028,None,left,0.782613700022921,455.749973100028,None,456.5606705000391,None,left,0.23592440003994852,456.5606705000391,None,,,,,,,,,,,,,,,,,,,,,,,PPT47,001,2022-07-11_12h24.32.322,ABstudy,2022.1.4,59.927858824444364,
AB,Lag1_T1P_T2P,1,P,P,7,8,6,3,11,locker,Did you see the locker?,0.12,0.016,JPG\,toiletpaper01a,lipstick02a,potato02b,speaker04,globe,strawberry,locker,stapler04b,sock01a,candle08b,pen04b,blankImage,blankImage,blankImage,blankImage,blankImage,blankImage,locker,,,,,,,,,,,,0,54,54,19,,,,,,,,,,,,,,,,,,,,,,,,,,,,,,,,,,,456.8269354000222,457.8259681999916,457.80927900003735,458.43078980001155,458.43078980001155,None,459.7362893000245,None,left,1.9161584998946637,459.7362893000245,None,461.6798491999507,None,right,0.8202171000884846,461.6798491999507,None,,,,,,,,,,,,,,,,,,,,,,,PPT47,001,2022-07-11_12h24.32.322,ABstudy,2022.1.4,59.927858824444364,
AB,Lag5_T1A_T2P,5,A,P,5,10,4,5,15,parachute,Did you see the parachute?,0.12,0.016,JPG\,binoculars01b,speaker04,sandal,envelope03a,plate01b,comb02a,battery02b,chain01,measuringcup01,stapler03b,medal02b,lamp04a,tennisball01b,pizza,cigarette,blankImage,blankImage,knee,,,,,,,,,,,,0,55,55,264,,,,,,,,,,,,,,,,,,,,,,,,,,,,,,,,,,,462.53296189999674,463.5483348999405,463.51482569996733,464.15605889994185,464.15605889994185,None,465.9202467999421,None,right,1.0604018000885844,465.9202467999421,None,467.001815799973,None,right,0.33063700003549457,467.001815799973,None,,,,,,,,,,,,,,,,,,,,,,,PPT47,001,2022-07-11_12h24.32.322,ABstudy,2022.1.4,59.927858824444364,
AB,Lag5_T1P_T2P,5,P,P,6,11,5,3,14,wrench,Did you see the wrench?,0.12,0.016,JPG\,cherry01,cymbal,envelope03a,foosballtable,shirt02,stubbywrench01a,sewingmachine01a,candle08b,battery02b,apple07,stapler03b,screwdriver04b,strawberry,sunglasses04,blankImage,blankImage,blankImage,stubbywrench01a,,,,,,,,,,,,0,56,56,122,,,,,,,,,,,,,,,,,,,,,,,,,,,,,,,,,,,467.356281699962,468.3696071000304,468.35287669999525,468.93883600004483,468.93883600004483,None,470.6277199999895,None,left,0.7689641000470147,470.6277199999895,None,471.4253426999785,None,left,0.2592618999769911,471.4253426999785,None,,,,,,,,,,,,,,,,,,,,,,,PPT47,001,2022-07-11_12h24.32.322,ABstudy,2022.1.4,59.927858824444364,
AB,Lag1_T1A_T2P,1,A,P,6,7,5,3,10,Jellyfish,Did you see the Jellyfish?,0.12,0.016,JPG\,thermometer02b,avocado01,scissors01,tennisball01b,medal02b,banana01,stapler01,cigarette,potato02b,pineapple01a,blankImage,blankImage,blankImage,blankImage,blankImage,blankImage,blankImage,firehydrant,,,,,,,,,,,,0,57,57,255,,,,,,,,,,,,,,,,,,,,,,,,,,,,,,,,,,,471.72394659998827,472.7238031999441,472.7072355999844,473.2865607000422,473.2865607000422,None,474.4976907999953,None,right,1.3706198000581935,474.4976907999953,None,475.89403389999643,None,right,0.4940523999975994,475.89403389999643,None,,,,,,,,,,,,,,,,,,,,,,,PPT47,001,2022-07-11_12h24.32.322,ABstudy,2022.1.4,59.927858824444364,
AB,Lag1_T1P_T2P,1,P,P,7,8,6,3,11,Moose,Did you see the Moose?,0.12,0.016,JPG\,sock01a,spoon01,alligator,comb02a,printer02,medal02b,moose,stapler03a,greenolive,computerkeyboard02,cauliflower01,blankImage,blankImage,blankImage,blankImage,blankImage,blankImage,moose,,,,,,,,,,,,0,58,58,67,,,,,,,,,,,,,,,,,,,,,,,,,,,,,,,,,,,476.41571770003065,477.4292132999981,477.4136964000063,478.01007670001127,478.01007670001127,None,479.3389837000286,None,left,1.0490870999637991,479.3389837000286,None,480.4151218000334,None,right,0.5168943000026047,480.4151218000334,None,,,,,,,,,,,,,,,,,,,,,,,PPT47,001,2022-07-11_12h24.32.322,ABstudy,2022.1.4,59.927858824444364,
AB,Lag5_T1P_T2P,5,P,P,5,10,4,4,14,bell,Did you see the bell?,0.12,0.016,JPG\,teabag,envelope03a,cellphone,apple07,callbell,orange,brownsugar,book01b,hammer01,stapler03b,toaster01,calculator01,globe,battery02b,blankImage,blankImage,blankImage,callbell,,,,,,,,,,,,0,59,59,147,,,,,,,,,,,,,,,,,,,,,,,,,,,,,,,,,,,480.9527968999464,481.96656600001734,481.93312169995625,482.5287265999941,482.5287265999941,None,484.2924993999768,None,left,0.7683285999810323,484.2924993999768,None,485.0865107999416,None,left,0.2856960999779403,485.0865107999416,None,,,,,,,,,,,,,,,,,,,,,,,PPT47,001,2022-07-11_12h24.32.322,ABstudy,2022.1.4,59.927858824444364,
AB,Lag5_T1P_T2P,5,P,P,6,11,5,3,14,Poker chips,Did you see the Poker chips?,0.12,0.016,JPG\,iron01b,brick,broccoli01a,balloon01b,tomato01,pokerchips,sandal,teabag,scissors01,pineapple01a,stapler04b,measuringcup01,sock01a,book01b,blankImage,blankImage,blankImage,pokerchips,,,,,,,,,,,,0,60,60,154,,,,,,,,,,,,,,,,,,,,,,,,,,,,,,,,,,,485.4727598000318,486.48763820005115,486.470992699964,487.06336250004824,487.06336250004824,None,488.6703994999407,None,left,1.0538304999936372,488.6703994999407,None,489.7407531000208,None,left,0.2793453000485897,489.7407531000208,None,,,,,,,,,,,,,,,,,,,,,,,PPT47,001,2022-07-11_12h24.32.322,ABstudy,2022.1.4,59.927858824444364,
AB,Lag5_T1P_T2A,5,P,A,5,10,4,3,13,cork,Did you see the cork?,0.12,0.016,JPG\,clock01a,grape01,plate01b,key01,cork02,feather03a,pineapple01a,iron01b,toothbrush03b,comb02a,broom01,toaster01,pizza,blankImage,blankImage,blankImage,blankImage,cork02,,,,,,,,,,,,0,61,61,209,,,,,,,,,,,,,,,,,,,,,,,,,,,,,,,,,,,490.04329299996607,491.0587413000176,491.02539229998365,491.61104290001094,491.61104290001094,None,493.26329140004236,None,left,0.8929066999116912,493.26329140004236,None,494.17889069998637,None,right,0.289670699974522,494.17889069998637,None,,,,,,,,,,,,,,,,,,,,,,,PPT47,001,2022-07-11_12h24.32.322,ABstudy,2022.1.4,59.927858824444364,
AB,Lag5_T1P_T2P,5,P,P,6,11,5,3,14,shower head,Did you see the shower head?,0.12,0.016,JPG\,belt02a,measuringcup01,spoon01,chain01,greenolive,showerhead01,computerkeyboard02,onion,fan,strawberry,stapler01,broom01,binoculars01b,ashtray01,blankImage,blankImage,blankImage,showerhead01,,,,,,,,,,,,0,62,62,98,,,,,,,,,,,,,,,,,,,,,,,,,,,,,,,,,,,494.50088279997,495.5133490000153,495.49666309996974,496.08711920003407,496.08711920003407,None,497.8092402999755,None,left,0.6831526000751182,497.8092402999755,None,498.5306739000371,None,left,0.20981629996094853,498.5306739000371,None,,,,,,,,,,,,,,,,,,,,,,,PPT47,001,2022-07-11_12h24.32.322,ABstudy,2022.1.4,59.927858824444364,
AB,Lag1_T1P_T2P,1,P,P,5,6,4,5,11,beaver,Did you see the beaver?,0.12,0.016,JPG\,belt02a,sunglasses04,computerkeyboard02,cherry01,beaver,stapler03a,watch02a,dice05a,blueberry01,spoon01,match,blankImage,blankImage,blankImage,blankImage,blankImage,blankImage,beaver,,,,,,,,,,,,0,63,63,55,,,,,,,,,,,,,,,,,,,,,,,,,,,,,,,,,,,498.7782540000044,499.78419439995196,499.7693463000469,500.43302240001503,500.3553749000421,None,501.72270549996756,None,left,1.232953800004907,501.72270549996756,None,502.9878660000395,None,right,0.2887772999238223,502.9878660000395,None,,,,,,,,,,,,,,,,,,,,,,,PPT47,001,2022-07-11_12h24.32.322,ABstudy,2022.1.4,59.927858824444364,
AB,Lag1_T1P_T2P,1,P,P,5,6,4,4,10,skateboard,Did you see the skateboard?,0.12,0.016,JPG\,binoculars01b,cymbal,pizza,candy,skateboard,stapler05,grape01,thermometer02b,speaker04,lemon02,blankImage,blankImage,blankImage,blankImage,blankImage,blankImage,blankImage,skateboard,,,,,,,,,,,,0,64,64,25,,,,,,,,,,,,,,,,,,,,,,,,,,,,,,,,,,,503.30888339993544,504.3220973999705,504.30540529999416,504.8989657999482,504.8989657999482,None,506.11146559996996,None,left,1.012944099958986,506.11146559996996,None,507.14134279999416,None,right,0.271040300023742,507.14134279999416,None,,,,,,,,,,,,,,,,,,,,,,,PPT47,001,2022-07-11_12h24.32.322,ABstudy,2022.1.4,59.927858824444364,
AB,Lag5_T1P_T2P,5,P,P,5,10,4,5,15,Safe,Did you see the Safe?,0.12,0.016,JPG\,candle01,shirt02,brick,orange,safe,toothbrush03b,pizza,thermometer02b,book01b,stapler01,sewingmachine01a,toaster01,candy,cymbal,potato02b,blankImage,blankImage,safe,,,,,,,,,,,,0,65,65,159,,,,,,,,,,,,,,,,,,,,,,,,,,,,,,,,,,,507.44392220000736,508.45936720003374,508.4260021999944,509.0101487999782,509.0101487999782,None,510.88001449999865,None,left,0.6933125000214204,510.88001449999865,None,511.5987543000374,None,left,0.2852388999890536,511.5987543000374,None,,,,,,,,,,,,,,,,,,,,,,,PPT47,001,2022-07-11_12h24.32.322,ABstudy,2022.1.4,59.927858824444364,
AB,Lag5_T1P_T2P,5,P,P,5,10,4,4,14,duck,Did you see the duck?,0.12,0.016,JPG\,celery,pencil01,fan,foosballtable,duck01,shirt02,potato02b,fork03c,button01,stapler03a,baseball01a,printer02,cauliflower01,dandelion,blankImage,blankImage,blankImage,duck01,,,,,,,,,,,,0,66,66,130,,,,,,,,,,,,,,,,,,,,,,,,,,,,,,,,,,,511.92577780003194,512.9304713000311,512.8989328000462,513.5518360999413,513.4771477000322,None,515.1061427999521,None,left,0.7539349000435323,515.1061427999521,None,515.8838113000384,None,left,0.19341089995577931,515.8838113000384,None,,,,,,,,,,,,,,,,,,,,,,,PPT47,001,2022-07-11_12h24.32.322,ABstudy,2022.1.4,59.927858824444364,
AB,Lag1_T1P_T2P,1,P,P,6,7,5,4,11,no parking sign,Did you see the no parking sign?,0.12,0.016,JPG\,fork03c,belt02a,grape01,computerkeyboard02,lemon02,parkingsign,stapler05,toiletpaper01a,toaster01,lipstick02a,book01b,blankImage,blankImage,blankImage,blankImage,blankImage,blankImage,parkingsign,,,,,,,,,,,,0,67,67,47,,,,,,,,,,,,,,,,,,,,,,,,,,,,,,,,,,,516.15040579997,517.1515550999902,517.1350831999443,517.7135048999917,517.7135048999917,None,519.0065048999386,None,left,1.1173186000669375,519.0065048999386,None,520.1547009999631,None,right,0.3532346000429243,520.1547009999631,None,,,,,,,,,,,,,,,,,,,,,,,PPT47,001,2022-07-11_12h24.32.322,ABstudy,2022.1.4,59.927858824444364,
AB,Lag1_T1P_T2P,1,P,P,7,8,6,4,12,rooster,Did you see the rooster?,0.12,0.016,JPG\,pizza,strawberry,potato02b,speaker04,battery02b,iron01b,rooster,stapler03b,globe,banana01,medal02b,baseball01a,blankImage,blankImage,blankImage,blankImage,blankImage,rooster,,,,,,,,,,,,0,68,68,69,,,,,,,,,,,,,,,,,,,,,,,,,,,,,,,,,,,520.5417615999468,521.5559112000046,521.5391940999543,522.1523147999542,522.1523147999542,None,523.5735813999781,None,left,0.7745920000597835,523.5735813999781,None,524.3752776000183,None,left,0.228789999964647,524.3752776000183,None,,,,,,,,,,,,,,,,,,,,,,,PPT47,001,2022-07-11_12h24.32.322,ABstudy,2022.1.4,59.927858824444364,
AB,Lag5_T1A_T2A,5,A,A,7,12,6,3,15,Christmas lights,Did you see the Christmas lights?,0.12,0.016,JPG\,toiletpaper01a,mushroom01,medal02b,sandal,rice,cd,feather03a,pizza,candle08b,garlic01a,toaster01,belt02a,cigarette,violin,lemon02,blankImage,blankImage,rockbass,,,,,,,,,,,,0,69,69,299,,,,,,,,,,,,,,,,,,,,,,,,,,,,,,,,,,,524.6843799999915,525.6928337999852,525.6763631999493,526.2454046000494,526.2454046000494,None,528.0580461999634,None,right,1.161800800007768,528.0580461999634,None,529.2467317000264,None,right,0.6608852000208572,529.2467317000264,None,,,,,,,,,,,,,,,,,,,,,,,PPT47,001,2022-07-11_12h24.32.322,ABstudy,2022.1.4,59.927858824444364,
AB,Lag1_T1A_T2A,1,A,A,8,9,7,4,13,sword fish,Did you see the sword fish?,0.12,0.016,JPG\,pizza,strawberry,potato02b,speaker04,battery02b,iron01b,dice05a,cellphone,globe,banana01,medal02b,baseball01a,toaster01,blankImage,blankImage,blankImage,blankImage,ear,,,,,,,,,,,,0,70,70,295,,,,,,,,,,,,,,,,,,,,,,,,,,,,,,,,,,,529.9331017000368,530.9484917999944,530.9151166999945,531.5094251999399,531.5094251999399,None,533.1003401000053,None,right,1.1126679999288172,533.1003401000053,None,534.2349575000117,None,right,0.30522870004642755,534.2349575000117,None,,,,,,,,,,,,,,,,,,,,,,,PPT47,001,2022-07-11_12h24.32.322,ABstudy,2022.1.4,59.927858824444364,
AB,Lag5_T1P_T2P,5,P,P,7,12,6,4,16,Fireplace,Did you see the Fireplace?,0.12,0.016,JPG\,printer02,leaf02a,cauliflower01,sock01a,brownsugar,paintbrush01,fireplace,orange,belt02a,shirt02,key01,stapler01,cigarette,scissors01,envelope03a,blueberry01,blankImage,fireplace,,,,,,,,,,,,0,71,71,88,,,,,,,,,,,,,,,,,,,,,,,,,,,,,,,,,,,534.6567034999607,535.670411100029,535.6548182000406,536.2804484999506,536.2804484999506,None,538.0997777000302,None,left,0.7207692000083625,538.0997777000302,None,538.8396570000332,None,left,0.26070420001633465,538.8396570000332,None,,,,,,,,,,,,,,,,,,,,,,,PPT47,001,2022-07-11_12h24.32.322,ABstudy,2022.1.4,59.927858824444364,
AB,Lag5_T1P_T2A,5,P,A,6,11,5,5,16,World map,Did you see the World map?,0.12,0.016,JPG\,cigarette,pig,banana01,strawberry,clock01a,worldmap,spoon01,blueberry01,battery02b,pineapple01a,chain01,paintbrush01,candy,pen04b,teabag,birthdaycandle,blankImage,worldmap,,,,,,,,,,,,0,72,72,205,,,,,,,,,,,,,,,,,,,,,,,,,,,,,,,,,,,539.1261487000156,540.1408837999916,540.1076020000037,540.6991884999443,540.6991884999443,None,542.5613015999552,None,left,0.9784350000554696,542.5613015999552,None,543.5609478999395,None,right,0.3706565999891609,543.5609478999395,None,,,,,,,,,,,,,,,,,,,,,,,PPT47,001,2022-07-11_12h24.32.322,ABstudy,2022.1.4,59.927858824444364,
AB,Lag1_T1P_T2A,1,P,A,8,9,7,5,14,Ceiling fan,Did you see the Ceiling fan?,0.12,0.016,JPG\,cucumber,sponge01,alligator,pear01,ashtray01,hammer01,clock04,ceilingfan01,fork03c,binoculars01b,mushroom01,broccoli01a,leaf02a,acorn,blankImage,blankImage,blankImage,ceilingfan01,,,,,,,,,,,,0,73,73,183,,,,,,,,,,,,,,,,,,,,,,,,,,,,,,,,,,,543.9652675000252,544.9791458999971,544.9624372000108,545.5445893999422,545.5445893999422,None,547.1497590000508,None,left,0.9749129000119865,547.1497590000508,None,548.1634098000359,None,right,0.2570545000489801,548.1634098000359,None,,,,,,,,,,,,,,,,,,,,,,,PPT47,001,2022-07-11_12h24.32.322,ABstudy,2022.1.4,59.927858824444364,
AB,Lag5_T1P_T2P,5,P,P,5,10,4,3,13,rose,Did you see the rose?,0.12,0.016,JPG\,lipstick02a,cucumber,candle08b,printer02,rose,violin,paintbrush01,lighter01,belt02a,stapler03b,thermometer02b,microscope,cigarette,blankImage,blankImage,blankImage,blankImage,rose,,,,,,,,,,,,0,74,74,158,,,,,,,,,,,,,,,,,,,,,,,,,,,,,,,,,,,548.4840716000181,549.4843738999916,549.468504199991,550.0687415000284,550.0687415000284,None,551.6274926000042,None,left,0.7607285999692976,551.6274926000042,None,552.4201088999398,None,left,0.20118320011533797,552.4201088999398,None,,,,,,,,,,,,,,,,,,,,,,,PPT47,001,2022-07-11_12h24.32.322,ABstudy,2022.1.4,59.927858824444364,
AB,Lag1_T1A_T2P,1,A,P,6,7,5,3,10,curtain,Did you see the curtain?,0.12,0.016,JPG\,carrot01,greenolive,fork03c,chain01,ashtray01,watermelon01,stapler06,printer02,comb02a,toaster01,blankImage,blankImage,blankImage,blankImage,blankImage,blankImage,blankImage,birdhouse,,,,,,,,,,,,0,75,75,249,,,,,,,,,,,,,,,,,,,,,,,,,,,,,,,,,,,552.6573071000166,553.6712738999631,553.6545125000412,554.2356595000019,554.2356595000019,None,555.4437283000443,None,right,1.024441899964586,555.4437283000443,None,556.4909536000341,None,right,0.5133438999764621,556.4909536000341,None,,,,,,,,,,,,,,,,,,,,,,,PPT47,001,2022-07-11_12h24.32.322,ABstudy,2022.1.4,59.927858824444364,
AB,Lag5_T1P_T2P,5,P,P,6,11,5,5,16,motorcycle,Did you see the motorcycle?,0.12,0.016,JPG\,cucumber,ring01,lipstick02a,microscope,violin,motorcycle,celery,lighter01,cherry01,sewingmachine01a,stapler04b,key01,binoculars01b,medal02b,watermelon01,dice05a,blankImage,motorcycle,,,,,,,,,,,,0,76,76,93,,,,,,,,,,,,,,,,,,,,,,,,,,,,,,,,,,,557.0281915999949,558.0420791000361,558.0254378999816,558.6893736999482,558.6173635999439,None,560.5542172000278,None,left,0.7058990000514314,560.5542172000278,None,561.2782783999573,None,left,0.20563189999666065,561.2782783999573,None,,,,,,,,,,,,,,,,,,,,,,,PPT47,001,2022-07-11_12h24.32.322,ABstudy,2022.1.4,59.927858824444364,
AB,Lag5_T1A_T2A,5,A,A,5,10,4,5,15,truck,Did you see the truck?,0.12,0.016,JPG\,pizza,printer02,medal02b,spoon01,grape01,lighter01,belt02a,watermelon01,celery,battery02b,screw02,comb02a,cauliflower01,lipstick02a,potato02b,blankImage,blankImage,postalmailbox01,,,,,,,,,,,,0,77,77,297,,,,,,,,,,,,,,,,,,,,,,,,,,,,,,,,,,,561.5165088999784,562.5301148999715,562.5133280999726,563.114176300005,563.114176300005,None,564.9608253999613,None,right,0.8671942000510171,564.9608253999613,None,565.8503315999405,None,right,0.4265964000951499,565.8503315999405,None,,,,,,,,,,,,,,,,,,,,,,,PPT47,001,2022-07-11_12h24.32.322,ABstudy,2022.1.4,59.927858824444364,
AB,Lag1_T1P_T2A,1,P,A,8,9,7,5,14,Sausage,Did you see the Sausage?,0.12,0.016,JPG\,pencil01,broccoli01a,button01,sponge01,watermelon01,lipstick02a,comb02a,sausage,lighter01,sock01a,spoon01,blueberry01,belt02a,onion,blankImage,blankImage,blankImage,sausage,,,,,,,,,,,,0,78,78,175,,,,,,,,,,,,,,,,,,,,,,,,,,,,,,,,,,,566.3061795999529,567.3178148999577,567.3010822000215,567.8651066999882,567.8651066999882,None,569.5714366999455,None,left,0.8329922000411898,569.5714366999455,None,570.4216717999661,None,right,0.334058600012213,570.4216717999661,None,,,,,,,,,,,,,,,,,,,,,,,PPT47,001,2022-07-11_12h24.32.322,ABstudy,2022.1.4,59.927858824444364,
AB,Lag5_T1P_T2A,5,P,A,5,10,4,3,13,martini glass,Did you see the martini glass?,0.12,0.016,JPG\,brick,eraser,cucumber,ashtray01,martiniglass01b,binoculars01b,lipstick02a,screwdriver04b,grape01,brownsugar,battery02b,iron01b,dice05a,blankImage,blankImage,blankImage,blankImage,martiniglass01b,,,,,,,,,,,,0,79,79,217,,,,,,,,,,,,,,,,,,,,,,,,,,,,,,,,,,,570.7948366999626,571.8060074000387,571.7892292999895,572.3795020999387,572.3795020999387,None,573.966184400022,None,left,1.1338322999654338,573.966184400022,None,575.1402410999872,None,right,0.43995640007779,575.1402410999872,None,,,,,,,,,,,,,,,,,,,,,,,PPT47,001,2022-07-11_12h24.32.322,ABstudy,2022.1.4,59.927858824444364,
AB,Lag1_T1A_T2A,1,A,A,6,7,5,5,12,flamingo,Did you see the flamingo?,0.12,0.016,JPG\,chain01,pen04b,birthdaycandle,watermelon01,broom01,scissors01,measuringcup01,candle01,hammer01,calculator01,ashtray01,feather03a,blankImage,blankImage,blankImage,blankImage,blankImage,witchhat,,,,,,,,,,,,0,80,80,288,,,,,,,,,,,,,,,,,,,,,,,,,,,,,,,,,,,575.6899677000474,576.6941603999585,576.6774279000238,577.2674103999743,577.2674103999743,None,578.6267634000396,None,right,1.1450692999642342,578.6267634000396,None,579.7970123999985,None,right,0.5749784000217915,579.7970123999985,None,,,,,,,,,,,,,,,,,,,,,,,PPT47,001,2022-07-11_12h24.32.322,ABstudy,2022.1.4,59.927858824444364,
AB,Lag5_T1P_T2P,5,P,P,8,13,7,3,16,parachute,Did you see the parachute?,0.12,0.016,JPG\,brick,plate01b,pen04b,toaster01,screwdriver04b,candle01,envelope03a,parachute,pig,ring01,orange,clock01a,stapler03b,calculator01,mushroom01,chain01,blankImage,parachute,,,,,,,,,,,,0,81,81,114,,,,,,,,,,,,,,,,,,,,,,,,,,,,,,,,,,,580.4052392999874,581.4153825000394,581.3986718000378,582.0490359000396,582.0490359000396,None,583.9792647999711,None,right,1.0734224000480026,583.9792647999711,None,585.0698556000134,None,right,1.189614300034009,585.0698556000134,None,,,,,,,,,,,,,,,,,,,,,,,PPT47,001,2022-07-11_12h24.32.322,ABstudy,2022.1.4,59.927858824444364,
AB,Lag1_T1A_T2P,1,A,P,8,9,7,3,12,seal,Did you see the seal?,0.12,0.016,JPG\,dice05a,watch02a,pig,lighter01,button01,strawberry,paintbrush01,microscope,stapler03a,pen04b,feather03a,8ball,blankImage,blankImage,blankImage,blankImage,blankImage,hockeystick,,,,,,,,,,,,0,82,82,235,,,,,,,,,,,,,,,,,,,,,,,,,,,,,,,,,,,586.2907586999936,587.3047784999944,587.2880752000492,587.9869552999735,587.911585599999,None,589.3523917000275,None,right,1.4353978999424726,589.3523917000275,None,590.8083187999437,None,right,0.79557700001169,590.8083187999437,None,,,,,,,,,,,,,,,,,,,,,,,PPT47,001,2022-07-11_12h24.32.322,ABstudy,2022.1.4,59.927858824444364,
AB,Lag1_T1P_T2A,1,P,A,5,6,4,4,10,paper airplane,Did you see the paper airplane?,0.12,0.016,JPG\,thermometer02b,avocado01,scissors01,tennisball01b,paperairplane,banana01,strawberry,cigarette,potato02b,pineapple01a,blankImage,blankImage,blankImage,blankImage,blankImage,blankImage,blankImage,paperairplane,,,,,,,,,,,,0,83,83,191,,,,,,,,,,,,,,,,,,,,,,,,,,,,,,,,,,,591.6377411000431,592.643166600028,592.6098251999356,593.1946476999437,593.1946476999437,None,594.4910717000021,None,left,0.7532826999668032,594.4910717000021,None,595.2635128999827,None,right,0.5257300999946892,595.2635128999827,None,,,,,,,,,,,,,,,,,,,,,,,PPT47,001,2022-07-11_12h24.32.322,ABstudy,2022.1.4,59.927858824444364,
AB,Lag5_T1P_T2A,5,P,A,8,13,7,3,16,Shelves,Did you see the Shelves?,0.12,0.016,JPG\,pineapple01a,leaf02a,grape01,toiletpaper01a,match,tennisball01b,spoon01,shelves,pig,measuringcup01,ring01,lemon02,dice05a,pizza,potato02b,eraser,blankImage,shelves,,,,,,,,,,,,0,84,84,222,,,,,,,,,,,,,,,,,,,,,,,,,,,,,,,,,,,595.815559300012,596.8306858999422,596.7973174999934,597.3924542999594,597.3924542999594,None,599.352403900004,None,left,0.8274513999931514,599.352403900004,None,600.2007060999749,None,right,0.40293770004063845,600.2007060999749,None,,,,,,,,,,,,,,,,,,,,,,,PPT47,001,2022-07-11_12h24.32.322,ABstudy,2022.1.4,59.927858824444364,
AB,Lag1_T1P_T2P,1,P,P,6,7,5,3,10,fortune cookie,Did you see the fortune cookie?,0.12,0.016,JPG\,scissors01,grape01,mushroom01,toiletpaper01a,greenolive,fortunecookie,stapler03b,ashtray01,carrot01,pineapple01a,blankImage,blankImage,blankImage,blankImage,blankImage,blankImage,blankImage,fortunecookie,,,,,,,,,,,,0,85,85,42,,,,,,,,,,,,,,,,,,,,,,,,,,,,,,,,,,,600.6399991000071,601.6522882999852,601.6356297000311,602.2368456999538,602.2368456999538,None,603.4785221000202,None,left,1.2290034999605268,603.4785221000202,None,604.7388544999994,None,right,0.35308579995762557,604.7388544999994,None,,,,,,,,,,,,,,,,,,,,,,,PPT47,001,2022-07-11_12h24.32.322,ABstudy,2022.1.4,59.927858824444364,
AB,Lag5_T1A_T2P,5,A,P,6,11,5,3,14,keys,Did you see the keys?,0.12,0.016,JPG\,pencil01,microscope,banana01,computerkeyboard02,celery,cellphone,scissors01,sock01a,book01b,onion,stapler03a,binoculars01b,baseball01a,iron01b,blankImage,blankImage,blankImage,treadmill,,,,,,,,,,,,0,86,86,275,,,,,,,,,,,,,,,,,,,,,,,,,,,,,,,,,,,605.1252546999604,606.1401863000356,606.1066750000464,606.6932433999609,606.6932433999609,None,608.4372293000342,None,right,1.0395501999882981,608.4372293000342,None,609.4940416000318,None,right,0.4937132999766618,609.4940416000318,None,,,,,,,,,,,,,,,,,,,,,,,PPT47,001,2022-07-11_12h24.32.322,ABstudy,2022.1.4,59.927858824444364,
AB,Lag1_T1P_T2P,1,P,P,8,9,7,3,12,apron,Did you see the apron?,0.12,0.016,JPG\,avocado01,tambourine02,match,cauliflower01,paintbrush01,clock01a,pig,apron,stapler03a,cellphone,watch02a,pear01,blankImage,blankImage,blankImage,blankImage,blankImage,apron,,,,,,,,,,,,0,87,87,32,,,,,,,,,,,,,,,,,,,,,,,,,,,,,,,,,,,610.0156309000449,611.0287813999457,611.0132303000428,611.6151806999696,611.6151806999696,None,613.1377425999381,None,left,0.8497937000356615,613.1377425999381,None,614.0144841000438,None,right,0.5258471999550238,614.0144841000438,None,,,,,,,,,,,,,,,,,,,,,,,PPT47,001,2022-07-11_12h24.32.322,ABstudy,2022.1.4,59.927858824444364,
AB,Lag1_T1P_T2P,1,P,P,8,9,7,4,13,crab,Did you see the crab?,0.12,0.016,JPG\,candle01,fork03c,plate01b,violin,computerkeyboard02,candy,calculator01,crab01,stapler04b,sock01a,teabag,banana01,cd,blankImage,blankImage,blankImage,blankImage,crab01,,,,,,,,,,,,0,88,88,37,,,,,,,,,,,,,,,,,,,,,,,,,,,,,,,,,,,614.5672509999713,615.5826976000099,615.5493512999965,616.1287072999403,616.1287072999403,None,617.7689659999451,None,left,1.1225721000228077,617.7689659999451,None,618.9197528000223,None,right,0.3879277999512851,618.9197528000223,None,,,,,,,,,,,,,,,,,,,,,,,PPT47,001,2022-07-11_12h24.32.322,ABstudy,2022.1.4,59.927858824444364,
AB,Lag5_T1P_T2A,5,P,A,6,11,5,5,16,hat,Did you see the hat?,0.12,0.016,JPG\,apple07,toiletpaper01a,pizza,dandelion,greenolive,pilgrimhat,microscope,violin,orange,lipstick02a,balloon01b,sandal,lighter01,fan,book01b,sewingmachine01a,blankImage,pilgrimhat,,,,,,,,,,,,0,89,89,206,,,,,,,,,,,,,,,,,,,,,,,,,,,,,,,,,,,619.3397743999958,620.3546301999595,620.3210957000265,620.9113889000146,620.9113889000146,None,622.8968268999597,None,left,0.7708496000850573,622.8968268999597,None,623.6918376999674,None,right,0.3845512999687344,623.6918376999674,None,,,,,,,,,,,,,,,,,,,,,,,PPT47,001,2022-07-11_12h24.32.322,ABstudy,2022.1.4,59.927858824444364,
AB,Lag5_T1P_T2A,5,P,A,5,10,4,3,13,fan,Did you see the fan?,0.12,0.016,JPG\,scissors01,grape01,mushroom01,toiletpaper01a,fanheater,pizza,cigarette,ashtray01,carrot01,pineapple01a,foosballtable,lipstick02a,teabag,blankImage,blankImage,blankImage,blankImage,fanheater,,,,,,,,,,,,0,90,90,220,,,,,,,,,,,,,,,,,,,,,,,,,,,,,,,,,,,624.1120648999931,625.1258348999545,625.109183399938,625.6981444000266,625.6981444000266,None,627.2659869999625,None,left,1.0180874000070617,627.2659869999625,None,628.3123732999666,None,right,0.37164930009748787,628.3123732999666,None,,,,,,,,,,,,,,,,,,,,,,,PPT47,001,2022-07-11_12h24.32.322,ABstudy,2022.1.4,59.927858824444364,
AB,Lag5_T1P_T2P,5,P,P,8,13,7,4,17,Accordion,Did you see the Accordion?,0.12,0.016,JPG\,toiletpaper01a,lipstick02a,potato02b,speaker04,globe,strawberry,carrot01,accordion01,sock01a,candle08b,pen04b,calculator01,stapler01,brick,pear01,fork03c,blankImage,accordion01,,,,,,,,,,,,0,91,91,162,,,,,,,,,,,,,,,,,,,,,,,,,,,,,,,,,,,628.7185102000367,629.7303619999439,629.7135850000195,630.3157698999858,630.3157698999858,None,632.2649269000394,None,left,0.6744306000182405,632.2649269000394,None,632.9666577000171,None,left,0.26060520007740706,632.9666577000171,None,,,,,,,,,,,,,,,,,,,,,,,PPT47,001,2022-07-11_12h24.32.322,ABstudy,2022.1.4,59.927858824444364,
AB,Lag5_T1P_T2A,5,P,A,8,13,7,5,18,telescope,Did you see the telescope?,0.12,0.016,JPG\,globe,broccoli01a,binoculars01b,iron01b,avocado01,dandelion,pineapple01a,handheldtelescope,fan,pizza,celery,blueberry01,sewingmachine01a,dice05a,watermelon01,candy,blankImage,handheldtelescope,,,,,,,,,,,,0,92,92,228,,,,,,,,,,,,,,,,,,,,,,,,,,,,,,,,,,,633.2529794999864,634.2679713999387,634.2346141999587,634.8267905999674,634.8267905999674,None,636.7632074999856,None,right,1.6648653999436647,636.7632074999856,None,638.4555360999657,None,right,0.23634609999135137,638.4555360999657,None,,,,,,,,,,,,,,,,,,,,,,,PPT47,001,2022-07-11_12h24.32.322,ABstudy,2022.1.4,59.927858824444364,
AB,Lag1_T1P_T2P,1,P,P,6,7,5,4,11,bowling pin,Did you see the bowling pin?,0.12,0.016,JPG\,strawberry,leaf02a,clock04,candle01,avocado01,bowlingpin,stapler03a,brownsugar,ring01,lemon02,fork03c,blankImage,blankImage,blankImage,blankImage,blankImage,blankImage,bowlingpin,,,,,,,,,,,,0,93,93,8,,,,,,,,,,,,,,,,,,,,,,,,,,,,,,,,,,,638.7264418000123,639.7401031999616,639.7233790999744,640.3042807000456,640.3042807000456,None,641.6429977000225,None,left,0.8174469999503344,641.6429977000225,None,642.4930426999927,None,right,0.3683236000360921,642.4930426999927,None,,,,,,,,,,,,,,,,,,,,,,,PPT47,001,2022-07-11_12h24.32.322,ABstudy,2022.1.4,59.927858824444364,
AB,Lag1_T1P_T2P,1,P,P,6,7,5,3,10,spider web,Did you see the spider web?,0.12,0.016,JPG\,toaster01,chain01,sponge01,baseball01a,carrot01,spiderweb,stapler03b,iron01b,grape01,brick,blankImage,blankImage,blankImage,blankImage,blankImage,blankImage,blankImage,spiderweb,,,,,,,,,,,,0,94,94,72,,,,,,,,,,,,,,,,,,,,,,,,,,,,,,,,,,,642.8997026999714,643.9111293000169,643.8944448999828,644.4988213999895,644.4988213999895,None,645.7226558999391,None,right,1.6487654000520706,645.7226558999391,None,647.3981999999378,None,right,0.8292936999350786,647.3981999999378,None,,,,,,,,,,,,,,,,,,,,,,,PPT47,001,2022-07-11_12h24.32.322,ABstudy,2022.1.4,59.927858824444364,
AB,Lag1_T1P_T2A,1,P,A,5,6,4,5,11,Moon,Did you see the Moon?,0.12,0.016,JPG\,lamp04a,broccoli01a,alligator,garlic01a,moon,brownsugar,avocado01,ring01,leaf02a,cellphone,medal02b,blankImage,blankImage,blankImage,blankImage,blankImage,blankImage,moon,,,,,,,,,,,,0,95,95,190,,,,,,,,,,,,,,,,,,,,,,,,,,,,,,,,,,,648.2505916999653,649.2494906999636,649.2353570000269,649.8935434999876,649.8209611000493,None,651.2008022000082,None,right,0.9385051999706775,651.2008022000082,None,652.1720917000202,None,right,0.44006059993989766,652.1720917000202,None,,,,,,,,,,,,,,,,,,,,,,,PPT47,001,2022-07-11_12h24.32.322,ABstudy,2022.1.4,59.927858824444364,
AB,Lag1_T1P_T2P,1,P,P,8,9,7,4,13,ladder,Did you see the ladder?,0.12,0.016,JPG\,cigarette,fork03c,greenolive,broccoli01a,avocado01,tennisball01b,balloon01b,ladder,stapler03b,fan,clock01a,strawberry,envelope03a,blankImage,blankImage,blankImage,blankImage,ladder,,,,,,,,,,,,0,96,96,45,,,,,,,,,,,,,,,,,,,,,,,,,,,,,,,,,,,652.6466074000346,653.6545283000451,653.6388464999618,654.2500325000146,654.2500325000146,None,655.8372414000332,None,left,0.774276899988763,655.8372414000332,None,656.6409928000066,None,right,0.3629524999996647,656.6409928000066,None,,,,,,,,,,,,,,,,,,,,,,,PPT47,001,2022-07-11_12h24.32.322,ABstudy,2022.1.4,59.927858824444364,
AB,Lag1_T1P_T2A,1,P,A,6,7,5,5,12,Tombstone,Did you see the Tombstone?,0.12,0.016,JPG\,cigarette,ashtray01,envelope03a,sandal,chain01,tombstone,broccoli01a,tomato01,dandelion,candle01,lemon02,button01,blankImage,blankImage,blankImage,blankImage,blankImage,tombstone,,,,,,,,,,,,0,97,97,196,,,,,,,,,,,,,,,,,,,,,,,,,,,,,,,,,,,657.0266660000198,658.0416800000239,658.0083148999838,658.5829913000343,658.5829913000343,None,660.1438367000083,None,left,0.6998775999527425,660.1438367000083,None,660.8614724000217,None,right,0.39813530002720654,660.8614724000217,None,,,,,,,,,,,,,,,,,,,,,,,PPT47,001,2022-07-11_12h24.32.322,ABstudy,2022.1.4,59.927858824444364,
AB,Lag1_T1P_T2P,1,P,P,5,6,4,5,11,golf ball,Did you see the golf ball?,0.12,0.016,JPG\,foosballtable,cigarette,pen04b,birthdaycandle,golfball,stapler05,binoculars01b,chain01,potato02b,cauliflower01,paintbrush01,blankImage,blankImage,blankImage,blankImage,blankImage,blankImage,golfball,,,,,,,,,,,,0,98,98,13,,,,,,,,,,,,,,,,,,,,,,,,,,,,,,,,,,,661.2846833999502,662.2961012000451,662.2793197999708,662.7809354000492,662.7809354000492,None,664.238652799977,None,left,0.8610512999584898,664.238652799977,None,665.132291899994,None,right,0.319551800028421,665.132291899994,None,,,,,,,,,,,,,,,,,,,,,,,PPT47,001,2022-07-11_12h24.32.322,ABstudy,2022.1.4,59.927858824444364,
AB,Lag5_T1P_T2P,5,P,P,6,11,5,5,16,sword,Did you see the sword?,0.12,0.016,JPG\,chain01,speaker04,avocado01,watermelon01,scarf,sword01,lamp04a,fork03c,toaster01,slipper03b,stapler03a,cucumber,teabag,ashtray01,computerkeyboard02,book01b,blankImage,sword01,,,,,,,,,,,,0,99,99,143,,,,,,,,,,,,,,,,,,,,,,,,,,,,,,,,,,,665.4858680999605,666.5002329000272,666.4835033999989,667.0650427000364,667.0650427000364,None,668.9788885000162,None,left,0.7524853999493644,668.9788885000162,None,669.7532456000336,None,right,0.4101856000488624,669.7532456000336,None,,,,,,,,,,,,,,,,,,,,,,,PPT47,001,2022-07-11_12h24.32.322,ABstudy,2022.1.4,59.927858824444364,
AB,Lag5_T1A_T2P,5,A,P,6,11,5,5,16,bed,Did you see the bed?,0.12,0.016,JPG\,cellphone,tomato01,comb02a,candy,celery,cucumber,toaster01,fan,feather03a,pen04b,stapler03b,blueberry01,plate01b,cherry01,baseball01a,candle08b,blankImage,toolbox02,,,,,,,,,,,,0,100,100,274,,,,,,,,,,,,,,,,,,,,,,,,,,,,,,,,,,,670.1892522999551,671.2047675000504,671.1713583000237,671.7500288999872,671.7500288999872,None,673.704721899936,None,right,2.331362200086005,673.704721899936,None,676.059580000001,None,left,0.4804584999801591,676.059580000001,None,,,,,,,,,,,,,,,,,,,,,,,PPT47,001,2022-07-11_12h24.32.322,ABstudy,2022.1.4,59.927858824444364,
AB,Lag5_T1P_T2P,5,P,P,8,13,7,5,18,spice rack,Did you see the spice rack?,0.12,0.016,JPG\,lamp04a,broccoli01a,alligator,garlic01a,dandelion,brownsugar,avocado01,spicerack,leaf02a,cellphone,medal02b,cd,stapler05,sunglasses04,strawberry,eraser,blankImage,spicerack,,,,,,,,,,,,0,101,101,140,,,,,,,,,,,,,,,,,,,,,,,,,,,,,,,,,,,676.5640014000237,677.5777316000313,677.5610605999827,678.2752495999448,678.1844979999587,None,680.0675703999586,None,left,1.0002743999939412,680.0675703999586,None,681.097944600042,None,left,0.30583850003313273,681.097944600042,None,,,,,,,,,,,,,,,,,,,,,,,PPT47,001,2022-07-11_12h24.32.322,ABstudy,2022.1.4,59.927858824444364,
AB,Lag5_T1A_T2P,5,A,P,7,12,6,4,16,hand,Did you see the hand?,0.12,0.016,JPG\,celery,tennisball01b,calculator01,pear01,screw02,orange,button01,cellphone,onion,apple07,iron01b,stapler05,banana01,paintbrush01,dandelion,toothbrush03b,blankImage,bull,,,,,,,,,,,,0,102,102,281,,,,,,,,,,,,,,,,,,,,,,,,,,,,,,,,,,,681.4337640999584,682.4491789999884,682.4159291000105,683.0461062999675,683.0461062999675,None,684.9617911999812,None,right,0.922461700043641,684.9617911999812,None,685.9030358999735,None,right,0.4283775999210775,685.9030358999735,None,,,,,,,,,,,,,,,,,,,,,,,PPT47,001,2022-07-11_12h24.32.322,ABstudy,2022.1.4,59.927858824444364,
AB,Lag1_T1A_T2A,1,A,A,6,7,5,5,12,Safe,Did you see the Safe?,0.12,0.016,JPG\,hammer01,sponge01,toaster01,cherry01,feather03a,mushroom01,measuringcup01,pencil01,tennisball01b,brick,clock04,medal02b,blankImage,blankImage,blankImage,blankImage,blankImage,downhillski,,,,,,,,,,,,0,103,103,294,,,,,,,,,,,,,,,,,,,,,,,,,,,,,,,,,,,686.3554746999871,687.370843200013,687.3374944999814,687.9193595999386,687.9193595999386,None,689.3820776999928,None,right,1.0776569999288768,689.3820776999928,None,690.4907089000335,None,right,0.3043371000094339,690.4907089000335,None,,,,,,,,,,,,,,,,,,,,,,,PPT47,001,2022-07-11_12h24.32.322,ABstudy,2022.1.4,59.927858824444364,
AB,Lag1_T1A_T2A,1,A,A,8,9,7,3,12,punching bag,Did you see the punching bag?,0.12,0.016,JPG\,key01,apple07,ring01,leaf02a,hammer01,tableknife02,violin,sponge01,baseball01a,thermometer02b,celery,calculator01,blankImage,blankImage,blankImage,blankImage,blankImage,bathtub,,,,,,,,,,,,0,104,104,291,,,,,,,,,,,,,,,,,,,,,,,,,,,,,,,,,,,690.826820999966,691.8423120999942,691.8089117000345,692.3761985000456,692.3761985000456,None,693.8540483999532,None,right,1.0210810001008213,693.8540483999532,None,694.8952312000329,None,right,1.011990600032732,694.8952312000329,None,,,,,,,,,,,,,,,,,,,,,,,PPT47,001,2022-07-11_12h24.32.322,ABstudy,2022.1.4,59.927858824444364,
AB,Lag5_T1P_T2A,5,P,A,7,12,6,5,17,shoulder,Did you see the shoulder?,0.12,0.016,JPG\,battery02b,sunglasses04,pear01,tennisball01b,clock01a,speaker04,shoulder,spoon01,alligator,pineapple01a,avocado01,grape01,blueberry01,violin,strawberry,sock01a,blankImage,shoulder,,,,,,,,,,,,0,105,105,224,,,,,,,,,,,,,,,,,,,,,,,,,,,,,,,,,,,695.9316565999761,696.9309173000511,696.9152871000115,697.5179901999654,697.5179901999654,None,699.4459720000159,None,left,0.6299340999685228,699.4459720000159,None,700.1004615999991,None,left,0.2554852000903338,700.1004615999991,None,,,,,,,,,,,,,,,,,,,,,,,PPT47,001,2022-07-11_12h24.32.322,ABstudy,2022.1.4,59.927858824444364,
AB,Lag1_T1A_T2A,1,A,A,8,9,7,5,14,Ping pong Table,Did you see the Ping pong Table?,0.12,0.016,JPG\,pineapple01a,tennisball01b,computerkeyboard02,feather03a,belt02a,acorn,violin,blueberry01,medal02b,alligator,greenolive,screwdriver04b,potato02b,fork03c,blankImage,blankImage,blankImage,statue,,,,,,,,,,,,0,106,106,287,,,,,,,,,,,,,,,,,,,,,,,,,,,,,,,,,,,700.3988978000125,701.4012329999823,701.3846284999745,702.0259994999506,701.9441151999636,None,703.6457131999778,None,right,0.8863519999431446,703.6457131999778,None,704.5545759999659,None,right,0.2893394000129774,704.5545759999659,None,,,,,,,,,,,,,,,,,,,,,,,PPT47,001,2022-07-11_12h24.32.322,ABstudy,2022.1.4,59.927858824444364,
AB,Lag5_T1P_T2A,5,P,A,8,13,7,4,17,knife,Did you see the knife?,0.12,0.016,JPG\,lighter01,hammer01,spoon01,chain01,cymbal,sponge01,lipstick02a,knife03,pig,watermelon01,cauliflower01,lemon02,broccoli01a,tableknife02,tennisball01b,toothbrush03b,blankImage,knife03,,,,,,,,,,,,0,107,107,214,,,,,,,,,,,,,,,,,,,,,,,,,,,,,,,,,,,704.9225491000107,705.923249799991,705.9077673000284,706.4914857000113,706.4914857000113,None,708.4033284999896,None,left,0.8880860999925062,708.4033284999896,None,709.309527299949,None,right,0.5018335999920964,709.309527299949,None,,,,,,,,,,,,,,,,,,,,,,,PPT47,001,2022-07-11_12h24.32.322,ABstudy,2022.1.4,59.927858824444364,
AB,Lag1_T1P_T2P,1,P,P,5,6,4,5,11,shark,Did you see the shark?,0.12,0.016,JPG\,cucumber,sponge01,alligator,pear01,greatwhiteshark,stapler06,clock04,battery02b,fork03c,binoculars01b,mushroom01,blankImage,blankImage,blankImage,blankImage,blankImage,blankImage,greatwhiteshark,,,,,,,,,,,,0,108,108,84,,,,,,,,,,,,,,,,,,,,,,,,,,,,,,,,,,,709.8468333999626,710.8612365999725,710.8445154000074,711.4118660000386,711.4118660000386,None,712.825896400027,None,left,0.9545609999913722,712.825896400027,None,713.7972567999968,None,right,0.5821395000675693,713.7972567999968,None,,,,,,,,,,,,,,,,,,,,,,,PPT47,001,2022-07-11_12h24.32.322,ABstudy,2022.1.4,59.927858824444364,
AB,Lag1_T1P_T2P,1,P,P,7,8,6,5,13,arrow,Did you see the arrow?,0.12,0.016,JPG\,pencil01,broccoli01a,button01,sponge01,watermelon01,lipstick02a,arrow02,stapler04b,lighter01,sock01a,spoon01,blueberry01,belt02a,blankImage,blankImage,blankImage,blankImage,arrow02,,,,,,,,,,,,0,109,109,76,,,,,,,,,,,,,,,,,,,,,,,,,,,,,,,,,,,714.4000068999594,715.4155019000173,715.3822623000015,715.9818933999632,715.9818933999632,None,717.5813468999695,None,left,0.7655255000572652,717.5813468999695,None,718.3707667000126,None,right,0.49744470010045916,718.3707667000126,None,,,,,,,,,,,,,,,,,,,,,,,PPT47,001,2022-07-11_12h24.32.322,ABstudy,2022.1.4,59.927858824444364,
AB,Lag5_T1P_T2P,5,P,P,5,10,4,5,15,mouse,Did you see the mouse?,0.12,0.016,JPG\,pineapple01a,leaf02a,grape01,toiletpaper01a,mouse,tennisball01b,spoon01,chain01,pig,stapler03a,ring01,lemon02,dice05a,pizza,potato02b,blankImage,blankImage,mouse,,,,,,,,,,,,0,110,110,94,,,,,,,,,,,,,,,,,,,,,,,,,,,,,,,,,,,718.895749200019,719.9030599000398,719.8866575999418,720.4705596000422,720.4705596000422,None,722.357646599994,None,left,0.574750000028871,722.357646599994,None,722.9566393999849,None,left,0.2785674000624567,722.9566393999849,None,,,,,,,,,,,,,,,,,,,,,,,PPT47,001,2022-07-11_12h24.32.322,ABstudy,2022.1.4,59.927858824444364,
AB,Lag5_T1P_T2P,5,P,P,5,10,4,4,14,Christmas lights,Did you see the Christmas lights?,0.12,0.016,JPG\,binoculars01b,cymbal,pizza,candy,christmaslights,sponge01,grape01,thermometer02b,speaker04,stapler03a,lipstick02a,strawberry,candle01,tambourine02,blankImage,blankImage,blankImage,christmaslights,,,,,,,,,,,,0,111,111,168,,,,,,,,,,,,,,,,,,,,,,,,,,,,,,,,,,,723.264121199958,724.2743840999901,724.2577179999789,724.8511212000158,724.8511212000158,None,726.5305013000034,None,left,0.649552799994126,726.5305013000034,None,727.2132554999553,None,left,0.18225349998101592,727.2132554999553,None,,,,,,,,,,,,,,,,,,,,,,,PPT47,001,2022-07-11_12h24.32.322,ABstudy,2022.1.4,59.927858824444364,
AB,Lag5_T1P_T2P,5,P,P,7,12,6,3,15,Rollerblade,Did you see the Rollerblade?,0.12,0.016,JPG\,hammer01,sponge01,toaster01,cherry01,feather03a,mushroom01,rollerblade,pencil01,tennisball01b,brick,clock04,stapler06,teabag,garlic01a,envelope03a,blankImage,blankImage,rollerblade,,,,,,,,,,,,0,112,112,116,,,,,,,,,,,,,,,,,,,,,,,,,,,,,,,,,,,727.4784054999473,728.4786321000429,728.4619113999652,729.0393749000505,729.0393749000505,None,730.8102387000108,None,left,0.6978452999610454,730.8102387000108,None,731.5345490999753,None,left,0.23648799990769476,731.5345490999753,None,,,,,,,,,,,,,,,,,,,,,,,PPT47,001,2022-07-11_12h24.32.322,ABstudy,2022.1.4,59.927858824444364,
AB,Lag1_T1P_T2P,1,P,P,6,7,5,3,10,jelly beans,Did you see the jelly beans?,0.12,0.016,JPG\,lipstick02a,cucumber,candle08b,printer02,grape01,jellybean,stapler01,lighter01,belt02a,balloon01b,blankImage,blankImage,blankImage,blankImage,blankImage,blankImage,blankImage,jellybean,,,,,,,,,,,,0,113,113,15,,,,,,,,,,,,,,,,,,,,,,,,,,,,,,,,,,,731.8170991999796,732.8325867999811,732.7991339999717,733.3709172999952,733.3709172999952,None,734.6533789000241,None,left,0.7494684999110177,734.6533789000241,None,735.4198683999712,None,right,0.3200297000585124,735.4198683999712,None,,,,,,,,,,,,,,,,,,,,,,,PPT47,001,2022-07-11_12h24.32.322,ABstudy,2022.1.4,59.927858824444364,
AB,Lag1_T1P_T2P,1,P,P,7,8,6,5,13,tiger,Did you see the tiger?,0.12,0.016,JPG\,globe,broccoli01a,binoculars01b,iron01b,avocado01,dandelion,tiger02,stapler03b,fan,pizza,celery,blueberry01,sewingmachine01a,blankImage,blankImage,blankImage,blankImage,tiger02,,,,,,,,,,,,0,114,114,50,,,,,,,,,,,,,,,,,,,,,,,,,,,,,,,,,,,735.7810810999945,736.7870402999688,736.7703771999804,737.3702364000492,737.3702364000492,None,738.9517822000198,None,left,0.6034804999362677,738.9517822000198,None,739.5731426000129,None,left,0.20603609993122518,739.5731426000129,None,,,,,,,,,,,,,,,,,,,,,,,PPT47,001,2022-07-11_12h24.32.322,ABstudy,2022.1.4,59.927858824444364,
AB,Lag1_T1A_T2P,1,A,P,8,9,7,5,14,clock,Did you see the clock?,0.12,0.016,JPG\,speaker04,sewingmachine01a,eraser,violin,globe,belt02a,sunglasses04,cymbal,stapler01,greenolive,alligator,pear01,watch02a,screwdriver04b,blankImage,blankImage,blankImage,peacock,,,,,,,,,,,,0,115,115,240,,,,,,,,,,,,,,,,,,,,,,,,,,,,,,,,,,,739.8101426999783,740.8241225000238,740.7908590999432,741.3775021999609,741.3775021999609,None,743.1161018999992,None,right,2.1109656000044197,743.1161018999992,None,745.2457394000376,None,right,0.5815696000354365,745.2457394000376,None,,,,,,,,,,,,,,,,,,,,,,,PPT47,001,2022-07-11_12h24.32.322,ABstudy,2022.1.4,59.927858824444364,
AB,Lag5_T1A_T2P,5,A,P,7,12,6,4,16,church,Did you see the church?,0.12,0.016,JPG\,printer02,leaf02a,cauliflower01,sock01a,brownsugar,paintbrush01,pig,orange,belt02a,shirt02,key01,stapler06,cigarette,scissors01,envelope03a,blueberry01,blankImage,ant,,,,,,,,,,,,0,116,116,279,,,,,,,,,,,,,,,,,,,,,,,,,,,,,,,,,,,745.8497449000133,746.8636250999989,746.8468984999927,747.4511725000339,747.4511725000339,None,749.4004801999545,None,right,1.00229610002134,749.4004801999545,None,750.4338260999648,None,left,0.39507480000611395,750.4338260999648,None,,,,,,,,,,,,,,,,,,,,,,,PPT47,001,2022-07-11_12h24.32.322,ABstudy,2022.1.4,59.927858824444364,
AB,Lag1_T1P_T2A,1,P,A,7,8,6,3,11,Snowshoe,Did you see the Snowshoe?,0.12,0.016,JPG\,birthdaycandle,mushroom01,strawberry,match,cherry01,eraser,snowshoe,thermometer02b,sock01a,ring01,feather03a,blankImage,blankImage,blankImage,blankImage,blankImage,blankImage,snowshoe,,,,,,,,,,,,0,117,117,194,,,,,,,,,,,,,,,,,,,,,,,,,,,,,,,,,,,750.8587373000337,751.869001199957,751.8533623999683,752.3555968999863,752.3555968999863,None,753.7961480999365,None,left,1.4076646000612527,753.7961480999365,None,755.2217161000008,None,right,1.2141421000706032,755.2217161000008,None,,,,,,,,,,,,,,,,,,,,,,,PPT47,001,2022-07-11_12h24.32.322,ABstudy,2022.1.4,59.927858824444364,
AB,Lag5_T1P_T2P,5,P,P,5,10,4,5,15,Bee,Did you see the Bee?,0.12,0.016,JPG\,fork03c,dandelion,dice05a,belt02a,honeybee,watch02a,key01,globe,eraser,stapler03a,greenolive,shirt02,candle08b,cigarette,garlic01a,blankImage,blankImage,honeybee,,,,,,,,,,,,0,118,118,149,,,,,,,,,,,,,,,,,,,,,,,,,,,,,,,,,,,756.4637879000511,757.4739912999794,757.457284300006,758.0321527000051,758.0321527000051,None,759.9211999999825,None,left,1.0194041000213474,759.9211999999825,None,760.9620182999643,None,right,0.4175911999773234,760.9620182999643,None,,,,,,,,,,,,,,,,,,,,,,,PPT47,001,2022-07-11_12h24.32.322,ABstudy,2022.1.4,59.927858824444364,
AB,Lag5_T1P_T2P,5,P,P,6,11,5,5,16,table,Did you see the table?,0.12,0.016,JPG\,birthdaycandle,mushroom01,strawberry,match,cherry01,table01,hammer01,thermometer02b,sock01a,ring01,stapler06,banana01,toiletpaper01a,key01,sponge01,teabag,blankImage,table01,,,,,,,,,,,,0,119,119,144,,,,,,,,,,,,,,,,,,,,,,,,,,,,,,,,,,,761.4163404999999,762.4286787000019,762.4120274999877,762.9125298999716,762.9125298999716,None,764.9424024999607,None,left,0.6369183000642806,764.9424024999607,None,765.6015148999868,None,left,0.21761560009326786,765.6015148999868,None,,,,,,,,,,,,,,,,,,,,,,,PPT47,001,2022-07-11_12h24.32.322,ABstudy,2022.1.4,59.927858824444364,
AB,Lag5_T1A_T2A,5,A,A,5,10,4,5,15,window,Did you see the window?,0.12,0.016,JPG\,leaf02a,apple07,cd,pineapple01a,envelope03a,paintbrush01,pig,canoftennisballs,rice,feather03a,lemon02,balloon01b,avocado01,calculator01,watermelon01,blankImage,blankImage,saxophone,,,,,,,,,,,,0,120,120,301,,,,,,,,,,,,,,,,,,,,,,,,,,,,,,,,,,,765.8584625000367,766.8664600000484,766.8497982999543,767.4228990999982,767.4228990999982,None,769.2417463000165,None,right,1.3616402000188828,769.2417463000165,None,770.6207820000127,None,right,0.4066853999393061,770.6207820000127,None,,,,,,,,,,,,,,,,,,,,,,,PPT47,001,2022-07-11_12h24.32.322,ABstudy,2022.1.4,59.927858824444364,
AB,Lag1_T1P_T2P,1,P,P,5,6,4,3,9,mail box,Did you see the mail box?,0.12,0.016,JPG\,watermelon01,banana01,ring01,pencil01,mailbox02,stapler04b,cucumber,thermometer02b,key01,blankImage,blankImage,blankImage,blankImage,blankImage,blankImage,blankImage,blankImage,mailbox02,,,,,,,,,,,,0,121,121,21,,,,,,,,,,,,,,,,,,,,,,,,,,,,,,,,,,,771.0627712999703,772.0720930999378,772.0554170999676,772.6485969000496,772.6485969000496,None,773.7069892999716,None,left,1.0884974000509828,773.7069892999716,None,774.824903300032,None,right,0.3781390000367537,774.824903300032,None,,,,,,,,,,,,,,,,,,,,,,,PPT47,001,2022-07-11_12h24.32.322,ABstudy,2022.1.4,59.927858824444364,
AB,Lag1_T1P_T2P,1,P,P,5,6,4,3,9,elephant,Did you see the elephant?,0.12,0.016,JPG\,celery,brownsugar,key01,sunglasses04,arugula,stapler04b,dice05a,tennisball01b,scarf,blankImage,blankImage,blankImage,blankImage,blankImage,blankImage,blankImage,blankImage,arugula,,,,,,,,,,,,0,122,122,54,,,,,,,,,,,,,,,,,,,,,,,,,,,,,,,,,,,775.2310413999949,776.2428256999701,776.2263320999919,776.7968497000402,776.7968497000402,None,777.8877596999519,None,right,1.2356599000049755,777.8877596999519,None,779.1454985999735,None,right,0.3217443999601528,779.1454985999735,None,,,,,,,,,,,,,,,,,,,,,,,PPT47,001,2022-07-11_12h24.32.322,ABstudy,2022.1.4,59.927858824444364,
AB,Lag5_T1P_T2P,5,P,P,7,12,6,5,17,Badminton Racket,Did you see the Badminton Racket?,0.12,0.016,JPG\,paintbrush01,dice05a,watermelon01,broccoli01a,hammer01,leaf02a,badmintonracket,tennisball01b,lemon02,fan,lipstick02a,stapler04b,envelope03a,sponge01,foosballtable,orange,blankImage,badmintonracket,,,,,,,,,,,,0,123,123,163,,,,,,,,,,,,,,,,,,,,,,,,,,,,,,,,,,,779.4992643999867,780.5135579999769,780.4968494999921,781.1262097000144,781.0530734000495,None,783.0306448000483,None,left,0.6368026999989524,783.0306448000483,None,783.7000500999857,None,left,0.14328649989329278,783.7000500999857,None,,,,,,,,,,,,,,,,,,,,,,,PPT47,001,2022-07-11_12h24.32.322,ABstudy,2022.1.4,59.927858824444364,
AB,Lag5_T1P_T2P,5,P,P,5,10,4,4,14,Salt shaker,Did you see the Salt shaker?,0.12,0.016,JPG\,fork03c,belt02a,grape01,computerkeyboard02,saltshaker03a,printer02,broom01,toiletpaper01a,toaster01,stapler01,book01b,blueberry01,spoon01,apple07,blankImage,blankImage,blankImage,saltshaker03a,,,,,,,,,,,,0,124,124,96,,,,,,,,,,,,,,,,,,,,,,,,,,,,,,,,,,,783.9150876000058,784.9183006000239,784.901640899945,785.4812233999837,785.4812233999837,None,787.1451849000296,None,left,0.7458216999657452,787.1451849000296,None,787.9212383000413,None,left,0.14593909995164722,787.9212383000413,None,,,,,,,,,,,,,,,,,,,,,,,PPT47,001,2022-07-11_12h24.32.322,ABstudy,2022.1.4,59.927858824444364,
AB,Lag5_T1P_T2A,5,P,A,5,10,4,3,13,Totem Pole,Did you see the Totem Pole?,0.12,0.016,JPG\,canoftennisballs,banana01,scissors01,pig,totempole,leaf02a,pear01,sponge01,fork03c,tableknife02,balloon01b,match,toothbrush03b,blankImage,blankImage,blankImage,blankImage,totempole,,,,,,,,,,,,0,125,125,202,,,,,,,,,,,,,,,,,,,,,,,,,,,,,,,,,,,788.0946698000189,789.105588800041,789.0889281999553,789.6752216999885,789.6752216999885,None,791.2617534999736,None,left,0.8532213000580668,791.2617534999736,None,792.1421313999454,None,right,0.2699417999247089,792.1421313999454,None,,,,,,,,,,,,,,,,,,,,,,,PPT47,001,2022-07-11_12h24.32.322,ABstudy,2022.1.4,59.927858824444364,
AB,Lag5_T1P_T2P,5,P,P,7,12,6,5,17,elbow,Did you see the elbow?,0.12,0.016,JPG\,candle01,fork03c,plate01b,violin,computerkeyboard02,candy,elbow,paintbrush01,cherry01,sock01a,teabag,stapler01,cd,lighter01,book01b,tennisball01b,blankImage,elbow,,,,,,,,,,,,0,126,126,87,,,,,,,,,,,,,,,,,,,,,,,,,,,,,,,,,,,792.445992999943,793.4599060999462,793.4431951999431,794.0504264000338,794.0504264000338,None,795.9593636000063,None,left,0.5877667999593541,795.9593636000063,None,796.5659133000299,None,left,0.16721929993946105,796.5659133000299,None,,,,,,,,,,,,,,,,,,,,,,,PPT47,001,2022-07-11_12h24.32.322,ABstudy,2022.1.4,59.927858824444364,
AB,Lag1_T1P_T2P,1,P,P,6,7,5,5,12,exit sign,Did you see the exit sign?,0.12,0.016,JPG\,printer02,envelope03a,potato02b,calculator01,tableknife02,exitsign,stapler01,pig,broom01,greenolive,candle08b,battery02b,blankImage,blankImage,blankImage,blankImage,blankImage,exitsign,,,,,,,,,,,,0,127,127,41,,,,,,,,,,,,,,,,,,,,,,,,,,,,,,,,,,,796.7749491999857,797.7805652000243,797.7639005000237,798.3407329999609,798.3407329999609,None,799.9057355000405,None,right,1.3783693999284878,799.9057355000405,None,801.3009053999558,None,right,0.310082699987106,801.3009053999558,None,,,,,,,,,,,,,,,,,,,,,,,PPT47,001,2022-07-11_12h24.32.322,ABstudy,2022.1.4,59.927858824444364,
AB,Lag1_T1P_T2A,1,P,A,7,8,6,4,12,gate,Did you see the gate?,0.12,0.016,JPG\,pen04b,speaker04,lighter01,cherry01,pintofbeer,onion,entrancegate,toothbrush03b,broom01,sewingmachine01a,book01b,iron01b,blankImage,blankImage,blankImage,blankImage,blankImage,entrancegate,,,,,,,,,,,,0,128,128,187,,,,,,,,,,,,,,,,,,,,,,,,,,,,,,,,,,,801.6368824000238,802.6524880999932,802.6188534999965,803.1965849000262,803.1965849000262,None,804.6892723999918,None,left,0.9058028999716043,804.6892723999918,None,805.6222309999866,None,right,0.3170013000490144,805.6222309999866,None,,,,,,,,,,,,,,,,,,,,,,,PPT47,001,2022-07-11_12h24.32.322,ABstudy,2022.1.4,59.927858824444364,
AB,Lag1_T1A_T2P,1,A,P,5,6,4,3,9,chimney,Did you see the chimney?,0.12,0.016,JPG\,cucumber,sponge01,alligator,pear01,ashtray01,stapler06,clock04,battery02b,fork03c,blankImage,blankImage,blankImage,blankImage,blankImage,blankImage,blankImage,blankImage,trophy01,,,,,,,,,,,,0,129,129,246,,,,,,,,,,,,,,,,,,,,,,,,,,,,,,,,,,,805.9597032000311,806.9733919999562,806.9566568000009,807.5464924999978,807.5464924999978,None,808.6348577999743,None,right,1.3045323999831453,808.6348577999743,None,809.9607837999938,None,right,0.3385769999586046,809.9607837999938,None,,,,,,,,,,,,,,,,,,,,,,,PPT47,001,2022-07-11_12h24.32.322,ABstudy,2022.1.4,59.927858824444364,
AB,Lag1_T1P_T2P,1,P,P,5,6,4,5,11,owl,Did you see the owl?,0.12,0.016,JPG\,cellphone,tomato01,comb02a,candy,barnowl,stapler03a,toaster01,fan,feather03a,pen04b,lemon02,blankImage,blankImage,blankImage,blankImage,blankImage,blankImage,barnowl,,,,,,,,,,,,0,130,130,33,,,,,,,,,,,,,,,,,,,,,,,,,,,,,,,,,,,810.3313437999459,811.3445948000299,811.3279012000421,811.9286118999589,811.9286118999589,None,813.2438680999912,None,left,1.2166269000153989,813.2438680999912,None,814.4817849999527,None,right,0.35364640003535897,814.4817849999527,None,,,,,,,,,,,,,,,,,,,,,,,PPT47,001,2022-07-11_12h24.32.322,ABstudy,2022.1.4,59.927858824444364,
AB,Lag5_T1A_T2P,5,A,P,7,12,6,4,16,ear,Did you see the ear?,0.12,0.016,JPG\,candle01,shirt02,brick,orange,greenolive,toothbrush03b,pizza,thermometer02b,book01b,toiletpaper01a,sewingmachine01a,stapler01,candy,cymbal,potato02b,plate01b,blankImage,chair,,,,,,,,,,,,0,131,131,257,,,,,,,,,,,,,,,,,,,,,,,,,,,,,,,,,,,814.8691121999873,815.8824179000221,815.865721500013,816.45548470004,816.45548470004,None,818.3791093999753,None,right,0.9755018000723794,818.3791093999753,None,819.3856205999618,None,right,0.13789979997090995,819.3856205999618,None,,,,,,,,,,,,,,,,,,,,,,,PPT47,001,2022-07-11_12h24.32.322,ABstudy,2022.1.4,59.927858824444364,
AB,Lag5_T1P_T2A,5,P,A,7,12,6,5,17,corn,Did you see the corn?,0.12,0.016,JPG\,avocado01,pingpongpaddle01c,match,cauliflower01,paintbrush01,clock01a,corn02,cd,balloon01b,cellphone,watch02a,pear01,toaster01,sponge01,orange,blueberry01,blankImage,corn02,,,,,,,,,,,,0,132,132,210,,,,,,,,,,,,,,,,,,,,,,,,,,,,,,,,,,,819.6150141999824,820.6207362000132,820.6050591999665,821.1969649000093,821.1969649000093,None,823.0459310000297,None,left,0.8225968999322504,823.0459310000297,None,823.8900303000119,None,right,0.32139300007838756,823.8900303000119,None,,,,,,,,,,,,,,,,,,,,,,,PPT47,001,2022-07-11_12h24.32.322,ABstudy,2022.1.4,59.927858824444364,
AB,Lag1_T1A_T2A,1,A,A,7,8,6,5,13,Poker chips,Did you see the Poker chips?,0.12,0.016,JPG\,violin,pizza,toothbrush03b,pineapple01a,banana01,ashtray01,candy,dandelion,clock04,sock01a,microscope,speaker04,calculator01,blankImage,blankImage,blankImage,blankImage,cigar,,,,,,,,,,,,0,133,133,289,,,,,,,,,,,,,,,,,,,,,,,,,,,,,,,,,,,824.2443847999675,825.2587196000386,825.2415258999681,825.8610861999914,825.8610861999914,None,827.4595122999744,None,right,1.0553789000259712,827.4595122999744,None,828.5447934999829,None,right,0.29044729995075613,828.5447934999829,None,,,,,,,,,,,,,,,,,,,,,,,PPT47,001,2022-07-11_12h24.32.322,ABstudy,2022.1.4,59.927858824444364,
AB,Lag5_T1P_T2A,5,P,A,6,11,5,3,14,toy truck,Did you see the toy truck?,0.12,0.016,JPG\,globe,belt02a,sponge01,violin,fork03c,bluecheese,clock01a,microscope,balloon01b,scarf,teabag,pen04b,brick,brownsugar,blankImage,blankImage,blankImage,bluecheese,,,,,,,,,,,,0,134,134,204,,,,,,,,,,,,,,,,,,,,,,,,,,,,,,,,,,,828.8661118999589,829.8795455000363,829.8628878999734,830.4597549999598,830.4597549999598,None,832.0486740999622,None,right,0.882204300025478,832.0486740999622,None,832.9494777000509,None,right,0.18951219995506108,832.9494777000509,None,,,,,,,,,,,,,,,,,,,,,,,PPT47,001,2022-07-11_12h24.32.322,ABstudy,2022.1.4,59.927858824444364,
AB,Lag5_T1P_T2P,5,P,P,5,10,4,3,13,lollipop,Did you see the lollipop?,0.12,0.016,JPG\,brownsugar,candle01,match,printer02,lollipop04,balloon01b,belt02a,potato02b,computerkeyboard02,stapler03a,rice,mushroom01,pencil01,blankImage,blankImage,blankImage,blankImage,lollipop04,,,,,,,,,,,,0,135,135,112,,,,,,,,,,,,,,,,,,,,,,,,,,,,,,,,,,,833.1714211000362,834.183825999964,834.1670857999707,834.668215499958,834.668215499958,None,836.3597342999419,None,left,0.7313060000305995,836.3597342999419,None,837.1204516999424,None,right,0.3144997999770567,837.1204516999424,None,,,,,,,,,,,,,,,,,,,,,,,PPT47,001,2022-07-11_12h24.32.322,ABstudy,2022.1.4,59.927858824444364,
AB,Lag5_T1P_T2P,5,P,P,7,12,6,5,17,statue,Did you see the statue?,0.12,0.016,JPG\,pear01,clock01a,cymbal,match,ashtray01,globe,statue,button01,lemon02,pen04b,dice05a,stapler06,toothbrush03b,screwdriver04b,feather03a,key01,blankImage,statue,,,,,,,,,,,,0,136,136,100,,,,,,,,,,,,,,,,,,,,,,,,,,,,,,,,,,,837.4567622999894,838.4714980999706,838.4546678999905,839.0454855000135,839.0454855000135,None,841.0117898000171,None,left,0.7669808999635279,841.0117898000171,None,841.8082856000401,None,left,0.21038389997556806,841.8082856000401,None,,,,,,,,,,,,,,,,,,,,,,,PPT47,001,2022-07-11_12h24.32.322,ABstudy,2022.1.4,59.927858824444364,
