TrialType,CondType,Lag,T1_PA,T2_PA,T1Loc,T2Loc,PreDistractor,PostDistractor,TotalImg,cueWord,T1cue,StimLength,isi,PicFolder,Img1,Img2,Img3,Img4,Img5,Img6,Img7,Img8,Img9,Img10,Img11,Img12,Img13,Img14,Img15,Img16,Img17,T1_Identity,ImageType,T1PA,T2PA,Picture,Image,FullPathName,FilePath,Practice_Trials.thisRepN,Practice_Trials.thisTrialN,Practice_Trials.thisN,Practice_Trials.thisIndex,trials.thisRepN,trials.thisTrialN,trials.thisN,trials.thisIndex,trials_2.thisRepN,trials_2.thisTrialN,trials_2.thisN,trials_2.thisIndex,Practice_Ins.started,Practice_Ins.stopped,End_Prac_Ins.keys,End_Prac_Ins.rt,End_Prac_Ins.started,End_Prac_Ins.stopped,text_2.started,text_2.stopped,Fixation_Cross_2.started,Fixation_Cross_2.stopped,Rapid_Image_Present_2.started,Rapid_Image_Present_2.stopped,key_resp.keys,key_resp.rt,key_resp.started,key_resp.stopped,T1Response_2.started,T1Response_2.stopped,T2Response_2.started,T2Response_2.stopped,key_resp_4.keys,key_resp_4.rt,key_resp_4.started,key_resp_4.stopped,text.started,text.stopped,End_Instructions.keys,End_Instructions.rt,End_Instructions.started,End_Instructions.stopped,text_5.started,text_5.stopped,FC.started,FC.stopped,Rapid_Image_Present.started,Rapid_Image_Present.stopped,T1Response.started,T1Response.stopped,key_resp_2.keys,key_resp_2.rt,key_resp_2.started,key_resp_2.stopped,T2Response.started,T2Response.stopped,key_resp_3.keys,key_resp_3.rt,key_resp_3.started,key_resp_3.stopped,text_6.started,text_6.stopped,Fin_ins.keys,Fin_ins.rt,Fin_ins.started,Fin_ins.stopped,MemTest.started,MemTest.stopped,MemResponse.keys,MemResponse.rt,MemResponse.started,MemResponse.stopped,Display.started,Display.stopped,text_7.started,text_7.stopped,endOfExperiment.started,endOfExperiment.stopped,key_resp_5.keys,key_resp_5.rt,key_resp_5.started,key_resp_5.stopped,participant,session,date,expName,psychopyVersion,frameRate,
,,,,,,,,,,,,,,,,,,,,,,,,,,,,,,,,,,,,,,,,,,,,,,,,,,,,14.969689500052482,None,space,19.833509299904108,14.969689500052482,None,,,,,,,,,,,,,,,,,,,,,,,,,,,,,,,,,,,,,,,,,,,,,,,,,,,,,,,,,,,,,,,,,PPT41,001,2022-07-07_13h31.02.890,ABstudy,2022.1.4,59.922400514330924,
AB_Prac,Lag5_T1A_T2A,5,A,A,6,11,5,5,16,castle,Did you see the castle?,0.5,0.016,JPG\,tape02a,englishmuffin,flask,ladle02a,monitor,peach01,keychain,squeegee01b,telephone01b,whisk,walkman,syringe02,baguette01,coaster,box01a,coffeepot03a,blankImage,None,,,,,,,,0,0,0,11,,,,,,,,,,,,,,,34.87876170000527,35.89231050002854,35.875630200025626,36.48064710001927,36.48064710001927,None,right,4.827184000052512,44.615518199978396,None,44.615518199978396,None,49.47501170006581,None,right,1.8321688999421895,49.47501170006581,None,,,,,,,,,,,,,,,,,,,,,,,,,,,,,,,,,,,,,,,,,,,,,,,PPT41,001,2022-07-07_13h31.02.890,ABstudy,2022.1.4,59.922400514330924,
AB_Prac,Lag5_T1P_T2A,5,P,A,6,11,5,5,16,bread,Did you see the bread?,0.5,0.016,JPG\,cleaver01,clipboard,dustpan,hikingshoe01,notebook03a,baguette01,playingcard,pliers02b,styrofoamcup,rollingpin01a,swimgoggles,wineglass01,fryingpan02a,safetypin,syringe01,thimble,blankImage,baguette01,,,,,,,,0,1,1,8,,,,,,,,,,,,,,,51.33055700000841,52.341738900053315,52.32504130003508,52.90333700005431,52.90333700005431,None,left,2.152564899995923,60.92197979998309,None,60.92197979998309,None,63.102167100063525,None,right,2.5816102999961004,63.102167100063525,None,,,,,,,,,,,,,,,,,,,,,,,,,,,,,,,,,,,,,,,,,,,,,,,PPT41,001,2022-07-07_13h31.02.890,ABstudy,2022.1.4,59.922400514330924,
AB_Prac,Lag5_T1P_T2P,5,P,P,7,12,6,3,15,vacuum,Did you see the vacuum?,0.5,0.016,JPG\,fork07b,lightbulb01,manshoe,saw02b,shoelace,soap03a,vacuumcleaner01,floortile01,necklace,doll,cabbage,stapler03a,hanger02a,laptop01a,nailpolish03b,blankImage,blankImage,vacuumcleaner01,,,,,,,,0,2,2,2,,,,,,,,,,,,,,,65.71030030003749,66.72296569996979,66.70628360006958,67.28635639999993,67.28635639999993,None,left,1.463623100076802,74.85130149999168,None,74.85130149999168,None,76.33244280004874,None,left,0.5984221999533474,76.33244280004874,None,,,,,,,,,,,,,,,,,,,,,,,,,,,,,,,,,,,,,,,,,,,,,,,PPT41,001,2022-07-07_13h31.02.890,ABstudy,2022.1.4,59.922400514330924,
AB_Prac,Lag5_T1P_T2P,5,P,P,5,10,4,5,15,Vulture,Did you see the Vulture?,0.5,0.016,JPG\,shorts01,toast,ramekin01,bib,vulture,cracker02,date,glasses01a,hat03b,stapler01,measuringtape01,nail,pill,drum01,starfish01,blankImage,blankImage,vulture,,,,,,,,0,3,3,3,,,,,,,,,,,,,,,76.95452839997597,77.9671922000125,77.95057990006171,78.53417850006372,78.53417850006372,None,left,1.0067889000056311,86.06773140002042,None,86.06773140002042,None,87.09346660005394,None,left,0.41304749995470047,87.09346660005394,None,,,,,,,,,,,,,,,,,,,,,,,,,,,,,,,,,,,,,,,,,,,,,,,PPT41,001,2022-07-07_13h31.02.890,ABstudy,2022.1.4,59.922400514330924,
AB_Prac,Lag1_T1P_T2A,1,P,A,8,9,7,5,14,flower,Did you see the flower?,0.5,0.016,JPG\,razor01,axe01,binder03b,bowl01,kettle01,lettuce,lime,plasticflower01b,mitten04,pencilcase01,plunger02,strawbasket01,toothpick02,wallet02a,blankImage,blankImage,blankImage,plasticflower01b,,,,,,,,0,4,4,5,,,,,,,,,,,,,,,87.52918559999671,88.54463739995845,88.51130410004407,89.09858320001513,89.09858320001513,None,left,1.1344244999345392,96.1565826999722,None,96.1565826999722,None,97.32241620006971,None,right,0.9121991000138223,97.32241620006971,None,,,,,,,,,,,,,,,,,,,,,,,,,,,,,,,,,,,,,,,,,,,,,,,PPT41,001,2022-07-07_13h31.02.890,ABstudy,2022.1.4,59.922400514330924,
AB_Prac,Lag5_T1P_T2P,5,P,P,5,10,4,5,15,washing machine,Did you see the washing machine?,0.5,0.016,JPG\,waterbottle03,wheel01,flashlight02b,zucchini01,washingmachine,headphones02b,nutcracker01,paintroller01,paperclip03,stapler06,ribbon04,electricrazor,bottleofredwine01,pitabread,pot02a,blankImage,blankImage,washingmachine,,,,,,,,0,5,5,4,,,,,,,,,,,,,,,98.27199340006337,99.27230049995705,99.25661529996432,99.86794320004992,99.86794320004992,None,right,1.4374938999535516,107.40633010002784,None,107.40633010002784,None,108.86503550002817,None,left,0.7213989000301808,108.86503550002817,None,,,,,,,,,,,,,,,,,,,,,,,,,,,,,,,,,,,,,,,,,,,,,,,PPT41,001,2022-07-07_13h31.02.890,ABstudy,2022.1.4,59.922400514330924,
AB_Prac,Lag1_T1P_T2A,1,P,A,5,6,4,5,11,Webcam,Did you see the Webcam?,0.5,0.016,JPG\,pictureframe04,binder03b,straw,adjustablewrench01b,webcam,cane,hairdryer02a,icepack,kitchenscale01a,lifejacket,piggybank,blankImage,blankImage,blankImage,blankImage,blankImage,blankImage,webcam,,,,,,,,0,6,6,6,,,,,,,,,,,,,,,109.72601610003039,110.73285579995718,110.71666969999205,111.30753770004958,111.30753770004958,None,left,1.566033500013873,116.76468250004109,None,116.76468250004109,None,118.36031260003801,None,right,0.8354615999851376,118.36031260003801,None,,,,,,,,,,,,,,,,,,,,,,,,,,,,,,,,,,,,,,,,,,,,,,,PPT41,001,2022-07-07_13h31.02.890,ABstudy,2022.1.4,59.922400514330924,
AB_Prac,Lag1_T1P_T2P,1,P,P,8,9,7,5,14,Tennis racket,Did you see the Tennis racket?,0.5,0.016,JPG\,coconut,computermouse06,croissant01,deodorant02a,pillow01a,peanut01,boot02b,tennisracket,stapler03b,crayon,eggplant,marker01a,plant01,radish01,blankImage,blankImage,blankImage,tennisracket,,,,,,,,0,7,7,0,,,,,,,,,,,,,,,119.33566670003347,120.34294560004491,120.32622859999537,120.92278110003099,120.92278110003099,None,left,0.9343596000690013,127.81236109999008,None,127.81236109999008,None,128.77053360000718,None,left,0.5038504000985995,128.77053360000718,None,,,,,,,,,,,,,,,,,,,,,,,,,,,,,,,,,,,,,,,,,,,,,,,PPT41,001,2022-07-07_13h31.02.890,ABstudy,2022.1.4,59.922400514330924,
AB_Prac,Lag5_T1P_T2A,5,P,A,6,11,5,5,16,Wheat,Did you see the Wheat?,0.5,0.016,JPG\,bottleopener01,dentalfloss03b,cooler01,icecreamcone01a,paperclip01b,wheat,pencilsharpener02a,plasticbasket01a,toycar04,apricot,hairclip02,rock01a,honeydewmelon,antenna,blackberry,cardboardbox,blankImage,wheat,,,,,,,,0,8,8,7,,,,,,,,,,,,,,,129.31026729999576,130.3193876000587,130.30298929999117,130.88187549996655,130.88187549996655,None,left,1.2793669999809936,138.9395533000352,None,138.9395533000352,None,140.24621700006537,None,right,0.8287741999374703,140.24621700006537,None,,,,,,,,,,,,,,,,,,,,,,,,,,,,,,,,,,,,,,,,,,,,,,,PPT41,001,2022-07-07_13h31.02.890,ABstudy,2022.1.4,59.922400514330924,
AB_Prac,Lag5_T1A_T2P,5,A,P,6,11,5,3,14,dog,Did you see the dog?,0.5,0.016,JPG\,bucket01a,doorlock,cookiecutter,fireextinguisher01,gluestick,highlighter02b,sportbag,spraybottle01,suitcase,thread02,stapler05,walnut01c,icecubetray01a,vikingmask01b,blankImage,blankImage,blankImage,None,,,,,,,,0,9,9,9,,,,,,,,,,,,,,,141.1006039000349,142.1149873000104,142.09820030000992,142.75810450001154,142.67288680002093,None,right,2.824146799976006,149.72273499995936,None,149.72273499995936,None,152.5751825000625,None,left,0.8604682999430224,152.5751825000625,None,,,,,,,,,,,,,,,,,,,,,,,,,,,,,,,,,,,,,,,,,,,,,,,PPT41,001,2022-07-07_13h31.02.890,ABstudy,2022.1.4,59.922400514330924,
AB_Prac,Lag1_T1P_T2P,1,P,P,6,7,5,5,12,triangle,Did you see the triangle?,0.5,0.016,JPG\,ginger,mousetrap,plum01,slipper01b,dropper01,triangle,stapler04b,pants,raspberry01,rope03,scale01a,vase01,blankImage,blankImage,blankImage,blankImage,blankImage,triangle,,,,,,,,0,10,10,1,,,,,,,,,,,,,,,153.46339779999107,154.4772920999676,154.46136269997805,155.05445639998652,155.05445639998652,None,left,1.941856599994935,161.10084980004467,None,161.10084980004467,None,163.06857200001832,None,left,0.654023600043729,163.06857200001832,None,,,,,,,,,,,,,,,,,,,,,,,,,,,,,,,,,,,,,,,,,,,,,,,PPT41,001,2022-07-07_13h31.02.890,ABstudy,2022.1.4,59.922400514330924,
AB_Prac,Lag1_T1A_T2A,1,A,A,8,9,7,3,12,Moose,Did you see the Moose?,0.5,0.016,JPG\,clothespin03b,corkscrew03a,drillbit03a,fusilli03a,needlenosepliers01,perfume01a,pistachio,scrubbingbrush05b,spatula03,toothpastetube,hinge,toydinosaur,blankImage,blankImage,blankImage,blankImage,blankImage,None,,,,,,,,0,11,11,10,,,,,,,,,,,,,,,163.8129886999959,164.82035150006413,164.8037239999976,165.37836480000988,165.37836480000988,None,right,1.6298444999847561,171.47644940007012,None,171.47644940007012,None,173.12861670006532,None,right,0.47383119992446154,173.12861670006532,None,,,,,,,,,,,,,,,,,,,,,,,,,,,,,,,,,,,,,,,,,,,,,,,PPT41,001,2022-07-07_13h31.02.890,ABstudy,2022.1.4,59.922400514330924,
,,,,,,,,,,,,,,,,,,,,,,,,,,,,,,,,,,,,,,,,,,,,,,,,,,,,,,,,,,,,,,,,,,,,,,,,,,,,173.62933010002598,None,space,12.972628999967128,173.62933010002598,None,,,,,,,,,,,,,,,,,,,,,,,,,,,,,,,,,,,,,,,,,PPT41,001,2022-07-07_13h31.02.890,ABstudy,2022.1.4,59.922400514330924,
AB,Lag1_T1P_T2A,1,P,A,7,8,6,4,12,gate,Did you see the gate?,0.12,0.016,JPG\,pen04b,speaker04,lighter01,cherry01,pintofbeer,onion,entrancegate,toothbrush03b,broom01,sewingmachine01a,book01b,iron01b,blankImage,blankImage,blankImage,blankImage,blankImage,entrancegate,,,,,,,,,,,,0,0,0,187,,,,,,,,,,,,,,,,,,,,,,,,,,,,,,,,,,,187.28041080001276,188.29394450003747,188.2772672000574,188.8848713999614,188.8848713999614,None,190.36427470005583,None,left,5.870385199901648,190.36427470005583,None,196.25154840003233,None,right,0.8790914000710472,196.25154840003233,None,,,,,,,,,,,,,,,,,,,,,,,PPT41,001,2022-07-07_13h31.02.890,ABstudy,2022.1.4,59.922400514330924,
AB,Lag1_T1A_T2P,1,A,P,5,6,4,5,11,rake,Did you see the rake?,0.12,0.016,JPG\,candy,brownsugar,dice05a,cd,sock01a,stapler01,button01,potato02b,feather03a,grape01,dandelion,blankImage,blankImage,blankImage,blankImage,blankImage,blankImage,greatwhiteshark,,,,,,,,,,,,0,1,1,256,,,,,,,,,,,,,,,,,,,,,,,,,,,,,,,,,,,197.15594460000284,198.17019930004608,198.15348650002852,198.79273240000475,198.71925600001123,None,200.00667070003692,None,right,1.5796427000313997,200.00667070003692,None,201.60661150002852,None,left,0.9794082000153139,201.60661150002852,None,,,,,,,,,,,,,,,,,,,,,,,PPT41,001,2022-07-07_13h31.02.890,ABstudy,2022.1.4,59.922400514330924,
AB,Lag1_T1A_T2A,1,A,A,8,9,7,5,14,Ping pong Table,Did you see the Ping pong Table?,0.12,0.016,JPG\,pineapple01a,tennisball01b,computerkeyboard02,feather03a,belt02a,acorn,violin,blueberry01,medal02b,alligator,greenolive,screwdriver04b,potato02b,fork03c,blankImage,blankImage,blankImage,statue,,,,,,,,,,,,0,2,2,287,,,,,,,,,,,,,,,,,,,,,,,,,,,,,,,,,,,202.61631439998746,203.6258890000172,203.6090125000337,204.18811570003163,204.18811570003163,None,205.85308180004358,None,right,1.286405299906619,205.85308180004358,None,207.1627865000628,None,right,0.5432311999611557,207.1627865000628,None,,,,,,,,,,,,,,,,,,,,,,,PPT41,001,2022-07-07_13h31.02.890,ABstudy,2022.1.4,59.922400514330924,
AB,Lag1_T1P_T2P,1,P,P,6,7,5,3,10,Pool table,Did you see the Pool table?,0.12,0.016,JPG\,tomato01,pen04b,shirt02,carrot01,lamp04a,pooltable,stapler06,avocado01,sewingmachine01a,apple07,blankImage,blankImage,blankImage,blankImage,blankImage,blankImage,blankImage,pooltable,,,,,,,,,,,,0,3,3,29,,,,,,,,,,,,,,,,,,,,,,,,,,,,,,,,,,,207.7602232999634,208.7642887000693,208.74758780002594,209.343235700042,209.343235700042,None,210.51587999996264,None,left,1.5584170001093298,210.51587999996264,None,212.10072280000895,None,left,0.5414331000065431,212.10072280000895,None,,,,,,,,,,,,,,,,,,,,,,,PPT41,001,2022-07-07_13h31.02.890,ABstudy,2022.1.4,59.922400514330924,
AB,Lag1_T1A_T2A,1,A,A,6,7,5,5,12,Safe,Did you see the Safe?,0.12,0.016,JPG\,hammer01,sponge01,toaster01,cherry01,feather03a,mushroom01,measuringcup01,pencil01,tennisball01b,brick,clock04,medal02b,blankImage,blankImage,blankImage,blankImage,blankImage,downhillski,,,,,,,,,,,,0,4,4,294,,,,,,,,,,,,,,,,,,,,,,,,,,,,,,,,,,,212.6746557999868,213.68569109996315,213.66900540003553,214.24301810003817,214.24301810003817,None,215.81706719996873,None,right,1.682249000063166,215.81706719996873,None,217.52323050005361,None,right,0.7522025000071153,217.52323050005361,None,,,,,,,,,,,,,,,,,,,,,,,PPT41,001,2022-07-07_13h31.02.890,ABstudy,2022.1.4,59.922400514330924,
AB,Lag1_T1A_T2P,1,A,P,7,8,6,3,11,lion,Did you see the lion?,0.12,0.016,JPG\,sock01a,spoon01,alligator,comb02a,printer02,medal02b,lamp04a,stapler01,greenolive,computerkeyboard02,cauliflower01,blankImage,blankImage,blankImage,blankImage,blankImage,blankImage,bullet,,,,,,,,,,,,0,5,5,229,,,,,,,,,,,,,,,,,,,,,,,,,,,,,,,,,,,218.30996510002296,219.32481530006044,219.29133839998394,219.8806991999736,219.8806991999736,None,221.22038499999326,None,right,1.167029200005345,221.22038499999326,None,222.41109950002283,None,right,0.8630655000451952,222.41109950002283,None,,,,,,,,,,,,,,,,,,,,,,,PPT41,001,2022-07-07_13h31.02.890,ABstudy,2022.1.4,59.922400514330924,
AB,Lag5_T1P_T2A,5,P,A,5,10,4,5,15,Shield,Did you see the Shield?,0.12,0.016,JPG\,cigarette,fork03c,greenolive,broccoli01a,shield02,tennisball01b,balloon01b,leaf02a,pig,fan,clock01a,strawberry,envelope03a,birthdaycandle,teabag,blankImage,blankImage,shield02,,,,,,,,,,,,0,6,6,223,,,,,,,,,,,,,,,,,,,,,,,,,,,,,,,,,,,223.2977037000237,224.31288930005394,224.27949720004108,224.85087800002657,224.85087800002657,None,226.78396140004043,None,right,1.586448899935931,226.78396140004043,None,228.40253479999956,None,right,0.455770600005053,228.40253479999956,None,,,,,,,,,,,,,,,,,,,,,,,PPT41,001,2022-07-07_13h31.02.890,ABstudy,2022.1.4,59.922400514330924,
AB,Lag1_T1P_T2P,1,P,P,5,6,4,4,10,Ladybug,Did you see the Ladybug?,0.12,0.016,JPG\,key01,apple07,ring01,leaf02a,ladybug03,stapler04b,violin,sponge01,baseball01a,thermometer02b,blankImage,blankImage,blankImage,blankImage,blankImage,blankImage,blankImage,ladybug03,,,,,,,,,,,,0,7,7,65,,,,,,,,,,,,,,,,,,,,,,,,,,,,,,,,,,,228.89729620004073,229.90159030002542,229.88497090002056,230.46957670000847,230.46957670000847,None,231.6639109000098,None,left,1.034009699942544,231.6639109000098,None,232.721284499974,None,right,0.5046053000260144,232.721284499974,None,,,,,,,,,,,,,,,,,,,,,,,PPT41,001,2022-07-07_13h31.02.890,ABstudy,2022.1.4,59.922400514330924,
AB,Lag1_T1P_T2A,1,P,A,5,6,4,5,11,Toaster oven,Did you see the Toaster oven?,0.12,0.016,JPG\,fork03c,toothbrush03b,cellphone,fan,toasteroven,clock01a,ring01,eraser,sunglasses04,thermometer02b,violin,blankImage,blankImage,blankImage,blankImage,blankImage,blankImage,toasteroven,,,,,,,,,,,,0,8,8,200,,,,,,,,,,,,,,,,,,,,,,,,,,,,,,,,,,,233.2606422000099,234.2729871000629,234.25625059998129,234.8321879999712,234.8321879999712,None,236.19061549997423,None,right,1.211607100092806,236.19061549997423,None,237.4259655000642,None,right,1.0399744000751525,237.4259655000642,None,,,,,,,,,,,,,,,,,,,,,,,PPT41,001,2022-07-07_13h31.02.890,ABstudy,2022.1.4,59.922400514330924,
AB,Lag1_T1P_T2A,1,P,A,7,8,6,5,13,Well,Did you see the Well?,0.12,0.016,JPG\,leaf02a,apple07,cd,pineapple01a,envelope03a,paintbrush01,well,acorn,rice,feather03a,lemon02,balloon01b,avocado01,blankImage,blankImage,blankImage,blankImage,well,,,,,,,,,,,,0,9,9,178,,,,,,,,,,,,,,,,,,,,,,,,,,,,,,,,,,,238.49593810003716,239.51138519996312,239.47806930006482,240.0578217000002,240.0578217000002,None,241.66934949997813,None,left,1.5181396000552922,241.66934949997813,None,243.21499600005336,None,right,0.3953705000458285,243.21499600005336,None,,,,,,,,,,,,,,,,,,,,,,,PPT41,001,2022-07-07_13h31.02.890,ABstudy,2022.1.4,59.922400514330924,
AB,Lag5_T1P_T2P,5,P,P,7,12,6,4,16,Wolf,Did you see the Wolf?,0.12,0.016,JPG\,brick,eraser,cucumber,ashtray01,thermometer02b,binoculars01b,greywolf,screwdriver04b,grape01,brownsugar,battery02b,stapler03b,dice05a,avocado01,birthdaycandle,watch02a,blankImage,greywolf,,,,,,,,,,,,0,10,10,89,,,,,,,,,,,,,,,,,,,,,,,,,,,,,,,,,,,243.63432049995754,244.64980450004805,244.61638230003882,245.18519850005396,245.18519850005396,None,247.1566549000563,None,left,0.8616119999205694,247.1566549000563,None,248.03701950004324,None,left,0.3012788000050932,248.03701950004324,None,,,,,,,,,,,,,,,,,,,,,,,PPT41,001,2022-07-07_13h31.02.890,ABstudy,2022.1.4,59.922400514330924,
AB,Lag1_T1P_T2A,1,P,A,7,8,6,3,11,Snowshoe,Did you see the Snowshoe?,0.12,0.016,JPG\,birthdaycandle,mushroom01,strawberry,match,cherry01,eraser,snowshoe,thermometer02b,sock01a,ring01,feather03a,blankImage,blankImage,blankImage,blankImage,blankImage,blankImage,snowshoe,,,,,,,,,,,,0,11,11,194,,,,,,,,,,,,,,,,,,,,,,,,,,,,,,,,,,,248.37587150000036,249.38806090003345,249.3712960999692,249.87219829997048,249.87219829997048,None,251.29569379996974,None,right,3.0344665000448003,251.29569379996974,None,254.3594402000308,None,right,0.2907064000610262,254.3594402000308,None,,,,,,,,,,,,,,,,,,,,,,,PPT41,001,2022-07-07_13h31.02.890,ABstudy,2022.1.4,59.922400514330924,
AB,Lag1_T1A_T2P,1,A,P,7,8,6,3,11,Fox,Did you see the Fox?,0.12,0.016,JPG\,toaster01,chain01,sponge01,baseball01a,carrot01,belt02a,book01b,stapler03b,grape01,brick,celery,blankImage,blankImage,blankImage,blankImage,blankImage,blankImage,fingerprint,,,,,,,,,,,,0,12,12,234,,,,,,,,,,,,,,,,,,,,,,,,,,,,,,,,,,,254.71535690000746,255.72759030002635,255.71063910005614,256.2884503999958,256.2884503999958,None,257.5937526000198,None,right,1.2881124999839813,257.5937526000198,None,258.9144483000273,None,right,0.591704300022684,258.9144483000273,None,,,,,,,,,,,,,,,,,,,,,,,PPT41,001,2022-07-07_13h31.02.890,ABstudy,2022.1.4,59.922400514330924,
AB,Lag5_T1P_T2P,5,P,P,8,13,7,3,16,church,Did you see the church?,0.12,0.016,JPG\,clock01a,cellphone,toaster01,toothbrush03b,cauliflower01,microscope,comb02a,church,scarf,clock04,sponge01,iron01b,stapler06,celery,ring01,ashtray01,blankImage,church,,,,,,,,,,,,0,13,13,129,,,,,,,,,,,,,,,,,,,,,,,,,,,,,,,,,,,259.5363743000198,260.54874730005395,260.53211579995696,261.1134516999591,261.1134516999591,None,263.0661248000106,None,left,1.3440135000273585,263.0661248000106,None,264.4391780999722,None,right,0.5317558000097051,264.4391780999722,None,,,,,,,,,,,,,,,,,,,,,,,PPT41,001,2022-07-07_13h31.02.890,ABstudy,2022.1.4,59.922400514330924,
AB,Lag5_T1A_T2A,5,A,A,7,12,6,4,16,boxing glove,Did you see the boxing glove?,0.12,0.016,JPG\,cherry01,cymbal,envelope03a,foosballtable,shirt02,cellphone,sewingmachine01a,candle08b,battery02b,apple07,pencil01,screwdriver04b,strawberry,sunglasses04,feather03a,rice,blankImage,lollipop04,,,,,,,,,,,,0,14,14,296,,,,,,,,,,,,,,,,,,,,,,,,,,,,,,,,,,,265.06796240003314,266.071761899977,266.05604439997114,266.6511582999956,266.6303583000554,None,268.48195399995893,None,right,1.4641062000300735,268.48195399995893,None,269.97505919996183,None,right,0.37091059994418174,269.97505919996183,None,,,,,,,,,,,,,,,,,,,,,,,PPT41,001,2022-07-07_13h31.02.890,ABstudy,2022.1.4,59.922400514330924,
AB,Lag5_T1A_T2P,5,A,P,5,10,4,4,14,duck,Did you see the duck?,0.12,0.016,JPG\,brick,eraser,cucumber,ashtray01,thermometer02b,binoculars01b,lipstick02a,screwdriver04b,grape01,stapler04b,battery02b,iron01b,dice05a,avocado01,blankImage,blankImage,blankImage,barrel01,,,,,,,,,,,,0,15,15,280,,,,,,,,,,,,,,,,,,,,,,,,,,,,,,,,,,,270.37763710005675,271.3931162999943,271.3597318000393,271.942892299965,271.942892299965,None,273.76603389997035,None,right,1.2525277000386268,273.76603389997035,None,275.04671600006986,None,left,0.579885600018315,275.04671600006986,None,,,,,,,,,,,,,,,,,,,,,,,PPT41,001,2022-07-07_13h31.02.890,ABstudy,2022.1.4,59.922400514330924,
AB,Lag1_T1P_T2P,1,P,P,6,7,5,3,10,jelly beans,Did you see the jelly beans?,0.12,0.016,JPG\,lipstick02a,cucumber,candle08b,printer02,grape01,jellybean,stapler01,lighter01,belt02a,balloon01b,blankImage,blankImage,blankImage,blankImage,blankImage,blankImage,blankImage,jellybean,,,,,,,,,,,,0,16,16,15,,,,,,,,,,,,,,,,,,,,,,,,,,,,,,,,,,,275.65521190001164,276.6652342999587,276.6484193999786,277.22532930003945,277.22532930003945,None,278.4829677999951,None,left,1.0712501000380144,278.4829677999951,None,279.58515569998417,None,right,1.2175881000002846,279.58515569998417,None,,,,,,,,,,,,,,,,,,,,,,,PPT41,001,2022-07-07_13h31.02.890,ABstudy,2022.1.4,59.922400514330924,
AB,Lag5_T1A_T2P,5,A,P,5,10,4,5,15,parachute,Did you see the parachute?,0.12,0.016,JPG\,binoculars01b,speaker04,sandal,envelope03a,plate01b,comb02a,battery02b,chain01,measuringcup01,stapler03b,medal02b,lamp04a,tennisball01b,pizza,cigarette,blankImage,blankImage,knee,,,,,,,,,,,,0,17,17,264,,,,,,,,,,,,,,,,,,,,,,,,,,,,,,,,,,,280.82739710004535,281.8374170999741,281.8205245999852,282.4118312000064,282.4118312000064,None,284.2124531000154,None,right,1.9414546999614686,284.2124531000154,None,286.1744397999719,None,right,1.6674604000290856,286.1744397999719,None,,,,,,,,,,,,,,,,,,,,,,,PPT41,001,2022-07-07_13h31.02.890,ABstudy,2022.1.4,59.922400514330924,
AB,Lag1_T1A_T2P,1,A,P,8,9,7,4,13,Christmas tree,Did you see the Christmas tree?,0.12,0.016,JPG\,broom01,globe,cellphone,tableknife02,cauliflower01,scissors01,ring01,alligator,stapler03a,toaster01,cigarette,grape01,microscope,blankImage,blankImage,blankImage,blankImage,windmill,,,,,,,,,,,,0,18,18,247,,,,,,,,,,,,,,,,,,,,,,,,,,,,,,,,,,,287.8659747999627,288.8771859999979,288.8604726999765,289.42879300005734,289.42879300005734,None,290.9925562000135,None,right,1.4096767000155523,290.9925562000135,None,292.4310129999649,None,right,0.35528190003242344,292.4310129999649,None,,,,,,,,,,,,,,,,,,,,,,,PPT41,001,2022-07-07_13h31.02.890,ABstudy,2022.1.4,59.922400514330924,
AB,Lag1_T1A_T2P,1,A,P,6,7,5,5,12,Treadmill,Did you see the Treadmill?,0.12,0.016,JPG\,pencil01,broccoli01a,button01,sponge01,watermelon01,lipstick02a,stapler04b,fan,lighter01,sock01a,spoon01,blueberry01,blankImage,blankImage,blankImage,blankImage,blankImage,magneticcompass,,,,,,,,,,,,0,19,19,238,,,,,,,,,,,,,,,,,,,,,,,,,,,,,,,,,,,292.81999800004996,293.83244220004417,293.8156289999606,294.3750179000199,294.3750179000199,None,295.86118160001934,None,right,1.4928304000059143,295.86118160001934,None,297.38613700005226,None,right,0.3036851999349892,297.38613700005226,None,,,,,,,,,,,,,,,,,,,,,,,PPT41,001,2022-07-07_13h31.02.890,ABstudy,2022.1.4,59.922400514330924,
AB,Lag1_T1P_T2P,1,P,P,7,8,6,3,11,Daddy Long Legs,Did you see the Daddy Long Legs?,0.12,0.016,JPG\,lighter01,hammer01,spoon01,chain01,cymbal,sponge01,daddylonglegs,stapler03b,pig,watermelon01,cauliflower01,blankImage,blankImage,blankImage,blankImage,blankImage,blankImage,daddylonglegs,,,,,,,,,,,,0,20,20,86,,,,,,,,,,,,,,,,,,,,,,,,,,,,,,,,,,,297.7272813000018,298.73752670001704,298.72063310001977,299.30688090005424,299.30688090005424,None,300.6539761000313,None,left,1.164245399995707,300.6539761000313,None,301.84005810006056,None,right,0.38635749998502433,301.84005810006056,None,,,,,,,,,,,,,,,,,,,,,,,PPT41,001,2022-07-07_13h31.02.890,ABstudy,2022.1.4,59.922400514330924,
AB,Lag1_T1P_T2P,1,P,P,8,9,7,3,12,zebra,Did you see the zebra?,0.12,0.016,JPG\,apple07,toiletpaper01a,pizza,dandelion,greenolive,eraser,microscope,zebra,stapler03b,lipstick02a,balloon01b,sandal,blankImage,blankImage,blankImage,blankImage,blankImage,zebra,,,,,,,,,,,,0,21,21,28,,,,,,,,,,,,,,,,,,,,,,,,,,,,,,,,,,,302.2957152000163,303.30836420005653,303.29166210000403,303.88164629996754,303.88164629996754,None,305.3308236000594,None,left,1.2556660999543965,305.3308236000594,None,306.61178180004936,None,right,0.3182528999168426,306.61178180004936,None,,,,,,,,,,,,,,,,,,,,,,,PPT41,001,2022-07-07_13h31.02.890,ABstudy,2022.1.4,59.922400514330924,
AB,Lag1_T1P_T2P,1,P,P,8,9,7,5,14,finger print,Did you see the finger print?,0.12,0.016,JPG\,chain01,pen04b,birthdaycandle,watermelon01,broom01,scissors01,measuringcup01,fingerprint,stapler01,calculator01,ashtray01,feather03a,sewingmachine01a,thermometer02b,blankImage,blankImage,blankImage,fingerprint,,,,,,,,,,,,0,22,22,62,,,,,,,,,,,,,,,,,,,,,,,,,,,,,,,,,,,306.96338700002525,307.9635661999928,307.94658610003535,308.5082265000092,308.5082265000092,None,310.29606710001826,None,left,2.0574423000216484,310.29606710001826,None,312.3841361000668,None,left,0.3536866999929771,312.3841361000668,None,,,,,,,,,,,,,,,,,,,,,,,PPT41,001,2022-07-07_13h31.02.890,ABstudy,2022.1.4,59.922400514330924,
AB,Lag1_T1P_T2P,1,P,P,5,6,4,3,9,kangaroo,Did you see the kangaroo?,0.12,0.016,JPG\,candle01,shirt02,brick,orange,kangaroo,stapler03a,pizza,thermometer02b,book01b,blankImage,blankImage,blankImage,blankImage,blankImage,blankImage,blankImage,blankImage,kangaroo,,,,,,,,,,,,0,23,23,16,,,,,,,,,,,,,,,,,,,,,,,,,,,,,,,,,,,312.77255880006123,313.7856933999574,313.76897460001055,314.3387634999817,314.3387634999817,None,315.482858399977,None,left,0.9825787000590935,315.482858399977,None,316.4881439000601,None,right,0.31404640001710504,316.4881439000601,None,,,,,,,,,,,,,,,,,,,,,,,PPT41,001,2022-07-07_13h31.02.890,ABstudy,2022.1.4,59.922400514330924,
AB,Lag1_T1P_T2P,1,P,P,6,7,5,3,10,spider web,Did you see the spider web?,0.12,0.016,JPG\,toaster01,chain01,sponge01,baseball01a,carrot01,spiderweb,stapler03b,iron01b,grape01,brick,blankImage,blankImage,blankImage,blankImage,blankImage,blankImage,blankImage,spiderweb,,,,,,,,,,,,0,24,24,72,,,,,,,,,,,,,,,,,,,,,,,,,,,,,,,,,,,316.82665189995896,317.83935979998205,317.8227008000249,318.41439609997906,318.41439609997906,None,319.7308312000241,None,right,2.135863299947232,319.7308312000241,None,321.8933802000247,None,left,0.6931279000127688,321.8933802000247,None,,,,,,,,,,,,,,,,,,,,,,,PPT41,001,2022-07-07_13h31.02.890,ABstudy,2022.1.4,59.922400514330924,
AB,Lag1_T1P_T2P,1,P,P,8,9,7,3,12,cactus,Did you see the cactus?,0.12,0.016,JPG\,tennisball01b,paintbrush01,medal02b,apple07,speaker04,iron01b,avocado01,cactus,stapler03b,toiletpaper01a,watermelon01,candle01,blankImage,blankImage,blankImage,blankImage,blankImage,cactus,,,,,,,,,,,,0,25,25,58,,,,,,,,,,,,,,,,,,,,,,,,,,,,,,,,,,,322.61312100000214,323.6285014000023,323.595107799978,324.1887390000047,324.1887390000047,None,325.6086348000681,None,left,2.889657200081274,325.6086348000681,None,328.5170008999994,None,right,0.8044622000306845,328.5170008999994,None,,,,,,,,,,,,,,,,,,,,,,,PPT41,001,2022-07-07_13h31.02.890,ABstudy,2022.1.4,59.922400514330924,
AB,Lag5_T1P_T2P,5,P,P,6,11,5,4,15,Witch hat,Did you see the Witch hat?,0.12,0.016,JPG\,pizza,watch02a,greenolive,cucumber,match,witchhat,scissors01,broom01,globe,cherry01,stapler03a,cigarette,microscope,cellphone,speaker04,blankImage,blankImage,witchhat,,,,,,,,,,,,0,26,26,101,,,,,,,,,,,,,,,,,,,,,,,,,,,,,,,,,,,329.35552089998964,330.36870400002226,330.3519338000333,330.94794670003466,330.94794670003466,None,332.8332088000607,None,left,0.952399899950251,332.8332088000607,None,333.80524650006555,None,left,0.3013354999711737,333.80524650006555,None,,,,,,,,,,,,,,,,,,,,,,,PPT41,001,2022-07-07_13h31.02.890,ABstudy,2022.1.4,59.922400514330924,
AB,Lag1_T1P_T2A,1,P,A,7,8,6,4,12,gorilla,Did you see the gorilla?,0.12,0.016,JPG\,scissors01,ashtray01,garlic01a,medal02b,cigarette,candle08b,gorilla,envelope03a,cucumber,rice,toiletpaper01a,greenolive,blankImage,blankImage,blankImage,blankImage,blankImage,gorilla,,,,,,,,,,,,0,27,27,189,,,,,,,,,,,,,,,,,,,,,,,,,,,,,,,,,,,334.14112060004845,335.15658229996916,335.12322529999074,335.7121688000625,335.7121688000625,None,337.1517727000173,None,left,1.3703750000568107,337.1517727000173,None,338.5432036999846,None,right,0.49084679991938174,338.5432036999846,None,,,,,,,,,,,,,,,,,,,,,,,PPT41,001,2022-07-07_13h31.02.890,ABstudy,2022.1.4,59.922400514330924,
AB,Lag1_T1P_T2P,1,P,P,6,7,5,3,10,handcuffs,Did you see the handcuffs?,0.12,0.016,JPG\,sewingmachine01a,scarf,carrot01,book01b,eraser,handcuffs,stapler05,lipstick02a,printer02,garlic01a,blankImage,blankImage,blankImage,blankImage,blankImage,blankImage,blankImage,handcuffs,,,,,,,,,,,,0,28,28,2,,,,,,,,,,,,,,,,,,,,,,,,,,,,,,,,,,,339.0626925000688,340.0781454000389,340.04477759997826,340.66124980000313,340.66124980000313,None,341.88217999995686,None,left,1.1439044000580907,341.88217999995686,None,343.0483637000434,None,right,0.2657374000409618,343.0483637000434,None,,,,,,,,,,,,,,,,,,,,,,,PPT41,001,2022-07-07_13h31.02.890,ABstudy,2022.1.4,59.922400514330924,
AB,Lag5_T1P_T2P,5,P,P,7,12,6,5,17,truck,Did you see the truck?,0.12,0.016,JPG\,binoculars01b,speaker04,sandal,envelope03a,plate01b,comb02a,boxtruck,chain01,measuringcup01,key01,medal02b,stapler05,tennisball01b,pizza,cigarette,sunglasses04,blankImage,boxtruck,,,,,,,,,,,,0,29,29,166,,,,,,,,,,,,,,,,,,,,,,,,,,,,,,,,,,,343.3895204999717,344.39927719999105,344.3824861999601,344.97556439996697,344.97556439996697,None,346.88527309999336,None,left,1.036933199968189,346.88527309999336,None,347.95290699996985,None,left,0.216522500035353,347.95290699996985,None,,,,,,,,,,,,,,,,,,,,,,,PPT41,001,2022-07-07_13h31.02.890,ABstudy,2022.1.4,59.922400514330924,
AB,Lag5_T1P_T2P,5,P,P,5,10,4,5,15,rake,Did you see the rake?,0.12,0.016,JPG\,scissors01,grape01,mushroom01,toiletpaper01a,leafrake,pizza,cigarette,ashtray01,carrot01,stapler03b,foosballtable,lipstick02a,teabag,acorn,potato02b,blankImage,blankImage,leafrake,,,,,,,,,,,,0,30,30,92,,,,,,,,,,,,,,,,,,,,,,,,,,,,,,,,,,,348.187287400011,349.18743569997605,349.17058949999046,349.74225720006507,349.74225720006507,None,351.5875603000168,None,left,0.8938577999360859,351.5875603000168,None,352.50753449997865,None,right,0.3181185000576079,352.50753449997865,None,,,,,,,,,,,,,,,,,,,,,,,PPT41,001,2022-07-07_13h31.02.890,ABstudy,2022.1.4,59.922400514330924,
AB,Lag5_T1A_T2P,5,A,P,7,12,6,4,16,hand,Did you see the hand?,0.12,0.016,JPG\,celery,tennisball01b,calculator01,pear01,screw02,orange,button01,cellphone,onion,apple07,iron01b,stapler05,banana01,paintbrush01,dandelion,toothbrush03b,blankImage,bull,,,,,,,,,,,,0,31,31,281,,,,,,,,,,,,,,,,,,,,,,,,,,,,,,,,,,,352.86097070004325,353.8754949000431,353.85870810004417,354.5035608999897,354.42798140004743,None,356.376218099962,None,right,1.057930100010708,356.376218099962,None,357.46317170001566,None,left,0.434263400034979,357.46317170001566,None,,,,,,,,,,,,,,,,,,,,,,,PPT41,001,2022-07-07_13h31.02.890,ABstudy,2022.1.4,59.922400514330924,
AB,Lag5_T1P_T2A,5,P,A,8,13,7,5,18,Nunchuks,Did you see the Nunchuks?,0.12,0.016,JPG\,celery,tennisball01b,calculator01,pear01,screw02,orange,button01,nunchuk,onion,apple07,iron01b,brownsugar,banana01,paintbrush01,dandelion,toothbrush03b,blankImage,nunchuk,,,,,,,,,,,,0,32,32,218,,,,,,,,,,,,,,,,,,,,,,,,,,,,,,,,,,,357.9377041000407,358.94725620001554,358.9302922000643,359.5036233999999,359.5036233999999,None,361.4475611000089,None,left,0.970223700045608,361.4475611000089,None,362.4504495000001,None,right,0.2949914000928402,362.4504495000001,None,,,,,,,,,,,,,,,,,,,,,,,PPT41,001,2022-07-07_13h31.02.890,ABstudy,2022.1.4,59.922400514330924,
AB,Lag5_T1P_T2P,5,P,P,5,10,4,5,15,baseball bat,Did you see the baseball bat?,0.12,0.016,JPG\,pizza,printer02,medal02b,spoon01,baseballbat,lighter01,belt02a,watermelon01,celery,stapler04b,screw02,comb02a,cauliflower01,lipstick02a,potato02b,blankImage,blankImage,baseballbat,,,,,,,,,,,,0,33,33,123,,,,,,,,,,,,,,,,,,,,,,,,,,,,,,,,,,,362.7696930000093,363.7850242999848,363.75175399996806,364.3511700000381,364.3511700000381,None,366.21846140001435,None,left,1.6717110000317916,366.21846140001435,None,367.9227910999907,None,right,0.9989345000358298,367.9227910999907,None,,,,,,,,,,,,,,,,,,,,,,,PPT41,001,2022-07-07_13h31.02.890,ABstudy,2022.1.4,59.922400514330924,
AB,Lag5_T1P_T2P,5,P,P,6,11,5,5,16,keys,Did you see the keys?,0.12,0.016,JPG\,toiletpaper01a,mushroom01,medal02b,sandal,rice,foldingchair,feather03a,pizza,candle08b,garlic01a,stapler01,belt02a,cigarette,violin,lemon02,fork03c,blankImage,foldingchair,,,,,,,,,,,,0,34,34,125,,,,,,,,,,,,,,,,,,,,,,,,,,,,,,,,,,,368.9952127999859,370.0085530000506,369.9930493000429,370.6240549000213,370.6240549000213,None,372.4635685000103,None,right,3.5540605999995023,372.4635685000103,None,376.0472153000301,None,right,0.2662315999623388,376.0472153000301,None,,,,,,,,,,,,,,,,,,,,,,,PPT41,001,2022-07-07_13h31.02.890,ABstudy,2022.1.4,59.922400514330924,
AB,Lag1_T1P_T2P,1,P,P,5,6,4,5,11,Guitar case,Did you see the Guitar case?,0.12,0.016,JPG\,broccoli01a,scissors01,toothbrush03b,foosballtable,guitarcase,stapler05,hammer01,toiletpaper01a,cd,garlic01a,carrot01,blankImage,blankImage,blankImage,blankImage,blankImage,blankImage,guitarcase,,,,,,,,,,,,0,35,35,14,,,,,,,,,,,,,,,,,,,,,,,,,,,,,,,,,,,376.33626100001857,377.3485928999726,377.3318455000408,377.9141082999995,377.9141082999995,None,379.2420935999835,None,left,0.8953099000500515,379.2420935999835,None,380.1680954999756,None,right,0.577186599955894,380.1680954999756,None,,,,,,,,,,,,,,,,,,,,,,,PPT41,001,2022-07-07_13h31.02.890,ABstudy,2022.1.4,59.922400514330924,
AB,Lag1_T1P_T2P,1,P,P,6,7,5,4,11,no parking sign,Did you see the no parking sign?,0.12,0.016,JPG\,fork03c,belt02a,grape01,computerkeyboard02,lemon02,parkingsign,stapler05,toiletpaper01a,toaster01,lipstick02a,book01b,blankImage,blankImage,blankImage,blankImage,blankImage,blankImage,parkingsign,,,,,,,,,,,,0,36,36,47,,,,,,,,,,,,,,,,,,,,,,,,,,,,,,,,,,,380.77365680004004,381.78638740000315,381.7696572999703,382.361891400069,382.361891400069,None,383.72556369996164,None,left,0.891933000064455,383.72556369996164,None,384.63953929999843,None,right,0.2902435000287369,384.63953929999843,None,,,,,,,,,,,,,,,,,,,,,,,PPT41,001,2022-07-07_13h31.02.890,ABstudy,2022.1.4,59.922400514330924,
AB,Lag5_T1A_T2P,5,A,P,5,10,4,3,13,License Plate,Did you see the License Plate?,0.12,0.016,JPG\,tomato01,pen04b,shirt02,carrot01,lamp04a,key01,pizza,avocado01,sewingmachine01a,stapler06,iron01b,book01b,chain01,blankImage,blankImage,blankImage,blankImage,porcupine,,,,,,,,,,,,0,37,37,270,,,,,,,,,,,,,,,,,,,,,,,,,,,,,,,,,,,384.96317380003165,385.9740659999661,385.9572976999916,386.5504235000117,386.5504235000117,None,388.138013400021,None,right,1.0554054999956861,388.138013400021,None,389.2110114999814,None,left,0.3996081999503076,389.2110114999814,None,,,,,,,,,,,,,,,,,,,,,,,PPT41,001,2022-07-07_13h31.02.890,ABstudy,2022.1.4,59.922400514330924,
AB,Lag5_T1P_T2P,5,P,P,7,12,6,3,15,mail box,Did you see the mail box?,0.12,0.016,JPG\,key01,apple07,ring01,leaf02a,hammer01,tableknife02,postalmailbox01,sponge01,baseball01a,thermometer02b,celery,stapler06,grape01,cucumber,tennisball01b,blankImage,blankImage,postalmailbox01,,,,,,,,,,,,0,38,38,113,,,,,,,,,,,,,,,,,,,,,,,,,,,,,,,,,,,389.6340828000102,390.6454688999802,390.6288444000529,391.2092405000003,391.2092405000003,None,393.0316410000669,None,right,1.066366400104016,393.0316410000669,None,394.1159898999613,None,left,0.31789500010199845,394.1159898999613,None,,,,,,,,,,,,,,,,,,,,,,,PPT41,001,2022-07-07_13h31.02.890,ABstudy,2022.1.4,59.922400514330924,
AB,Lag1_T1P_T2P,1,P,P,8,9,7,5,14,bullet,Did you see the bullet?,0.12,0.016,JPG\,measuringcup01,dice05a,greenolive,lipstick02a,feather03a,balloon01b,lighter01,bullet,stapler04b,plate01b,microscope,brick,thermometer02b,screw02,blankImage,blankImage,blankImage,bullet,,,,,,,,,,,,0,39,39,57,,,,,,,,,,,,,,,,,,,,,,,,,,,,,,,,,,,394.46958270005416,395.48354359995574,395.46676490001846,396.09157060005236,396.09157060005236,None,397.85828349995427,None,left,1.4072006000205874,397.85828349995427,None,399.2874697999796,None,right,0.42607330007012933,399.2874697999796,None,,,,,,,,,,,,,,,,,,,,,,,PPT41,001,2022-07-07_13h31.02.890,ABstudy,2022.1.4,59.922400514330924,
AB,Lag1_T1P_T2P,1,P,P,6,7,5,3,10,drum sticks,Did you see the drum sticks?,0.12,0.016,JPG\,pineapple01a,tennisball01b,computerkeyboard02,feather03a,belt02a,drumstick,stapler03b,blueberry01,medal02b,alligator,blankImage,blankImage,blankImage,blankImage,blankImage,blankImage,blankImage,drumstick,,,,,,,,,,,,0,40,40,61,,,,,,,,,,,,,,,,,,,,,,,,,,,,,,,,,,,399.7445880000014,400.75543210003525,400.7386448000325,401.3239790999796,401.3239790999796,None,402.4582801000215,None,left,1.007454099948518,402.4582801000215,None,403.491314599989,None,right,0.31016919994726777,403.491314599989,None,,,,,,,,,,,,,,,,,,,,,,,PPT41,001,2022-07-07_13h31.02.890,ABstudy,2022.1.4,59.922400514330924,
AB,Lag1_T1P_T2P,1,P,P,7,8,6,3,11,Sand castle,Did you see the Sand castle?,0.12,0.016,JPG\,thermometer02b,candle08b,comb02a,toothbrush03b,brick,computerkeyboard02,sandcastle,stapler06,candy,birthdaycandle,clock04,blankImage,blankImage,blankImage,blankImage,blankImage,blankImage,sandcastle,,,,,,,,,,,,0,41,41,70,,,,,,,,,,,,,,,,,,,,,,,,,,,,,,,,,,,403.8282080000499,404.8425964000635,404.80926630005706,405.387109400006,405.387109400006,None,406.80923809995875,None,right,1.0000578999752179,406.80923809995875,None,407.8293056000257,None,left,0.38104770006611943,407.8293056000257,None,,,,,,,,,,,,,,,,,,,,,,,PPT41,001,2022-07-07_13h31.02.890,ABstudy,2022.1.4,59.922400514330924,
AB,Lag1_T1P_T2P,1,P,P,7,8,6,3,11,swing,Did you see the swing?,0.12,0.016,JPG\,sewingmachine01a,thermometer02b,sponge01,eraser,broccoli01a,fork03c,swing,stapler03b,belt02a,medal02b,pineapple01a,blankImage,blankImage,blankImage,blankImage,blankImage,blankImage,swing,,,,,,,,,,,,0,42,42,30,,,,,,,,,,,,,,,,,,,,,,,,,,,,,,,,,,,408.2338194999611,409.2473034999566,409.23049450002145,409.824172200053,409.824172200053,None,411.1504193999572,None,right,1.5553228999488056,411.1504193999572,None,412.7341271999758,None,left,0.5318637000164017,412.7341271999758,None,,,,,,,,,,,,,,,,,,,,,,,PPT41,001,2022-07-07_13h31.02.890,ABstudy,2022.1.4,59.922400514330924,
AB,Lag1_T1P_T2P,1,P,P,7,8,6,5,13,tiger,Did you see the tiger?,0.12,0.016,JPG\,globe,broccoli01a,binoculars01b,iron01b,avocado01,dandelion,tiger02,stapler03b,fan,pizza,celery,blueberry01,sewingmachine01a,blankImage,blankImage,blankImage,blankImage,tiger02,,,,,,,,,,,,0,43,43,50,,,,,,,,,,,,,,,,,,,,,,,,,,,,,,,,,,,413.2882579000434,414.30235680006444,414.28576780005824,414.8682480000425,414.8682480000425,None,416.4428460999625,None,left,1.094757700106129,416.4428460999625,None,417.55562400002964,None,right,0.29396499996073544,417.55562400002964,None,,,,,,,,,,,,,,,,,,,,,,,PPT41,001,2022-07-07_13h31.02.890,ABstudy,2022.1.4,59.922400514330924,
AB,Lag5_T1P_T2P,5,P,P,7,12,6,5,17,Pigeon,Did you see the Pigeon?,0.12,0.016,JPG\,strawberry,leaf02a,clock04,candle01,avocado01,paintbrush01,pigeon,brownsugar,ring01,lemon02,fork03c,stapler01,cauliflower01,tableknife02,tennisball01b,thermometer02b,blankImage,pigeon,,,,,,,,,,,,0,44,44,151,,,,,,,,,,,,,,,,,,,,,,,,,,,,,,,,,,,417.8781854000408,418.8901441000635,418.873434200068,419.47171690000687,419.47171690000687,None,421.40380540001206,None,left,0.7333594999508932,421.40380540001206,None,422.16026809997857,None,left,0.2170203001005575,422.16026809997857,None,,,,,,,,,,,,,,,,,,,,,,,PPT41,001,2022-07-07_13h31.02.890,ABstudy,2022.1.4,59.922400514330924,
AB,Lag5_T1A_T2P,5,A,P,7,12,6,5,17,Rollerblade,Did you see the Rollerblade?,0.12,0.016,JPG\,binoculars01b,cymbal,pizza,candy,paintbrush01,sponge01,grape01,thermometer02b,speaker04,lemon02,lipstick02a,stapler03b,candle01,8ball,plate01b,pen04b,blankImage,lion,,,,,,,,,,,,0,45,45,266,,,,,,,,,,,,,,,,,,,,,,,,,,,,,,,,,,,422.4587891000556,423.46114979998674,423.4444244999904,424.0276818999555,424.0276818999555,None,425.92847579997033,None,right,1.2406443000072613,425.92847579997033,None,427.1981624000473,None,left,0.4037641000468284,427.1981624000473,None,,,,,,,,,,,,,,,,,,,,,,,PPT41,001,2022-07-07_13h31.02.890,ABstudy,2022.1.4,59.922400514330924,
AB,Lag5_T1P_T2A,5,P,A,7,12,6,5,17,shoulder,Did you see the shoulder?,0.12,0.016,JPG\,battery02b,sunglasses04,pear01,tennisball01b,clock01a,speaker04,shoulder,spoon01,alligator,pineapple01a,avocado01,grape01,blueberry01,violin,strawberry,sock01a,blankImage,shoulder,,,,,,,,,,,,0,46,46,224,,,,,,,,,,,,,,,,,,,,,,,,,,,,,,,,,,,427.6343028000556,428.649705799995,428.61633230000734,429.212291700067,429.212291700067,None,431.2491225999547,None,left,0.8082597000757232,431.2491225999547,None,432.0866281000199,None,right,0.3235435000387952,432.0866281000199,None,,,,,,,,,,,,,,,,,,,,,,,PPT41,001,2022-07-07_13h31.02.890,ABstudy,2022.1.4,59.922400514330924,
AB,Lag5_T1P_T2A,5,P,A,8,13,7,3,16,Shelves,Did you see the Shelves?,0.12,0.016,JPG\,pineapple01a,leaf02a,grape01,toiletpaper01a,match,tennisball01b,spoon01,shelves,pig,measuringcup01,ring01,lemon02,dice05a,pizza,potato02b,eraser,blankImage,shelves,,,,,,,,,,,,0,47,47,222,,,,,,,,,,,,,,,,,,,,,,,,,,,,,,,,,,,432.4418728000019,433.4545435999753,433.4378921999596,434.0261189000448,434.0261189000448,None,436.0046382000437,None,left,0.9892614999553189,436.0046382000437,None,437.02471450006124,None,right,0.33719530003145337,437.02471450006124,None,,,,,,,,,,,,,,,,,,,,,,,PPT41,001,2022-07-07_13h31.02.890,ABstudy,2022.1.4,59.922400514330924,
AB,Lag1_T1P_T2P,1,P,P,7,8,6,3,11,trampoline,Did you see the trampoline?,0.12,0.016,JPG\,dice05a,watch02a,pig,lighter01,button01,strawberry,trampoline,stapler03a,plate01b,pen04b,feather03a,blankImage,blankImage,blankImage,blankImage,blankImage,blankImage,trampoline,,,,,,,,,,,,0,48,48,73,,,,,,,,,,,,,,,,,,,,,,,,,,,,,,,,,,,437.3955894999672,438.4094134999905,438.3927375000203,439.0330169000663,438.95620090002194,None,440.3023717000615,None,right,1.083027199958451,440.3023717000615,None,441.4125289999647,None,left,0.3885452999966219,441.4125289999647,None,,,,,,,,,,,,,,,,,,,,,,,PPT41,001,2022-07-07_13h31.02.890,ABstudy,2022.1.4,59.922400514330924,
AB,Lag1_T1P_T2P,1,P,P,8,9,7,3,12,Fire hydrant,Did you see the Fire hydrant?,0.12,0.016,JPG\,foosballtable,candy,envelope03a,microscope,pencil01,leaf02a,scissors01,firehydrant,stapler01,dandelion,pineapple01a,hammer01,blankImage,blankImage,blankImage,blankImage,blankImage,firehydrant,,,,,,,,,,,,0,49,49,83,,,,,,,,,,,,,,,,,,,,,,,,,,,,,,,,,,,441.832706999965,442.8471217000624,442.81376349995844,443.3143077000277,443.3143077000277,None,444.8624407000607,None,left,1.2986200000159442,444.8624407000607,None,446.18433800002094,None,right,0.3528679999290034,446.18433800002094,None,,,,,,,,,,,,,,,,,,,,,,,PPT41,001,2022-07-07_13h31.02.890,ABstudy,2022.1.4,59.922400514330924,
AB,Lag5_T1P_T2P,5,P,P,8,13,7,5,18,Ping pong Table,Did you see the Ping pong Table?,0.12,0.016,JPG\,shirt02,match,screw02,foosballtable,blueberry01,pineapple01a,sewingmachine01a,pingpongtable,button01,comb02a,dice05a,measuringcup01,stapler04b,printer02,carrot01,watermelon01,blankImage,pingpongtable,,,,,,,,,,,,0,50,50,152,,,,,,,,,,,,,,,,,,,,,,,,,,,,,,,,,,,446.6270025999984,447.63549230003264,447.60197970003355,448.20756520004943,448.20756520004943,None,450.0931220999919,None,left,0.8370705000124872,450.0931220999919,None,450.9551531999605,None,right,0.9821053999476135,450.9551531999605,None,,,,,,,,,,,,,,,,,,,,,,,PPT41,001,2022-07-07_13h31.02.890,ABstudy,2022.1.4,59.922400514330924,
AB,Lag1_T1P_T2A,1,P,A,6,7,5,4,11,Road,Did you see the Road?,0.12,0.016,JPG\,pizza,printer02,medal02b,spoon01,grape01,road02,belt02a,watermelon01,celery,battery02b,screw02,blankImage,blankImage,blankImage,blankImage,blankImage,blankImage,road02,,,,,,,,,,,,0,51,51,174,,,,,,,,,,,,,,,,,,,,,,,,,,,,,,,,,,,451.95843320002314,452.97389080002904,452.9405102999881,453.5346804000437,453.5346804000437,None,454.96268920006696,None,right,2.142839699983597,454.96268920006696,None,457.12838380003814,None,right,0.9052445000270382,457.12838380003814,None,,,,,,,,,,,,,,,,,,,,,,,PPT41,001,2022-07-07_13h31.02.890,ABstudy,2022.1.4,59.922400514330924,
AB,Lag1_T1P_T2P,1,P,P,6,7,5,4,11,American football,Did you see the American football?,0.12,0.016,JPG\,toaster01,garlic01a,faucet,fan,comb02a,football,stapler06,watch02a,onion,blueberry01,toiletpaper01a,blankImage,blankImage,blankImage,blankImage,blankImage,blankImage,football,,,,,,,,,,,,0,52,52,12,,,,,,,,,,,,,,,,,,,,,,,,,,,,,,,,,,,458.0732405000599,459.0801048000576,459.06342280004174,459.6983961999649,459.6983961999649,None,461.019593300065,None,left,0.7972311000339687,461.019593300065,None,461.84981359995436,None,right,0.8396319000748917,461.84981359995436,None,,,,,,,,,,,,,,,,,,,,,,,PPT41,001,2022-07-07_13h31.02.890,ABstudy,2022.1.4,59.922400514330924,
AB,Lag5_T1P_T2P,5,P,P,5,10,4,5,15,sword fish,Did you see the sword fish?,0.12,0.016,JPG\,scissors01,balloon01b,eraser,feather03a,swordfish,candle01,measuringcup01,calculator01,thermometer02b,stapler04b,pear01,carrot01,globe,baseball01a,leaf02a,blankImage,blankImage,swordfish,,,,,,,,,,,,0,53,53,160,,,,,,,,,,,,,,,,,,,,,,,,,,,,,,,,,,,462.71843839995563,463.71805180003867,463.7013401000295,464.27952730003744,464.27952730003744,None,466.13345089997165,None,left,0.8366943000582978,466.13345089997165,None,466.98923579999246,None,right,0.25193220004439354,466.98923579999246,None,,,,,,,,,,,,,,,,,,,,,,,PPT41,001,2022-07-07_13h31.02.890,ABstudy,2022.1.4,59.922400514330924,
AB,Lag5_T1P_T2P,5,P,P,8,13,7,4,17,lamp,Did you see the lamp?,0.12,0.016,JPG\,globe,broccoli01a,binoculars01b,iron01b,avocado01,dandelion,pineapple01a,floorlamp,fan,pizza,celery,blueberry01,stapler01,dice05a,watermelon01,candy,blankImage,floorlamp,,,,,,,,,,,,0,54,54,99,,,,,,,,,,,,,,,,,,,,,,,,,,,,,,,,,,,467.27753279998433,468.2894530000631,468.27275690005627,468.8639562999597,468.8639562999597,None,470.7897393000312,None,left,0.6684918999671936,470.7897393000312,None,471.4784892000025,None,left,0.26760050002485514,471.4784892000025,None,,,,,,,,,,,,,,,,,,,,,,,PPT41,001,2022-07-07_13h31.02.890,ABstudy,2022.1.4,59.922400514330924,
AB,Lag5_T1P_T2P,5,P,P,6,11,5,4,15,punching bag,Did you see the punching bag?,0.12,0.016,JPG\,foosballtable,cigarette,pen04b,birthdaycandle,hammer01,punchingbag,binoculars01b,chain01,potato02b,cauliflower01,stapler04b,ashtray01,scarf,cellphone,calculator01,blankImage,blankImage,punchingbag,,,,,,,,,,,,0,55,55,156,,,,,,,,,,,,,,,,,,,,,,,,,,,,,,,,,,,471.78054329997394,472.79355489998125,472.7769927000627,473.2776801000582,473.2776801000582,None,475.2060833000578,None,left,0.8351533999666572,475.2060833000578,None,476.0635103000095,None,left,0.21765120001509786,476.0635103000095,None,,,,,,,,,,,,,,,,,,,,,,,PPT41,001,2022-07-07_13h31.02.890,ABstudy,2022.1.4,59.922400514330924,
AB,Lag1_T1P_T2P,1,P,P,5,6,4,5,11,candy cane,Did you see the candy cane?,0.12,0.016,JPG\,shirt02,match,screw02,foosballtable,candycane01a,stapler04b,sewingmachine01a,watch02a,button01,comb02a,dice05a,blankImage,blankImage,blankImage,blankImage,blankImage,blankImage,candycane01a,,,,,,,,,,,,0,56,56,9,,,,,,,,,,,,,,,,,,,,,,,,,,,,,,,,,,,476.31606119999196,477.33150900003966,477.2981506000506,477.88432249997277,477.88432249997277,None,479.28578430006746,None,left,0.8682312000310048,479.28578430006746,None,480.1858211000217,None,right,0.2483314999844879,480.1858211000217,None,,,,,,,,,,,,,,,,,,,,,,,PPT41,001,2022-07-07_13h31.02.890,ABstudy,2022.1.4,59.922400514330924,
AB,Lag1_T1A_T2P,1,A,P,8,9,7,5,14,clock,Did you see the clock?,0.12,0.016,JPG\,speaker04,sewingmachine01a,eraser,violin,globe,belt02a,sunglasses04,cymbal,stapler01,greenolive,alligator,pear01,watch02a,screwdriver04b,blankImage,blankImage,blankImage,peacock,,,,,,,,,,,,0,57,57,240,,,,,,,,,,,,,,,,,,,,,,,,,,,,,,,,,,,480.4620420000283,481.4695078000659,481.453870599973,482.12081160000525,482.03838140005246,None,483.7065620999783,None,right,1.0634072000393644,483.7065620999783,None,484.78934979997575,None,left,0.3723554000025615,484.78934979997575,None,,,,,,,,,,,,,,,,,,,,,,,PPT41,001,2022-07-07_13h31.02.890,ABstudy,2022.1.4,59.922400514330924,
AB,Lag5_T1P_T2A,5,P,A,8,13,7,3,16,leaf blower,Did you see the leaf blower?,0.12,0.016,JPG\,printer02,leaf02a,cauliflower01,sock01a,brownsugar,paintbrush01,pig,leafblower01,belt02a,shirt02,key01,match,cigarette,scissors01,envelope03a,blueberry01,blankImage,leafblower01,,,,,,,,,,,,0,58,58,216,,,,,,,,,,,,,,,,,,,,,,,,,,,,,,,,,,,485.1942979999585,486.2071924000047,486.19041669997387,486.7838055000175,486.7838055000175,None,488.72762520005926,None,left,1.0341848999960348,488.72762520005926,None,489.793897000025,None,right,0.38387859996873885,489.793897000025,None,,,,,,,,,,,,,,,,,,,,,,,PPT41,001,2022-07-07_13h31.02.890,ABstudy,2022.1.4,59.922400514330924,
AB,Lag5_T1P_T2P,5,P,P,8,13,7,5,18,skis,Did you see the skis?,0.12,0.016,JPG\,tennisball01b,paintbrush01,medal02b,apple07,speaker04,iron01b,avocado01,downhillski,belt02a,toiletpaper01a,watermelon01,candle01,stapler01,cymbal,ashtray01,screwdriver04b,blankImage,downhillski,,,,,,,,,,,,0,59,59,106,,,,,,,,,,,,,,,,,,,,,,,,,,,,,,,,,,,490.1975968000479,491.211955799954,491.1786781999981,491.7722044000402,491.7722044000402,None,493.6970876000123,None,right,0.8324988000094891,493.6970876000123,None,494.5489672999829,None,right,0.42975610005669296,494.5489672999829,None,,,,,,,,,,,,,,,,,,,,,,,PPT41,001,2022-07-07_13h31.02.890,ABstudy,2022.1.4,59.922400514330924,
AB,Lag5_T1P_T2P,5,P,P,5,10,4,3,13,rose,Did you see the rose?,0.12,0.016,JPG\,lipstick02a,cucumber,candle08b,printer02,rose,violin,paintbrush01,lighter01,belt02a,stapler03b,thermometer02b,microscope,cigarette,blankImage,blankImage,blankImage,blankImage,rose,,,,,,,,,,,,0,60,60,158,,,,,,,,,,,,,,,,,,,,,,,,,,,,,,,,,,,495.08763329999056,496.10032770002726,496.08360779995564,496.6730871000327,496.6730871000327,None,498.168411700055,None,left,1.0012660999782383,498.168411700055,None,499.1869094000431,None,right,0.3268211999675259,499.1869094000431,None,,,,,,,,,,,,,,,,,,,,,,,PPT41,001,2022-07-07_13h31.02.890,ABstudy,2022.1.4,59.922400514330924,
AB,Lag5_T1P_T2P,5,P,P,6,11,5,5,16,Car,Did you see the Car?,0.12,0.016,JPG\,leaf02a,apple07,cd,pineapple01a,envelope03a,car,pig,canoftennisballs,rice,feather03a,stapler03a,balloon01b,avocado01,calculator01,watermelon01,teabag,blankImage,car,,,,,,,,,,,,0,61,61,127,,,,,,,,,,,,,,,,,,,,,,,,,,,,,,,,,,,499.5423504000064,500.5547782999929,500.5380390000064,501.1489065999631,501.1489065999631,None,503.1311265999684,None,left,0.5899714000988752,503.1311265999684,None,503.7414453000529,None,left,0.2521876000100747,503.7414453000529,None,,,,,,,,,,,,,,,,,,,,,,,PPT41,001,2022-07-07_13h31.02.890,ABstudy,2022.1.4,59.922400514330924,
AB,Lag1_T1P_T2P,1,P,P,6,7,5,3,10,fortune cookie,Did you see the fortune cookie?,0.12,0.016,JPG\,scissors01,grape01,mushroom01,toiletpaper01a,greenolive,fortunecookie,stapler03b,ashtray01,carrot01,pineapple01a,blankImage,blankImage,blankImage,blankImage,blankImage,blankImage,blankImage,fortunecookie,,,,,,,,,,,,0,62,62,42,,,,,,,,,,,,,,,,,,,,,,,,,,,,,,,,,,,504.0326130000176,505.0422430000035,505.0255060000345,505.59898310003337,505.59898310003337,None,506.86525849998,None,left,0.9916759000625461,506.86525849998,None,507.8785526000429,None,right,0.346431800047867,507.8785526000429,None,,,,,,,,,,,,,,,,,,,,,,,PPT41,001,2022-07-07_13h31.02.890,ABstudy,2022.1.4,59.922400514330924,
AB,Lag5_T1P_T2P,5,P,P,8,13,7,5,18,pipe,Did you see the pipe?,0.12,0.016,JPG\,scissors01,ashtray01,garlic01a,medal02b,cigarette,candle08b,leaf02a,smokingpipe,cucumber,rice,toiletpaper01a,greenolive,stapler01,cellphone,tableknife02,spoon01,blankImage,smokingpipe,,,,,,,,,,,,0,63,63,138,,,,,,,,,,,,,,,,,,,,,,,,,,,,,,,,,,,508.2482525999658,509.263304800028,509.2299308000365,509.80538719997276,509.80538719997276,None,511.8518656999804,None,left,0.7976400000043213,511.8518656999804,None,512.6666106999619,None,left,0.1830108999274671,512.6666106999619,None,,,,,,,,,,,,,,,,,,,,,,,PPT41,001,2022-07-07_13h31.02.890,ABstudy,2022.1.4,59.922400514330924,
AB,Lag1_T1A_T2P,1,A,P,5,6,4,3,9,Stool,Did you see the Stool?,0.12,0.016,JPG\,cherry01,cymbal,envelope03a,foosballtable,shirt02,stapler01,sewingmachine01a,candle08b,battery02b,blankImage,blankImage,blankImage,blankImage,blankImage,blankImage,blankImage,blankImage,hulahoop,,,,,,,,,,,,0,64,64,236,,,,,,,,,,,,,,,,,,,,,,,,,,,,,,,,,,,512.8690702000167,513.8845211999724,513.8511525000213,514.4359576000134,514.4359576000134,None,515.561871199985,None,right,2.383717200020328,515.561871199985,None,517.9722752000671,None,left,0.41282120009418577,517.9722752000671,None,,,,,,,,,,,,,,,,,,,,,,,PPT41,001,2022-07-07_13h31.02.890,ABstudy,2022.1.4,59.922400514330924,
AB,Lag5_T1A_T2A,5,A,A,5,10,4,5,15,truck,Did you see the truck?,0.12,0.016,JPG\,pizza,printer02,medal02b,spoon01,grape01,lighter01,belt02a,watermelon01,celery,battery02b,screw02,comb02a,cauliflower01,lipstick02a,potato02b,blankImage,blankImage,postalmailbox01,,,,,,,,,,,,0,65,65,297,,,,,,,,,,,,,,,,,,,,,,,,,,,,,,,,,,,518.4071102000307,519.4069075000007,519.3901144000702,520.0055674000178,520.0055674000178,None,521.941390800057,None,right,1.1080440001096576,521.941390800057,None,523.0780127999606,None,right,0.34717610001098365,523.0780127999606,None,,,,,,,,,,,,,,,,,,,,,,,PPT41,001,2022-07-07_13h31.02.890,ABstudy,2022.1.4,59.922400514330924,
AB,Lag1_T1P_T2P,1,P,P,5,6,4,3,9,elephant,Did you see the elephant?,0.12,0.016,JPG\,celery,brownsugar,key01,sunglasses04,arugula,stapler04b,dice05a,tennisball01b,scarf,blankImage,blankImage,blankImage,blankImage,blankImage,blankImage,blankImage,blankImage,arugula,,,,,,,,,,,,0,66,66,54,,,,,,,,,,,,,,,,,,,,,,,,,,,,,,,,,,,523.4512000000104,524.4619678000454,524.4454012999777,525.0670656999573,525.0670656999573,None,526.0955623000627,None,right,1.2336609999183565,526.0955623000627,None,527.3482915000059,None,right,0.549911699956283,527.3482915000059,None,,,,,,,,,,,,,,,,,,,,,,,PPT41,001,2022-07-07_13h31.02.890,ABstudy,2022.1.4,59.922400514330924,
AB,Lag1_T1P_T2P,1,P,P,8,9,7,4,13,bowling ball,Did you see the bowling ball?,0.12,0.016,JPG\,dandelion,pineapple01a,broom01,pen04b,sock01a,sandal,foosballtable,bowlingball,stapler01,toothbrush03b,celery,candle08b,tennisball01b,blankImage,blankImage,blankImage,blankImage,bowlingball,,,,,,,,,,,,0,67,67,7,,,,,,,,,,,,,,,,,,,,,,,,,,,,,,,,,,,527.921423700056,528.9329973000567,528.9162546000443,529.4174431000138,529.4174431000138,None,531.1006851999555,None,left,0.8849258999107406,531.1006851999555,None,532.0028759000124,None,right,0.5908019000198692,532.0028759000124,None,,,,,,,,,,,,,,,,,,,,,,,PPT41,001,2022-07-07_13h31.02.890,ABstudy,2022.1.4,59.922400514330924,
AB,Lag5_T1P_T2P,5,P,P,7,12,6,3,15,Rollerblade,Did you see the Rollerblade?,0.12,0.016,JPG\,hammer01,sponge01,toaster01,cherry01,feather03a,mushroom01,rollerblade,pencil01,tennisball01b,brick,clock04,stapler06,teabag,garlic01a,envelope03a,blankImage,blankImage,rollerblade,,,,,,,,,,,,0,68,68,116,,,,,,,,,,,,,,,,,,,,,,,,,,,,,,,,,,,532.6261385000544,533.6376817000564,533.620963399997,534.2052609999664,534.2052609999664,None,536.007991899969,None,left,0.7293059000512585,536.007991899969,None,536.7572883999674,None,left,0.21172769996337593,536.7572883999674,None,,,,,,,,,,,,,,,,,,,,,,,PPT41,001,2022-07-07_13h31.02.890,ABstudy,2022.1.4,59.922400514330924,
AB,Lag5_T1A_T2A,5,A,A,5,10,4,5,15,flower,Did you see the flower?,0.12,0.016,JPG\,clock01a,cellphone,toaster01,toothbrush03b,cauliflower01,microscope,comb02a,paintbrush01,scarf,clock04,sponge01,iron01b,watch02a,celery,ring01,blankImage,blankImage,stepladder,,,,,,,,,,,,0,69,69,303,,,,,,,,,,,,,,,,,,,,,,,,,,,,,,,,,,,536.9931549000321,538.0085741999792,537.9753281000303,538.5581541999709,538.5581541999709,None,540.3592502999818,None,right,1.3542314000660554,540.3592502999818,None,541.745669499971,None,right,0.25573069998063147,541.745669499971,None,,,,,,,,,,,,,,,,,,,,,,,PPT41,001,2022-07-07_13h31.02.890,ABstudy,2022.1.4,59.922400514330924,
AB,Lag5_T1P_T2P,5,P,P,8,13,7,5,18,spice rack,Did you see the spice rack?,0.12,0.016,JPG\,lamp04a,broccoli01a,alligator,garlic01a,dandelion,brownsugar,avocado01,spicerack,leaf02a,cellphone,medal02b,cd,stapler05,sunglasses04,strawberry,eraser,blankImage,spicerack,,,,,,,,,,,,0,70,70,140,,,,,,,,,,,,,,,,,,,,,,,,,,,,,,,,,,,542.0329700000584,543.0469699000241,543.0303248000564,543.6600173000479,543.5873379000695,None,545.637546199956,None,right,0.9641309999860823,545.637546199956,None,546.6338270000415,None,left,0.4955006999662146,546.6338270000415,None,,,,,,,,,,,,,,,,,,,,,,,PPT41,001,2022-07-07_13h31.02.890,ABstudy,2022.1.4,59.922400514330924,
AB,Lag1_T1P_T2P,1,P,P,5,6,4,5,11,beaver,Did you see the beaver?,0.12,0.016,JPG\,belt02a,sunglasses04,computerkeyboard02,cherry01,beaver,stapler03a,watch02a,dice05a,blueberry01,spoon01,match,blankImage,blankImage,blankImage,blankImage,blankImage,blankImage,beaver,,,,,,,,,,,,0,71,71,55,,,,,,,,,,,,,,,,,,,,,,,,,,,,,,,,,,,547.1532214999897,548.168707099976,548.135308100027,548.7196751000592,548.7196751000592,None,550.0967003999976,None,left,0.7043337000068277,550.0967003999976,None,550.8215728000505,None,right,0.315096199978143,550.8215728000505,None,,,,,,,,,,,,,,,,,,,,,,,PPT41,001,2022-07-07_13h31.02.890,ABstudy,2022.1.4,59.922400514330924,
AB,Lag1_T1P_T2A,1,P,A,6,7,5,3,10,Dragon fly,Did you see the Dragon fly?,0.12,0.016,JPG\,leaf02a,pear01,measuringcup01,cigarette,fan,dragonfly01,teabag,tableknife02,ring01,pencil01,blankImage,blankImage,blankImage,blankImage,blankImage,blankImage,blankImage,dragonfly01,,,,,,,,,,,,0,72,72,185,,,,,,,,,,,,,,,,,,,,,,,,,,,,,,,,,,,551.1571778999642,552.1724826999707,552.1391308000311,552.7219056000467,552.7219056000467,None,553.9290329000214,None,left,0.9763812000164762,553.9290329000214,None,554.9253945000237,None,right,0.26007810002192855,554.9253945000237,None,,,,,,,,,,,,,,,,,,,,,,,PPT41,001,2022-07-07_13h31.02.890,ABstudy,2022.1.4,59.922400514330924,
AB,Lag1_T1P_T2P,1,P,P,6,7,5,3,10,cupcake,Did you see the cupcake?,0.12,0.016,JPG\,printer02,leaf02a,cauliflower01,sock01a,brownsugar,cupcake,stapler01,orange,belt02a,shirt02,blankImage,blankImage,blankImage,blankImage,blankImage,blankImage,blankImage,cupcake,,,,,,,,,,,,0,73,73,38,,,,,,,,,,,,,,,,,,,,,,,,,,,,,,,,,,,555.2630541999824,556.2766988000367,556.2600108999759,556.84602669999,556.84602669999,None,558.0026195000391,None,left,0.7501939999638125,558.0026195000391,None,558.77955690003,None,right,0.3334661000408232,558.77955690003,None,,,,,,,,,,,,,,,,,,,,,,,PPT41,001,2022-07-07_13h31.02.890,ABstudy,2022.1.4,59.922400514330924,
AB,Lag1_T1P_T2A,1,P,A,6,7,5,4,11,bird,Did you see the bird?,0.12,0.016,JPG\,foosballtable,candy,envelope03a,microscope,pencil01,cedarwaxwing,scissors01,watermelon01,grape01,dandelion,pineapple01a,blankImage,blankImage,blankImage,blankImage,blankImage,blankImage,cedarwaxwing,,,,,,,,,,,,0,74,74,182,,,,,,,,,,,,,,,,,,,,,,,,,,,,,,,,,,,559.131667300011,560.1308585000224,560.1141658000415,560.6147052999586,560.6147052999586,None,562.0508587000659,None,left,1.0148166998988017,562.0508587000659,None,563.0838587000035,None,right,0.25283170002512634,563.0838587000035,None,,,,,,,,,,,,,,,,,,,,,,,PPT41,001,2022-07-07_13h31.02.890,ABstudy,2022.1.4,59.922400514330924,
AB,Lag1_T1A_T2P,1,A,P,5,6,4,3,9,microphone,Did you see the microphone?,0.12,0.016,JPG\,hammer01,sponge01,toaster01,cherry01,feather03a,stapler06,measuringcup01,pencil01,tennisball01b,blankImage,blankImage,blankImage,blankImage,blankImage,blankImage,blankImage,blankImage,cactus,,,,,,,,,,,,0,75,75,230,,,,,,,,,,,,,,,,,,,,,,,,,,,,,,,,,,,563.372178300051,564.384983099997,564.3682809000602,564.9505684999749,564.9505684999749,None,566.0636678000446,None,right,0.9537174999713898,566.0636678000446,None,567.0377639000071,None,left,0.3079472000245005,567.0377639000071,None,,,,,,,,,,,,,,,,,,,,,,,PPT41,001,2022-07-07_13h31.02.890,ABstudy,2022.1.4,59.922400514330924,
AB,Lag1_T1P_T2P,1,P,P,8,9,7,4,13,Bird House,Did you see the Bird House?,0.12,0.016,JPG\,toiletpaper01a,mushroom01,medal02b,sandal,rice,cd,feather03a,birdhouse,stapler01,garlic01a,toaster01,belt02a,cigarette,blankImage,blankImage,blankImage,blankImage,birdhouse,,,,,,,,,,,,0,76,76,77,,,,,,,,,,,,,,,,,,,,,,,,,,,,,,,,,,,567.3735590999713,568.3887860999675,568.3554230000591,568.9541658000089,568.9541658000089,None,570.5766605000244,None,left,0.7447063999716192,570.5766605000244,None,571.3416883000173,None,right,0.42752410005778074,571.3416883000173,None,,,,,,,,,,,,,,,,,,,,,,,PPT41,001,2022-07-07_13h31.02.890,ABstudy,2022.1.4,59.922400514330924,
AB,Lag1_T1P_T2P,1,P,P,6,7,5,5,12,Snowboard,Did you see the Snowboard?,0.12,0.016,JPG\,belt02a,measuringcup01,spoon01,chain01,greenolive,snowboard,stapler01,onion,fan,strawberry,candle01,broom01,blankImage,blankImage,blankImage,blankImage,blankImage,snowboard,,,,,,,,,,,,0,77,77,49,,,,,,,,,,,,,,,,,,,,,,,,,,,,,,,,,,,571.794844500022,572.8100620000623,572.7768237000564,573.3713031000225,573.3713031000225,None,574.8516444000416,None,left,0.6544528999365866,574.8516444000416,None,575.5292265999597,None,right,0.26387529994826764,575.5292265999597,None,,,,,,,,,,,,,,,,,,,,,,,PPT41,001,2022-07-07_13h31.02.890,ABstudy,2022.1.4,59.922400514330924,
AB,Lag1_T1P_T2P,1,P,P,5,6,4,5,11,shark,Did you see the shark?,0.12,0.016,JPG\,cucumber,sponge01,alligator,pear01,greatwhiteshark,stapler06,clock04,battery02b,fork03c,binoculars01b,mushroom01,blankImage,blankImage,blankImage,blankImage,blankImage,blankImage,greatwhiteshark,,,,,,,,,,,,0,78,78,84,,,,,,,,,,,,,,,,,,,,,,,,,,,,,,,,,,,575.8150690000039,576.8304241000442,576.7971364000114,577.3706901000114,577.3706901000114,None,578.7643280000193,None,left,0.7407736999448389,578.7643280000193,None,579.5335138000082,None,right,0.283488400047645,579.5335138000082,None,,,,,,,,,,,,,,,,,,,,,,,PPT41,001,2022-07-07_13h31.02.890,ABstudy,2022.1.4,59.922400514330924,
AB,Lag1_T1P_T2P,1,P,P,7,8,6,4,12,trophy,Did you see the trophy?,0.12,0.016,JPG\,cherry01,cymbal,envelope03a,foosballtable,shirt02,cellphone,trophy01,stapler04b,battery02b,apple07,pencil01,screwdriver04b,blankImage,blankImage,blankImage,blankImage,blankImage,trophy01,,,,,,,,,,,,0,79,79,74,,,,,,,,,,,,,,,,,,,,,,,,,,,,,,,,,,,579.8391606999794,580.8513876000652,580.8346172999591,581.4224819999654,581.4224819999654,None,582.8635038000066,None,left,1.05018200003542,582.8635038000066,None,583.9379310000222,None,left,1.0548834999790415,583.9379310000222,None,,,,,,,,,,,,,,,,,,,,,,,PPT41,001,2022-07-07_13h31.02.890,ABstudy,2022.1.4,59.922400514330924,
AB,Lag5_T1P_T2P,5,P,P,7,12,6,5,17,elbow,Did you see the elbow?,0.12,0.016,JPG\,candle01,fork03c,plate01b,violin,computerkeyboard02,candy,elbow,paintbrush01,cherry01,sock01a,teabag,stapler01,cd,lighter01,book01b,tennisball01b,blankImage,elbow,,,,,,,,,,,,0,80,80,87,,,,,,,,,,,,,,,,,,,,,,,,,,,,,,,,,,,585.0258207999868,586.0399135999614,586.0231256999541,586.6071426999988,586.6071426999988,None,588.5292933000019,None,left,0.6481402000645176,588.5292933000019,None,589.2099166000262,None,left,0.18267899996135384,589.2099166000262,None,,,,,,,,,,,,,,,,,,,,,,,PPT41,001,2022-07-07_13h31.02.890,ABstudy,2022.1.4,59.922400514330924,
AB,Lag1_T1P_T2P,1,P,P,8,9,7,4,13,Doughnut,Did you see the Doughnut?,0.12,0.016,JPG\,brick,eraser,cucumber,ashtray01,thermometer02b,binoculars01b,lipstick02a,donut,stapler01,brownsugar,battery02b,iron01b,dice05a,blankImage,blankImage,blankImage,blankImage,donut,,,,,,,,,,,,0,81,81,39,,,,,,,,,,,,,,,,,,,,,,,,,,,,,,,,,,,589.4154356999788,590.4272123000119,590.4105415999657,590.9885935999919,590.9885935999919,None,592.5835605000611,None,left,0.9370391999837011,592.5835605000611,None,593.548233199981,None,right,0.5083282999694347,593.548233199981,None,,,,,,,,,,,,,,,,,,,,,,,PPT41,001,2022-07-07_13h31.02.890,ABstudy,2022.1.4,59.922400514330924,
AB,Lag5_T1P_T2P,5,P,P,7,12,6,4,16,Bird feeder,Did you see the Bird feeder?,0.12,0.016,JPG\,watermelon01,banana01,ring01,pencil01,tomato01,speaker04,birdfeeder,thermometer02b,key01,foosballtable,violin,stapler06,clock04,dice05a,pen04b,mushroom01,blankImage,birdfeeder,,,,,,,,,,,,0,82,82,164,,,,,,,,,,,,,,,,,,,,,,,,,,,,,,,,,,,594.0869713999564,595.0990354999667,595.0823583999882,595.6910919999937,595.6910919999937,None,597.6291390999686,None,right,1.3481536000035703,597.6291390999686,None,599.0025745000457,None,right,0.278682200005278,599.0025745000457,None,,,,,,,,,,,,,,,,,,,,,,,PPT41,001,2022-07-07_13h31.02.890,ABstudy,2022.1.4,59.922400514330924,
AB,Lag1_T1P_T2P,1,P,P,5,6,4,3,9,camel,Did you see the camel?,0.12,0.016,JPG\,iron01b,brick,broccoli01a,balloon01b,dromedary,stapler05,sandal,teabag,scissors01,blankImage,blankImage,blankImage,blankImage,blankImage,blankImage,blankImage,blankImage,dromedary,,,,,,,,,,,,0,83,83,11,,,,,,,,,,,,,,,,,,,,,,,,,,,,,,,,,,,599.3051638000179,600.3205929000396,600.2872087999713,600.8712904000422,600.8712904000422,None,602.0309839000693,None,left,0.737642600084655,602.0309839000693,None,602.7896842999617,None,right,0.1875125999795273,602.7896842999617,None,,,,,,,,,,,,,,,,,,,,,,,PPT41,001,2022-07-07_13h31.02.890,ABstudy,2022.1.4,59.922400514330924,
AB,Lag5_T1P_T2P,5,P,P,7,12,6,5,17,flamingo,Did you see the flamingo?,0.12,0.016,JPG\,pig,belt02a,rice,screwdriver04b,candle01,apple07,flamingo,pear01,feather03a,match,thermometer02b,stapler06,lemon02,violin,medal02b,pineapple01a,blankImage,flamingo,,,,,,,,,,,,0,84,84,153,,,,,,,,,,,,,,,,,,,,,,,,,,,,,,,,,,,603.0088346999837,604.0245527999941,603.9911517000291,604.4916601000587,604.4916601000587,None,606.5055518000154,None,left,1.0008258000016212,606.5055518000154,None,607.5277384000365,None,left,0.2807277999818325,607.5277384000365,None,,,,,,,,,,,,,,,,,,,,,,,PPT41,001,2022-07-07_13h31.02.890,ABstudy,2022.1.4,59.922400514330924,
AB,Lag5_T1P_T2P,5,P,P,8,13,7,5,18,sock,Did you see the sock?,0.12,0.016,JPG\,thermometer02b,avocado01,scissors01,tennisball01b,medal02b,banana01,strawberry,athleticsock,potato02b,pineapple01a,microscope,cymbal,stapler03b,celery,garlic01a,sunglasses04,blankImage,athleticsock,,,,,,,,,,,,0,85,85,141,,,,,,,,,,,,,,,,,,,,,,,,,,,,,,,,,,,607.8308780000079,608.8457724000327,608.8123568999581,609.3941361999605,609.3941361999605,None,611.4257065999554,None,right,1.7279720000224188,611.4257065999554,None,613.1835995999863,None,right,0.4012810999993235,613.1835995999863,None,,,,,,,,,,,,,,,,,,,,,,,PPT41,001,2022-07-07_13h31.02.890,ABstudy,2022.1.4,59.922400514330924,
AB,Lag1_T1P_T2P,1,P,P,6,7,5,4,11,bowling pin,Did you see the bowling pin?,0.12,0.016,JPG\,strawberry,leaf02a,clock04,candle01,avocado01,bowlingpin,stapler03a,brownsugar,ring01,lemon02,fork03c,blankImage,blankImage,blankImage,blankImage,blankImage,blankImage,bowlingpin,,,,,,,,,,,,0,86,86,8,,,,,,,,,,,,,,,,,,,,,,,,,,,,,,,,,,,613.6227404000238,614.634978099959,614.618224899983,615.2225825999631,615.2225825999631,None,616.5115032000467,None,left,0.7388982999837026,616.5115032000467,None,617.2711218000622,None,right,0.2662712999153882,617.2711218000622,None,,,,,,,,,,,,,,,,,,,,,,,PPT41,001,2022-07-07_13h31.02.890,ABstudy,2022.1.4,59.922400514330924,
AB,Lag5_T1A_T2P,5,A,P,7,12,6,4,16,flower,Did you see the flower?,0.12,0.016,JPG\,printer02,envelope03a,potato02b,calculator01,tableknife02,cigarette,ashtray01,pig,broom01,greenolive,candle08b,stapler03a,strawberry,candle01,foosballtable,tennisball01b,blankImage,calendar,,,,,,,,,,,,0,87,87,282,,,,,,,,,,,,,,,,,,,,,,,,,,,,,,,,,,,617.558742400026,618.5722377999919,618.5554821999976,619.1447812999832,619.1447812999832,None,621.1015133999754,None,right,1.115823300089687,621.1015133999754,None,622.2426702000666,None,right,0.36660190008115023,622.2426702000666,None,,,,,,,,,,,,,,,,,,,,,,,PPT41,001,2022-07-07_13h31.02.890,ABstudy,2022.1.4,59.922400514330924,
AB,Lag1_T1A_T2P,1,A,P,5,6,4,4,10,Bull,Did you see the Bull?,0.12,0.016,JPG\,celery,pencil01,fan,foosballtable,iron01b,stapler01,potato02b,fork03c,button01,pineapple01a,blankImage,blankImage,blankImage,blankImage,blankImage,blankImage,blankImage,spiderweb,,,,,,,,,,,,0,88,88,244,,,,,,,,,,,,,,,,,,,,,,,,,,,,,,,,,,,622.6310739000328,623.6439989999635,623.6272723999573,624.2115090000443,624.2115090000443,None,625.4219000999583,None,right,1.5228553999913856,625.4219000999583,None,626.9666840999853,None,left,0.2990057999268174,626.9666840999853,None,,,,,,,,,,,,,,,,,,,,,,,PPT41,001,2022-07-07_13h31.02.890,ABstudy,2022.1.4,59.922400514330924,
AB,Lag5_T1A_T2P,5,A,P,7,12,6,4,16,church,Did you see the church?,0.12,0.016,JPG\,printer02,leaf02a,cauliflower01,sock01a,brownsugar,paintbrush01,pig,orange,belt02a,shirt02,key01,stapler06,cigarette,scissors01,envelope03a,blueberry01,blankImage,ant,,,,,,,,,,,,0,89,89,279,,,,,,,,,,,,,,,,,,,,,,,,,,,,,,,,,,,627.3060114000691,628.3151169000193,628.2984290999593,628.8917316000443,628.8917316000443,None,630.8371910999995,None,right,1.0201870000455528,630.8371910999995,None,631.8857265000697,None,left,0.35540599992964417,631.8857265000697,None,,,,,,,,,,,,,,,,,,,,,,,PPT41,001,2022-07-07_13h31.02.890,ABstudy,2022.1.4,59.922400514330924,
AB,Lag1_T1P_T2A,1,P,A,7,8,6,3,11,fish,Did you see the fish?,0.12,0.016,JPG\,rice,watermelon01,tableknife02,scarf,computerkeyboard02,cauliflower01,salmon,binoculars01b,book01b,sandal,sponge01,blankImage,blankImage,blankImage,blankImage,blankImage,blankImage,salmon,,,,,,,,,,,,0,90,90,179,,,,,,,,,,,,,,,,,,,,,,,,,,,,,,,,,,,632.2727991000284,633.2870183000341,633.2536892000353,633.8232151999837,633.8232151999837,None,635.2190984999761,None,left,0.7652823000680655,635.2190984999761,None,636.0060939000687,None,right,0.3464092999929562,636.0060939000687,None,,,,,,,,,,,,,,,,,,,,,,,PPT41,001,2022-07-07_13h31.02.890,ABstudy,2022.1.4,59.922400514330924,
AB,Lag1_T1A_T2P,1,A,P,6,7,5,5,12,Ostrich,Did you see the Ostrich?,0.12,0.016,JPG\,thermometer02b,candle08b,comb02a,toothbrush03b,brick,computerkeyboard02,stapler05,pineapple01a,candy,birthdaycandle,clock04,hairclip03,blankImage,blankImage,blankImage,blankImage,blankImage,discoball,,,,,,,,,,,,0,91,91,232,,,,,,,,,,,,,,,,,,,,,,,,,,,,,,,,,,,636.3772718000691,637.3908171000658,637.3741974000586,637.9666342999553,637.9666342999553,None,639.445185199962,None,right,0.8514021000592038,639.445185199962,None,640.3270401000045,None,right,0.9775520000839606,640.3270401000045,None,,,,,,,,,,,,,,,,,,,,,,,PPT41,001,2022-07-07_13h31.02.890,ABstudy,2022.1.4,59.922400514330924,
AB,Lag1_T1P_T2P,1,P,P,8,9,7,4,13,dart board,Did you see the dart board?,0.12,0.016,JPG\,rice,watermelon01,tableknife02,scarf,computerkeyboard02,cauliflower01,battery02b,dartboard,stapler01,sandal,sponge01,microscope,tomato01,blankImage,blankImage,blankImage,blankImage,dartboard,,,,,,,,,,,,0,92,92,80,,,,,,,,,,,,,,,,,,,,,,,,,,,,,,,,,,,641.3306447999785,642.3457533000037,642.3123716999544,642.8894076000433,642.8894076000433,None,644.5251605999656,None,left,0.5078888999996707,644.5251605999656,None,645.065440800041,None,right,0.8074170999461785,645.065440800041,None,,,,,,,,,,,,,,,,,,,,,,,PPT41,001,2022-07-07_13h31.02.890,ABstudy,2022.1.4,59.922400514330924,
AB,Lag1_T1P_T2P,1,P,P,8,9,7,3,12,bridge,Did you see the bridge?,0.12,0.016,JPG\,speaker04,sewingmachine01a,eraser,violin,globe,belt02a,sunglasses04,bridge,stapler01,greenolive,alligator,pear01,blankImage,blankImage,blankImage,blankImage,blankImage,bridge,,,,,,,,,,,,0,93,93,78,,,,,,,,,,,,,,,,,,,,,,,,,,,,,,,,,,,645.9035896999994,646.9173334999941,646.9003855000483,647.4946608999744,647.4946608999744,None,649.0231995000504,None,left,1.2817044999683276,649.0231995000504,None,650.3370361999841,None,right,0.3196622000541538,650.3370361999841,None,,,,,,,,,,,,,,,,,,,,,,,PPT41,001,2022-07-07_13h31.02.890,ABstudy,2022.1.4,59.922400514330924,
AB,Lag1_T1P_T2P,1,P,P,8,9,7,3,12,Sheep,Did you see the Sheep?,0.12,0.016,JPG\,celery,orange,scissors01,balloon01b,avocado01,printer02,mushroom01,sheep,stapler03b,dice05a,ashtray01,fan,blankImage,blankImage,blankImage,blankImage,blankImage,sheep,,,,,,,,,,,,0,94,94,71,,,,,,,,,,,,,,,,,,,,,,,,,,,,,,,,,,,650.6899537000572,651.7052770999726,651.671807100065,652.2670349000255,652.2670349000255,None,653.7577607999556,None,left,0.6683006999082863,653.7577607999556,None,654.4580096000573,None,right,0.2310421000001952,654.4580096000573,None,,,,,,,,,,,,,,,,,,,,,,,PPT41,001,2022-07-07_13h31.02.890,ABstudy,2022.1.4,59.922400514330924,
AB,Lag1_T1A_T2P,1,A,P,8,9,7,5,14,Wolf,Did you see the Wolf?,0.12,0.016,JPG\,carrot01,watch02a,clock04,microscope,toiletpaper01a,potato02b,alligator,ring01,stapler03b,watermelon01,cd,pencil01,measuringcup01,balloon01b,blankImage,blankImage,blankImage,dreamcatcher,,,,,,,,,,,,0,95,95,253,,,,,,,,,,,,,,,,,,,,,,,,,,,,,,,,,,,654.7115269000642,655.7258806000464,655.692503200029,656.2837610000279,656.2837610000279,None,658.0898195999907,None,right,0.9031054000370204,658.0898195999907,None,659.0143602000317,None,right,1.0425247999373823,659.0143602000317,None,,,,,,,,,,,,,,,,,,,,,,,PPT41,001,2022-07-07_13h31.02.890,ABstudy,2022.1.4,59.922400514330924,
AB,Lag1_T1P_T2P,1,P,P,6,7,5,4,11,Bow,Did you see the Bow?,0.12,0.016,JPG\,broom01,plate01b,scissors01,garlic01a,paintbrush01,bow,stapler03a,shirt02,speaker04,celery,sandal,blankImage,blankImage,blankImage,blankImage,blankImage,blankImage,bow,,,,,,,,,,,,0,96,96,53,,,,,,,,,,,,,,,,,,,,,,,,,,,,,,,,,,,660.0848569000373,661.0979600000428,661.0812127999961,661.6573906999547,661.6573906999547,None,663.0354636000702,None,left,0.7089432999491692,663.0354636000702,None,663.7670566999586,None,right,0.28119420004077256,663.7670566999586,None,,,,,,,,,,,,,,,,,,,,,,,PPT41,001,2022-07-07_13h31.02.890,ABstudy,2022.1.4,59.922400514330924,
AB,Lag1_T1P_T2P,1,P,P,7,8,6,3,11,tree,Did you see the tree?,0.12,0.016,JPG\,pear01,clock01a,cymbal,match,ashtray01,globe,tree,stapler03b,lemon02,pen04b,dice05a,blankImage,blankImage,blankImage,blankImage,blankImage,blankImage,tree,,,,,,,,,,,,0,97,97,51,,,,,,,,,,,,,,,,,,,,,,,,,,,,,,,,,,,664.0696106000105,665.085112300003,665.051619600039,665.6266879000468,665.6266879000468,None,667.0216744999634,None,left,0.6918892000103369,667.0216744999634,None,667.7380333000328,None,right,0.3666953999781981,667.7380333000328,None,,,,,,,,,,,,,,,,,,,,,,,PPT41,001,2022-07-07_13h31.02.890,ABstudy,2022.1.4,59.922400514330924,
AB,Lag1_T1P_T2P,1,P,P,6,7,5,5,12,snowman,Did you see the snowman?,0.12,0.016,JPG\,comb02a,watch02a,scissors01,dice05a,tableknife02,snowman,stapler03a,printer02,dandelion,spoon01,ashtray01,battery02b,blankImage,blankImage,blankImage,blankImage,blankImage,snowman,,,,,,,,,,,,0,98,98,4,,,,,,,,,,,,,,,,,,,,,,,,,,,,,,,,,,,668.1257432999555,669.1389969000593,669.1222754999762,669.6978432000615,669.6978432000615,None,671.1786694000475,None,left,0.9502422999357805,671.1786694000475,None,672.161146700033,None,right,0.9762693999800831,672.161146700033,None,,,,,,,,,,,,,,,,,,,,,,,PPT41,001,2022-07-07_13h31.02.890,ABstudy,2022.1.4,59.922400514330924,
AB,Lag5_T1A_T2P,5,A,P,7,12,6,3,15,Car,Did you see the Car?,0.12,0.016,JPG\,lighter01,hammer01,spoon01,chain01,cymbal,sponge01,lipstick02a,alligator,pig,watermelon01,cauliflower01,stapler03b,broccoli01a,tableknife02,tennisball01b,blankImage,blankImage,wallclock,,,,,,,,,,,,0,99,99,277,,,,,,,,,,,,,,,,,,,,,,,,,,,,,,,,,,,673.1627606999828,674.177440600004,674.1441304000327,674.719930900028,674.719930900028,None,676.5869351000292,None,right,1.7655137999681756,676.5869351000292,None,678.3815529999556,None,right,0.5786033999174833,678.3815529999556,None,,,,,,,,,,,,,,,,,,,,,,,PPT41,001,2022-07-07_13h31.02.890,ABstudy,2022.1.4,59.922400514330924,
AB,Lag5_T1A_T2P,5,A,P,5,10,4,5,15,Sushi,Did you see the Sushi?,0.12,0.016,JPG\,pineapple01a,leaf02a,grape01,toiletpaper01a,match,tennisball01b,spoon01,chain01,pig,stapler04b,ring01,lemon02,dice05a,pizza,potato02b,blankImage,blankImage,crown,,,,,,,,,,,,0,100,100,285,,,,,,,,,,,,,,,,,,,,,,,,,,,,,,,,,,,678.9849707999965,679.9999622000614,679.9665556000546,680.5444187000394,680.5444187000394,None,682.3827342999866,None,right,1.1784110000589862,682.3827342999866,None,683.5871316000121,None,right,0.758097599959001,683.5871316000121,None,,,,,,,,,,,,,,,,,,,,,,,PPT41,001,2022-07-07_13h31.02.890,ABstudy,2022.1.4,59.922400514330924,
AB,Lag5_T1A_T2P,5,A,P,8,13,7,4,17,wrench,Did you see the wrench?,0.12,0.016,JPG\,clock01a,grape01,plate01b,key01,screwdriver04b,feather03a,pineapple01a,iron01b,toothbrush03b,comb02a,broom01,toaster01,stapler05,garlic01a,match,ashtray01,blankImage,seal,,,,,,,,,,,,0,101,101,272,,,,,,,,,,,,,,,,,,,,,,,,,,,,,,,,,,,684.4155414999695,685.4219321999699,685.4052650000667,685.9868906000629,685.9868906000629,None,687.9067469000584,None,left,0.5741268000565469,687.9067469000584,None,688.5083566000685,None,right,0.21228069998323917,688.5083566000685,None,,,,,,,,,,,,,,,,,,,,,,,PPT41,001,2022-07-07_13h31.02.890,ABstudy,2022.1.4,59.922400514330924,
AB,Lag5_T1P_T2P,5,P,P,8,13,7,3,16,parachute,Did you see the parachute?,0.12,0.016,JPG\,brick,plate01b,pen04b,toaster01,screwdriver04b,candle01,envelope03a,parachute,pig,ring01,orange,clock01a,stapler03b,calculator01,mushroom01,chain01,blankImage,parachute,,,,,,,,,,,,0,102,102,114,,,,,,,,,,,,,,,,,,,,,,,,,,,,,,,,,,,688.7447651000693,689.7596336000133,689.7262228999753,690.3103578999871,690.3103578999871,None,692.3288520000642,None,right,0.8796696999343112,692.3288520000642,None,693.2295989999548,None,right,0.7867823999840766,693.2295989999548,None,,,,,,,,,,,,,,,,,,,,,,,PPT41,001,2022-07-07_13h31.02.890,ABstudy,2022.1.4,59.922400514330924,
AB,Lag1_T1A_T2A,1,A,A,7,8,6,5,13,Poker chips,Did you see the Poker chips?,0.12,0.016,JPG\,violin,pizza,toothbrush03b,pineapple01a,banana01,ashtray01,candy,dandelion,clock04,sock01a,microscope,speaker04,calculator01,blankImage,blankImage,blankImage,blankImage,cigar,,,,,,,,,,,,0,103,103,289,,,,,,,,,,,,,,,,,,,,,,,,,,,,,,,,,,,694.0516898999922,695.0649140999885,695.0482216000091,695.6318162999814,695.6318162999814,None,697.2421028000535,None,right,0.7108742999844253,697.2421028000535,None,697.984194300021,None,right,0.30436559999361634,697.984194300021,None,,,,,,,,,,,,,,,,,,,,,,,PPT41,001,2022-07-07_13h31.02.890,ABstudy,2022.1.4,59.922400514330924,
AB,Lag5_T1P_T2A,5,P,A,5,10,4,3,13,Totem Pole,Did you see the Totem Pole?,0.12,0.016,JPG\,canoftennisballs,banana01,scissors01,pig,totempole,leaf02a,pear01,sponge01,fork03c,tableknife02,balloon01b,match,toothbrush03b,blankImage,blankImage,blankImage,blankImage,totempole,,,,,,,,,,,,0,104,104,202,,,,,,,,,,,,,,,,,,,,,,,,,,,,,,,,,,,698.3209736000281,699.3357862000121,699.3024276000215,699.8829187999945,699.8829187999945,None,701.4860424000071,None,left,0.5959142000647262,701.4860424000071,None,702.1052558000665,None,right,0.390997999929823,702.1052558000665,None,,,,,,,,,,,,,,,,,,,,,,,PPT41,001,2022-07-07_13h31.02.890,ABstudy,2022.1.4,59.922400514330924,
AB,Lag1_T1P_T2P,1,P,P,7,8,6,3,11,locker,Did you see the locker?,0.12,0.016,JPG\,toiletpaper01a,lipstick02a,potato02b,speaker04,globe,strawberry,locker,stapler04b,sock01a,candle08b,pen04b,blankImage,blankImage,blankImage,blankImage,blankImage,blankImage,locker,,,,,,,,,,,,0,105,105,19,,,,,,,,,,,,,,,,,,,,,,,,,,,,,,,,,,,702.5343565000221,703.5398001000285,703.5231119999662,704.1065602999879,704.1065602999879,None,705.4210512000136,None,left,2.4672607000684366,705.4210512000136,None,707.9113909000298,None,right,0.5293680999893695,707.9113909000298,None,,,,,,,,,,,,,,,,,,,,,,,PPT41,001,2022-07-07_13h31.02.890,ABstudy,2022.1.4,59.922400514330924,
AB,Lag5_T1P_T2P,5,P,P,8,13,7,4,17,cruise ship,Did you see the cruise ship?,0.12,0.016,JPG\,measuringcup01,dice05a,greenolive,lipstick02a,feather03a,balloon01b,lighter01,cruiseship,carrot01,plate01b,microscope,brick,stapler05,screw02,speaker04,spoon01,blankImage,cruiseship,,,,,,,,,,,,0,106,106,105,,,,,,,,,,,,,,,,,,,,,,,,,,,,,,,,,,,708.4684647000395,709.4796152999625,709.462966299965,710.0359167000279,710.0359167000279,None,712.0003376000095,None,left,0.5519793999847025,712.0003376000095,None,712.5822856000159,None,right,0.4580894000828266,712.5822856000159,None,,,,,,,,,,,,,,,,,,,,,,,PPT41,001,2022-07-07_13h31.02.890,ABstudy,2022.1.4,59.922400514330924,
AB,Lag1_T1P_T2P,1,P,P,7,8,6,4,12,cow,Did you see the cow?,0.12,0.016,JPG\,fork03c,plate01b,toiletpaper01a,greenolive,rice,blueberry01,cow,stapler01,envelope03a,orange,book01b,pencil01,blankImage,blankImage,blankImage,blankImage,blankImage,cow,,,,,,,,,,,,0,107,107,59,,,,,,,,,,,,,,,,,,,,,,,,,,,,,,,,,,,713.0686177000171,714.0837933999719,714.0503954000305,714.6180418999866,714.6180418999866,None,716.1133923999732,None,left,0.39934260002337396,716.1133923999732,None,716.5366410999559,None,left,0.17599059990607202,716.5366410999559,None,,,,,,,,,,,,,,,,,,,,,,,PPT41,001,2022-07-07_13h31.02.890,ABstudy,2022.1.4,59.922400514330924,
AB,Lag5_T1A_T2A,5,A,A,5,10,4,5,15,window,Did you see the window?,0.12,0.016,JPG\,leaf02a,apple07,cd,pineapple01a,envelope03a,paintbrush01,pig,canoftennisballs,rice,feather03a,lemon02,balloon01b,avocado01,calculator01,watermelon01,blankImage,blankImage,saxophone,,,,,,,,,,,,0,108,108,301,,,,,,,,,,,,,,,,,,,,,,,,,,,,,,,,,,,716.7405317999655,717.7541906000115,717.737547900062,718.3535938999848,718.3535938999848,None,720.1266978000058,None,right,0.8740004999563098,720.1266978000058,None,721.0244135999819,None,right,0.5203931999858469,721.0244135999819,None,,,,,,,,,,,,,,,,,,,,,,,PPT41,001,2022-07-07_13h31.02.890,ABstudy,2022.1.4,59.922400514330924,
AB,Lag5_T1P_T2P,5,P,P,6,11,5,3,14,wrench,Did you see the wrench?,0.12,0.016,JPG\,cherry01,cymbal,envelope03a,foosballtable,shirt02,stubbywrench01a,sewingmachine01a,candle08b,battery02b,apple07,stapler03b,screwdriver04b,strawberry,sunglasses04,blankImage,blankImage,blankImage,stubbywrench01a,,,,,,,,,,,,0,109,109,122,,,,,,,,,,,,,,,,,,,,,,,,,,,,,,,,,,,721.5776972000021,722.5925271000015,722.575761300046,723.2248305999674,723.1509180000285,None,724.8309486999642,None,left,0.5056409001117572,724.8309486999642,None,725.3619924000232,None,left,0.19833429995924234,725.3619924000232,None,,,,,,,,,,,,,,,,,,,,,,,PPT41,001,2022-07-07_13h31.02.890,ABstudy,2022.1.4,59.922400514330924,
AB,Lag1_T1P_T2A,1,P,A,7,8,6,3,11,Armadillo,Did you see the Armadillo?,0.12,0.016,JPG\,clock01a,cellphone,toaster01,toothbrush03b,cauliflower01,microscope,armadillo,paintbrush01,scarf,clock04,sponge01,blankImage,blankImage,blankImage,blankImage,blankImage,blankImage,armadillo,,,,,,,,,,,,0,110,110,180,,,,,,,,,,,,,,,,,,,,,,,,,,,,,,,,,,,725.5839183999924,726.5965214000316,726.5797261999687,727.1716029000236,727.1716029000236,None,728.52071479999,None,left,1.5451814000261948,728.52071479999,None,730.0830792000052,None,right,0.3267614000942558,730.0830792000052,None,,,,,,,,,,,,,,,,,,,,,,,PPT41,001,2022-07-07_13h31.02.890,ABstudy,2022.1.4,59.922400514330924,
AB,Lag1_T1P_T2P,1,P,P,8,9,7,3,12,apron,Did you see the apron?,0.12,0.016,JPG\,avocado01,tambourine02,match,cauliflower01,paintbrush01,clock01a,pig,apron,stapler03a,cellphone,watch02a,pear01,blankImage,blankImage,blankImage,blankImage,blankImage,apron,,,,,,,,,,,,0,111,111,32,,,,,,,,,,,,,,,,,,,,,,,,,,,,,,,,,,,730.4356848000316,731.4510880999733,731.4177069000434,732.0327288999688,732.0327288999688,None,733.4561179999728,None,left,0.8246233999961987,733.4561179999728,None,734.3039271000307,None,right,0.3128961999900639,734.3039271000307,None,,,,,,,,,,,,,,,,,,,,,,,PPT41,001,2022-07-07_13h31.02.890,ABstudy,2022.1.4,59.922400514330924,
AB,Lag1_T1A_T2P,1,A,P,8,9,7,5,14,calendar,Did you see the calendar?,0.12,0.016,JPG\,foosballtable,candy,envelope03a,microscope,pencil01,leaf02a,scissors01,watermelon01,stapler04b,dandelion,pineapple01a,hammer01,celery,thermometer02b,blankImage,blankImage,blankImage,trampoline,,,,,,,,,,,,0,112,112,245,,,,,,,,,,,,,,,,,,,,,,,,,,,,,,,,,,,734.6398215000518,735.6553060000297,735.6218626999762,736.1224372000434,736.1224372000434,None,737.9502571000485,None,right,2.0355353000340983,737.9502571000485,None,740.0095747000305,None,right,0.27105069998651743,740.0095747000305,None,,,,,,,,,,,,,,,,,,,,,,,PPT41,001,2022-07-07_13h31.02.890,ABstudy,2022.1.4,59.922400514330924,
AB,Lag5_T1P_T2P,5,P,P,7,12,6,5,17,tie,Did you see the tie?,0.12,0.016,JPG\,iron01b,orange,birthdaycandle,potato02b,cauliflower01,pencil01,tie02,candle08b,celery,tableknife02,pen04b,stapler06,ring01,rice,lemon02,tomato01,blankImage,tie02,,,,,,,,,,,,0,113,113,161,,,,,,,,,,,,,,,,,,,,,,,,,,,,,,,,,,,740.3122089999961,741.3276383000193,741.2942364000482,741.8994290999835,741.8994290999835,None,743.8834505999694,None,left,0.3333520001033321,743.8834505999694,None,744.2472128999652,None,left,0.14547620003577322,744.2472128999652,None,,,,,,,,,,,,,,,,,,,,,,,PPT41,001,2022-07-07_13h31.02.890,ABstudy,2022.1.4,59.922400514330924,
AB,Lag1_T1P_T2A,1,P,A,7,8,6,3,11,walkie talkie,Did you see the walkie talkie?,0.12,0.016,JPG\,teabag,envelope03a,cellphone,apple07,cauliflower01,orange,walkietalkie,book01b,hammer01,feather03a,toaster01,blankImage,blankImage,blankImage,blankImage,blankImage,blankImage,walkietalkie,,,,,,,,,,,,0,114,114,197,,,,,,,,,,,,,,,,,,,,,,,,,,,,,,,,,,,744.4213554000016,745.4318897000048,745.4151537000434,746.026757900021,746.026757900021,None,747.3805982000194,None,left,0.8274294999428093,747.3805982000194,None,748.2344447000651,None,right,0.8224075000034645,748.2344447000651,None,,,,,,,,,,,,,,,,,,,,,,,PPT41,001,2022-07-07_13h31.02.890,ABstudy,2022.1.4,59.922400514330924,
AB,Lag5_T1P_T2A,5,P,A,5,10,4,4,14,rocket,Did you see the rocket?,0.12,0.016,JPG\,fan,tomato01,candy,screwdriver04b,spacerocket,cd,thermometer02b,apple07,button01,plate01b,brownsugar,lighter01,clock01a,envelope03a,blankImage,blankImage,blankImage,spacerocket,,,,,,,,,,,,0,115,115,226,,,,,,,,,,,,,,,,,,,,,,,,,,,,,,,,,,,749.0878662000177,750.1030254999641,750.0696886000223,750.6501131999539,750.6501131999539,None,752.3919884000206,None,left,1.2408850999781862,752.3919884000206,None,753.6565497000702,None,right,0.23199739994015545,753.6565497000702,None,,,,,,,,,,,,,,,,,,,,,,,PPT41,001,2022-07-07_13h31.02.890,ABstudy,2022.1.4,59.922400514330924,
AB,Lag5_T1A_T2P,5,A,P,7,12,6,4,16,ear,Did you see the ear?,0.12,0.016,JPG\,candle01,shirt02,brick,orange,greenolive,toothbrush03b,pizza,thermometer02b,book01b,toiletpaper01a,sewingmachine01a,stapler01,candy,cymbal,potato02b,plate01b,blankImage,chair,,,,,,,,,,,,0,116,116,257,,,,,,,,,,,,,,,,,,,,,,,,,,,,,,,,,,,753.9091196999652,754.92507690005,754.8913420999888,755.4868930999655,755.4868930999655,None,757.3980925000506,None,right,0.794236799934879,757.3980925000506,None,758.2112677000696,None,right,0.925638800021261,758.2112677000696,None,,,,,,,,,,,,,,,,,,,,,,,PPT41,001,2022-07-07_13h31.02.890,ABstudy,2022.1.4,59.922400514330924,
AB,Lag1_T1P_T2A,1,P,A,8,9,7,5,14,Sausage,Did you see the Sausage?,0.12,0.016,JPG\,pencil01,broccoli01a,button01,sponge01,watermelon01,lipstick02a,comb02a,sausage,lighter01,sock01a,spoon01,blueberry01,belt02a,onion,blankImage,blankImage,blankImage,sausage,,,,,,,,,,,,0,117,117,175,,,,,,,,,,,,,,,,,,,,,,,,,,,,,,,,,,,759.1733723999932,760.1804359999951,760.164694200037,760.7442734000506,760.7442734000506,None,762.4784426999977,None,left,0.6421238000039011,762.4784426999977,None,763.1491243999917,None,right,0.30053140001837164,763.1491243999917,None,,,,,,,,,,,,,,,,,,,,,,,PPT41,001,2022-07-07_13h31.02.890,ABstudy,2022.1.4,59.922400514330924,
AB,Lag1_T1P_T2P,1,P,P,8,9,7,4,13,peacock,Did you see the peacock?,0.12,0.016,JPG\,hammer01,sponge01,toaster01,cherry01,feather03a,mushroom01,measuringcup01,peacock,stapler03a,brick,clock04,medal02b,teabag,blankImage,blankImage,blankImage,blankImage,peacock,,,,,,,,,,,,0,118,118,68,,,,,,,,,,,,,,,,,,,,,,,,,,,,,,,,,,,763.4715198000195,764.4841007000068,764.4674199000001,765.0560482000001,765.0560482000001,None,766.655833399971,None,left,0.9282044999999925,766.655833399971,None,767.605037100031,None,right,2.2591946999309584,767.605037100031,None,,,,,,,,,,,,,,,,,,,,,,,PPT41,001,2022-07-07_13h31.02.890,ABstudy,2022.1.4,59.922400514330924,
AB,Lag5_T1P_T2P,5,P,P,8,13,7,4,17,trumpet,Did you see the trumpet?,0.12,0.016,JPG\,toaster01,scarf,toiletpaper01a,calculator01,violin,sewingmachine01a,fan,trumpet,strawberry,balloon01b,brownsugar,eraser,stapler01,rice,ring01,shirt02,blankImage,trumpet,,,,,,,,,,,,0,119,119,145,,,,,,,,,,,,,,,,,,,,,,,,,,,,,,,,,,,769.9013951000525,770.9077922999859,770.8921833999921,771.4916675999993,771.4916675999993,None,773.4528937999858,None,left,0.499004999990575,773.4528937999858,None,773.9774832000257,None,left,0.3428624999942258,773.9774832000257,None,,,,,,,,,,,,,,,,,,,,,,,PPT41,001,2022-07-07_13h31.02.890,ABstudy,2022.1.4,59.922400514330924,
AB,Lag5_T1P_T2A,5,P,A,5,10,4,3,13,cork,Did you see the cork?,0.12,0.016,JPG\,clock01a,grape01,plate01b,key01,cork02,feather03a,pineapple01a,iron01b,toothbrush03b,comb02a,broom01,toaster01,pizza,blankImage,blankImage,blankImage,blankImage,cork02,,,,,,,,,,,,0,120,120,209,,,,,,,,,,,,,,,,,,,,,,,,,,,,,,,,,,,774.3466373999836,775.3614678999875,775.3280972000211,775.9128250000067,775.9128250000067,None,777.5175401000306,None,right,1.6031271000392735,777.5175401000306,None,779.1486074000131,None,right,0.324027800001204,779.1486074000131,None,,,,,,,,,,,,,,,,,,,,,,,PPT41,001,2022-07-07_13h31.02.890,ABstudy,2022.1.4,59.922400514330924,
AB,Lag1_T1A_T2P,1,A,P,8,9,7,4,13,Fireplace,Did you see the Fireplace?,0.12,0.016,JPG\,scissors01,ashtray01,garlic01a,medal02b,cigarette,candle08b,leaf02a,envelope03a,stapler06,rice,toiletpaper01a,greenolive,cymbal,blankImage,blankImage,blankImage,blankImage,dartboard,,,,,,,,,,,,0,121,121,252,,,,,,,,,,,,,,,,,,,,,,,,,,,,,,,,,,,779.5025831999956,780.516736599966,780.4999938000692,781.1307166999904,781.0609434000216,None,782.5739033999853,None,right,1.0986002000281587,782.5739033999853,None,783.703346000053,None,left,0.3529174999566749,783.703346000053,None,,,,,,,,,,,,,,,,,,,,,,,PPT41,001,2022-07-07_13h31.02.890,ABstudy,2022.1.4,59.922400514330924,
AB,Lag1_T1P_T2P,1,P,P,7,8,6,3,11,compass,Did you see the compass?,0.12,0.016,JPG\,brick,plate01b,pen04b,toaster01,screwdriver04b,candle01,magneticcompass,stapler03a,pig,ring01,orange,blankImage,blankImage,blankImage,blankImage,blankImage,blankImage,magneticcompass,,,,,,,,,,,,0,122,122,66,,,,,,,,,,,,,,,,,,,,,,,,,,,,,,,,,,,784.0922915000701,785.1047301000217,785.0879512999672,785.6826766000595,785.6826766000595,None,787.0820780000649,None,right,1.0307045000372455,787.0820780000649,None,788.1408329000697,None,right,2.0833469999488443,788.1408329000697,None,,,,,,,,,,,,,,,,,,,,,,,PPT41,001,2022-07-07_13h31.02.890,ABstudy,2022.1.4,59.922400514330924,
AB,Lag5_T1P_T2P,5,P,P,8,13,7,5,18,popcorn,Did you see the popcorn?,0.12,0.016,JPG\,toaster01,garlic01a,hairclip03,fan,comb02a,apple07,orange,popcorn,onion,blueberry01,toiletpaper01a,fork03c,stapler06,pineapple01a,scarf,eraser,blankImage,popcorn,,,,,,,,,,,,0,123,123,155,,,,,,,,,,,,,,,,,,,,,,,,,,,,,,,,,,,790.2463786000153,791.2606699999887,791.2273329000454,791.8162498000311,791.8162498000311,None,793.7591548999771,None,left,0.5055822000140324,793.7591548999771,None,794.2970069999574,None,left,0.19167339999694377,794.2970069999574,None,,,,,,,,,,,,,,,,,,,,,,,PPT41,001,2022-07-07_13h31.02.890,ABstudy,2022.1.4,59.922400514330924,
AB,Lag5_T1P_T2P,5,P,P,8,13,7,4,17,surf board,Did you see the surf board?,0.12,0.016,JPG\,candy,brownsugar,dice05a,cd,sock01a,blueberry01,button01,surfboard,feather03a,grape01,dandelion,scissors01,stapler03b,candle08b,book01b,globe,blankImage,surfboard,,,,,,,,,,,,0,124,124,142,,,,,,,,,,,,,,,,,,,,,,,,,,,,,,,,,,,794.5160788999638,795.5315615000436,795.4982054999564,796.070157899987,796.070157899987,None,798.1021646000445,None,left,0.37808639998547733,798.1021646000445,None,798.5014960999833,None,left,0.21063819993287325,798.5014960999833,None,,,,,,,,,,,,,,,,,,,,,,,PPT41,001,2022-07-07_13h31.02.890,ABstudy,2022.1.4,59.922400514330924,
AB,Lag1_T1A_T2P,1,A,P,6,7,5,5,12,Piano,Did you see the Piano?,0.12,0.016,JPG\,toiletpaper01a,mushroom01,medal02b,sandal,rice,cd,stapler01,pizza,candle08b,garlic01a,toaster01,belt02a,blankImage,blankImage,blankImage,blankImage,blankImage,moose,,,,,,,,,,,,0,125,125,239,,,,,,,,,,,,,,,,,,,,,,,,,,,,,,,,,,,798.7398554000538,799.7526089999592,799.7359280000674,800.3280490000034,800.3280490000034,None,801.7670049000299,None,right,1.6745977000100538,801.7670049000299,None,803.4731630999595,None,left,0.4073825000086799,803.4731630999595,None,,,,,,,,,,,,,,,,,,,,,,,PPT41,001,2022-07-07_13h31.02.890,ABstudy,2022.1.4,59.922400514330924,
AB,Lag5_T1P_T2P,5,P,P,5,10,4,3,13,Jellyfish,Did you see the Jellyfish?,0.12,0.016,JPG\,printer02,envelope03a,potato02b,calculator01,jellyfish,cigarette,ashtray01,pig,broom01,stapler06,candle08b,battery02b,strawberry,blankImage,blankImage,blankImage,blankImage,jellyfish,,,,,,,,,,,,0,126,126,91,,,,,,,,,,,,,,,,,,,,,,,,,,,,,,,,,,,803.9099311999744,804.9245535000227,804.9076860999921,805.548611999955,805.4661835000152,None,807.1416023999918,None,right,1.1793938999762759,807.1416023999918,None,808.3446941999719,None,right,0.5350418000016361,808.3446941999719,None,,,,,,,,,,,,,,,,,,,,,,,PPT41,001,2022-07-07_13h31.02.890,ABstudy,2022.1.4,59.922400514330924,
AB,Lag5_T1P_T2P,5,P,P,6,11,5,5,16,sword,Did you see the sword?,0.12,0.016,JPG\,chain01,speaker04,avocado01,watermelon01,scarf,sword01,lamp04a,fork03c,toaster01,slipper03b,stapler03a,cucumber,teabag,ashtray01,computerkeyboard02,book01b,blankImage,sword01,,,,,,,,,,,,0,127,127,143,,,,,,,,,,,,,,,,,,,,,,,,,,,,,,,,,,,808.9151263000676,809.9295061000157,809.9130412000231,810.4871803000569,810.4871803000569,None,812.4316849999595,None,left,0.9368387999711558,812.4316849999595,None,813.399600100005,None,left,1.0808982000453398,813.399600100005,None,,,,,,,,,,,,,,,,,,,,,,,PPT41,001,2022-07-07_13h31.02.890,ABstudy,2022.1.4,59.922400514330924,
AB,Lag5_T1P_T2P,5,P,P,5,10,4,5,15,Ipad,Did you see the Ipad?,0.12,0.016,JPG\,fork03c,toothbrush03b,cellphone,fan,ipad02,clock01a,ring01,eraser,sunglasses04,stapler06,violin,brownsugar,blueberry01,pear01,pencil01,blankImage,blankImage,ipad02,,,,,,,,,,,,0,128,128,150,,,,,,,,,,,,,,,,,,,,,,,,,,,,,,,,,,,814.5085238000611,815.5182985999854,815.5017070999602,816.0841952000046,816.0841952000046,None,817.9175410000607,None,left,0.6023531999671832,817.9175410000607,None,818.5387138000224,None,right,0.2131168000632897,818.5387138000224,None,,,,,,,,,,,,,,,,,,,,,,,PPT41,001,2022-07-07_13h31.02.890,ABstudy,2022.1.4,59.922400514330924,
AB,Lag5_T1P_T2A,5,P,A,6,11,5,4,15,Spear,Did you see the Spear?,0.12,0.016,JPG\,belt02a,measuringcup01,spoon01,chain01,greenolive,spear02,computerkeyboard02,onion,fan,strawberry,candle01,broom01,binoculars01b,ashtray01,pingpongpaddle01c,blankImage,blankImage,spear02,,,,,,,,,,,,0,129,129,227,,,,,,,,,,,,,,,,,,,,,,,,,,,,,,,,,,,818.7759724999778,819.7893920000643,819.7726184000494,820.3375577999977,820.3375577999977,None,822.1944969999604,None,left,1.3492818000959232,822.1944969999604,None,823.5763825000031,None,right,0.40006380004342645,823.5763825000031,None,,,,,,,,,,,,,,,,,,,,,,,PPT41,001,2022-07-07_13h31.02.890,ABstudy,2022.1.4,59.922400514330924,
AB,Lag1_T1P_T2P,1,P,P,7,8,6,5,13,arrow,Did you see the arrow?,0.12,0.016,JPG\,pencil01,broccoli01a,button01,sponge01,watermelon01,lipstick02a,arrow02,stapler04b,lighter01,sock01a,spoon01,blueberry01,belt02a,blankImage,blankImage,blankImage,blankImage,arrow02,,,,,,,,,,,,0,130,130,76,,,,,,,,,,,,,,,,,,,,,,,,,,,,,,,,,,,823.9972436999669,825.0110727000283,824.9943960000528,825.5694408999989,825.5694408999989,None,827.1542997000506,None,left,1.0786485000280663,827.1542997000506,None,828.2641663000686,None,right,0.7837058999575675,828.2641663000686,None,,,,,,,,,,,,,,,,,,,,,,,PPT41,001,2022-07-07_13h31.02.890,ABstudy,2022.1.4,59.922400514330924,
AB,Lag1_T1A_T2A,1,A,A,8,9,7,3,12,punching bag,Did you see the punching bag?,0.12,0.016,JPG\,key01,apple07,ring01,leaf02a,hammer01,tableknife02,violin,sponge01,baseball01a,thermometer02b,celery,calculator01,blankImage,blankImage,blankImage,blankImage,blankImage,bathtub,,,,,,,,,,,,0,131,131,291,,,,,,,,,,,,,,,,,,,,,,,,,,,,,,,,,,,829.0684759999858,830.0826116000535,830.0492524000583,830.6251673999941,830.6251673999941,None,832.1405135999667,None,right,1.3800402000779286,832.1405135999667,None,833.5530525000067,None,right,0.6785202999599278,833.5530525000067,None,,,,,,,,,,,,,,,,,,,,,,,PPT41,001,2022-07-07_13h31.02.890,ABstudy,2022.1.4,59.922400514330924,
AB,Lag1_T1P_T2A,1,P,A,5,6,4,4,10,bird,Did you see the bird?,0.12,0.016,JPG\,toaster01,scarf,toiletpaper01a,calculator01,swallow,sewingmachine01a,fan,teabag,strawberry,balloon01b,blankImage,blankImage,blankImage,blankImage,blankImage,blankImage,blankImage,swallow,,,,,,,,,,,,0,132,132,195,,,,,,,,,,,,,,,,,,,,,,,,,,,,,,,,,,,834.2549115000293,835.2549861000152,835.239263299969,835.8435382000171,835.8435382000171,None,837.1715600000462,None,left,0.6684002999681979,837.1715600000462,None,837.857014499954,None,right,0.4709652999881655,837.857014499954,None,,,,,,,,,,,,,,,,,,,,,,,PPT41,001,2022-07-07_13h31.02.890,ABstudy,2022.1.4,59.922400514330924,
AB,Lag5_T1P_T2P,5,P,P,6,11,5,5,16,scooter,Did you see the scooter?,0.12,0.016,JPG\,thermometer02b,candle08b,comb02a,toothbrush03b,brick,scooter,key01,pineapple01a,candy,birthdaycandle,stapler04b,canoftennisballs,teabag,medal02b,balloon01b,banana01,blankImage,scooter,,,,,,,,,,,,0,133,133,118,,,,,,,,,,,,,,,,,,,,,,,,,,,,,,,,,,,838.3610596000217,839.3755025999853,839.3589487000136,839.9301565999631,839.9301565999631,None,841.9229960000375,None,left,0.9819550999673083,841.9229960000375,None,842.928718399955,None,right,0.2713549000909552,842.928718399955,None,,,,,,,,,,,,,,,,,,,,,,,PPT41,001,2022-07-07_13h31.02.890,ABstudy,2022.1.4,59.922400514330924,
AB,Lag1_T1A_T2P,1,A,P,5,6,4,3,9,Crown,Did you see the Crown?,0.12,0.016,JPG\,leaf02a,pear01,measuringcup01,cigarette,fan,stapler04b,teabag,tableknife02,ring01,blankImage,blankImage,blankImage,blankImage,blankImage,blankImage,blankImage,blankImage,arrow02,,,,,,,,,,,,0,134,134,248,,,,,,,,,,,,,,,,,,,,,,,,,,,,,,,,,,,843.2314745000331,844.2467329000356,844.2133553000167,844.8017061999999,844.8017061999999,None,845.9428216000088,None,right,1.0330425000283867,845.9428216000088,None,846.9998530000448,None,left,0.23992840002756566,846.9998530000448,None,,,,,,,,,,,,,,,,,,,,,,,PPT41,001,2022-07-07_13h31.02.890,ABstudy,2022.1.4,59.922400514330924,
AB,Lag1_T1P_T2A,1,P,A,5,6,4,5,11,Sailboat,Did you see the Sailboat?,0.12,0.016,JPG\,chain01,speaker04,avocado01,watermelon01,sailboat,comb02a,lamp04a,fork03c,toaster01,slipper03b,scissors01,blankImage,blankImage,blankImage,blankImage,blankImage,blankImage,sailboat,,,,,,,,,,,,0,135,135,193,,,,,,,,,,,,,,,,,,,,,,,,,,,,,,,,,,,847.2719524999848,848.2842412999598,848.2675623999676,848.8572463999735,848.8572463999735,None,850.190210300032,None,left,1.4183231999631971,850.190210300032,None,851.6378108999925,None,right,0.7538193999789655,851.6378108999925,None,,,,,,,,,,,,,,,,,,,,,,,PPT41,001,2022-07-07_13h31.02.890,ABstudy,2022.1.4,59.922400514330924,
AB,Lag1_T1P_T2P,1,P,P,5,6,4,5,11,Basketball,Did you see the Basketball?,0.12,0.016,JPG\,pencil01,microscope,banana01,computerkeyboard02,basketball01,stapler04b,scissors01,sock01a,book01b,onion,dice05a,blankImage,blankImage,blankImage,blankImage,blankImage,blankImage,basketball01,,,,,,,,,,,,0,136,136,34,,,,,,,,,,,,,,,,,,,,,,,,,,,,,,,,,,,852.4272764000343,853.439038499957,853.4228026999626,853.9899205999682,853.9899205999682,None,855.3680827000644,None,left,0.3918889999622479,855.3680827000644,None,855.7939869000111,None,left,0.16633299994282424,855.7939869000111,None,,,,,,,,,,,,,,,,,,,,,,,PPT41,001,2022-07-07_13h31.02.890,ABstudy,2022.1.4,59.922400514330924,
