TrialType,CondType,Lag,T1_PA,T2_PA,T1Loc,T2Loc,PreDistractor,PostDistractor,TotalImg,cueWord,T1cue,StimLength,isi,PicFolder,Img1,Img2,Img3,Img4,Img5,Img6,Img7,Img8,Img9,Img10,Img11,Img12,Img13,Img14,Img15,Img16,Img17,T1_Identity,ImageType,T1PA,T2PA,Picture,Image,FullPathName,FilePath,Practice_Trials.thisRepN,Practice_Trials.thisTrialN,Practice_Trials.thisN,Practice_Trials.thisIndex,trials.thisRepN,trials.thisTrialN,trials.thisN,trials.thisIndex,trials_2.thisRepN,trials_2.thisTrialN,trials_2.thisN,trials_2.thisIndex,Practice_Ins.started,Practice_Ins.stopped,End_Prac_Ins.keys,End_Prac_Ins.rt,End_Prac_Ins.started,End_Prac_Ins.stopped,text_2.started,text_2.stopped,Fixation_Cross_2.started,Fixation_Cross_2.stopped,Rapid_Image_Present_2.started,Rapid_Image_Present_2.stopped,key_resp.keys,key_resp.rt,key_resp.started,key_resp.stopped,T1Response_2.started,T1Response_2.stopped,T2Response_2.started,T2Response_2.stopped,key_resp_4.keys,key_resp_4.rt,key_resp_4.started,key_resp_4.stopped,text.started,text.stopped,End_Instructions.keys,End_Instructions.rt,End_Instructions.started,End_Instructions.stopped,text_5.started,text_5.stopped,FC.started,FC.stopped,Rapid_Image_Present.started,Rapid_Image_Present.stopped,T1Response.started,T1Response.stopped,key_resp_2.keys,key_resp_2.rt,key_resp_2.started,key_resp_2.stopped,T2Response.started,T2Response.stopped,key_resp_3.keys,key_resp_3.rt,key_resp_3.started,key_resp_3.stopped,text_6.started,text_6.stopped,Fin_ins.keys,Fin_ins.rt,Fin_ins.started,Fin_ins.stopped,MemTest.started,MemTest.stopped,MemResponse.keys,MemResponse.rt,MemResponse.started,MemResponse.stopped,Display.started,Display.stopped,text_7.started,text_7.stopped,endOfExperiment.started,endOfExperiment.stopped,key_resp_5.keys,key_resp_5.rt,key_resp_5.started,key_resp_5.stopped,participant,session,date,expName,psychopyVersion,frameRate,
,,,,,,,,,,,,,,,,,,,,,,,,,,,,,,,,,,,,,,,,,,,,,,,,,,,,17.243972199968994,None,space,51.99278630001936,17.243972199968994,None,,,,,,,,,,,,,,,,,,,,,,,,,,,,,,,,,,,,,,,,,,,,,,,,,,,,,,,,,,,,,,,,,PPT48,001,2022-07-11_13h59.46.198,ABstudy,2022.1.4,59.90613908582004,
AB_Prac,Lag5_T1P_T2A,5,P,A,6,11,5,5,16,Wheat,Did you see the Wheat?,0.5,0.016,JPG\,bottleopener01,dentalfloss03b,cooler01,icecreamcone01a,paperclip01b,wheat,pencilsharpener02a,plasticbasket01a,toycar04,apricot,hairclip02,rock01a,honeydewmelon,antenna,blackberry,cardboardbox,blankImage,wheat,,,,,,,,0,0,0,7,,,,,,,,,,,,,,,69.31347659998573,70.32381029997487,70.30739620001987,70.94444619992282,70.94444619992282,None,right,1.7912480999948457,79.00527859991416,None,79.00527859991416,None,80.81749049993232,None,right,0.9620960999745876,80.81749049993232,None,,,,,,,,,,,,,,,,,,,,,,,,,,,,,,,,,,,,,,,,,,,,,,,PPT48,001,2022-07-11_13h59.46.198,ABstudy,2022.1.4,59.90613908582004,
AB_Prac,Lag1_T1P_T2P,1,P,P,8,9,7,5,14,Tennis racket,Did you see the Tennis racket?,0.5,0.016,JPG\,coconut,computermouse06,croissant01,deodorant02a,pillow01a,peanut01,boot02b,tennisracket,stapler03b,crayon,eggplant,marker01a,plant01,radish01,blankImage,blankImage,blankImage,tennisracket,,,,,,,,0,1,1,0,,,,,,,,,,,,,,,81.8102813999867,82.81939570000395,82.80266859999392,83.43283369997516,83.43283369997516,None,left,2.0558908000821248,90.42029029992409,None,90.42029029992409,None,92.4960618999321,None,left,0.8768905999604613,92.4960618999321,None,,,,,,,,,,,,,,,,,,,,,,,,,,,,,,,,,,,,,,,,,,,,,,,PPT48,001,2022-07-11_13h59.46.198,ABstudy,2022.1.4,59.90613908582004,
AB_Prac,Lag5_T1A_T2A,5,A,A,6,11,5,5,16,castle,Did you see the castle?,0.5,0.016,JPG\,tape02a,englishmuffin,flask,ladle02a,monitor,peach01,keychain,squeegee01b,telephone01b,whisk,walkman,syringe02,baguette01,coaster,box01a,coffeepot03a,blankImage,None,,,,,,,,0,2,2,11,,,,,,,,,,,,,,,93.40299749991391,94.41477259993553,94.39911889994983,95.00968879996799,95.00968879996799,None,right,0.8478095000609756,103.01985019992571,None,103.01985019992571,None,103.89065999991726,None,right,0.5864690000889823,103.89065999991726,None,,,,,,,,,,,,,,,,,,,,,,,,,,,,,,,,,,,,,,,,,,,,,,,PPT48,001,2022-07-11_13h59.46.198,ABstudy,2022.1.4,59.90613908582004,
AB_Prac,Lag1_T1P_T2P,1,P,P,6,7,5,5,12,triangle,Did you see the triangle?,0.5,0.016,JPG\,ginger,mousetrap,plum01,slipper01b,dropper01,triangle,stapler04b,pants,raspberry01,rope03,scale01a,vase01,blankImage,blankImage,blankImage,blankImage,blankImage,triangle,,,,,,,,0,3,3,1,,,,,,,,,,,,,,,104.58962510002311,105.59193739993498,105.57526049995795,106.16477229993325,106.16477229993325,None,left,0.9127125999657437,112.09894459997304,None,112.09894459997304,None,113.03297900001053,None,left,0.6515818999614567,113.03297900001053,None,,,,,,,,,,,,,,,,,,,,,,,,,,,,,,,,,,,,,,,,,,,,,,,PPT48,001,2022-07-11_13h59.46.198,ABstudy,2022.1.4,59.90613908582004,
AB_Prac,Lag5_T1P_T2P,5,P,P,5,10,4,5,15,Vulture,Did you see the Vulture?,0.5,0.016,JPG\,shorts01,toast,ramekin01,bib,vulture,cracker02,date,glasses01a,hat03b,stapler01,measuringtape01,nail,pill,drum01,starfish01,blankImage,blankImage,vulture,,,,,,,,0,4,4,3,,,,,,,,,,,,,,,113.72354809998069,114.73464389995206,114.71782179991715,115.32106480002403,115.32106480002403,None,left,0.8221519999206066,122.86998959991615,None,122.86998959991615,None,123.71147989993915,None,left,0.7325046999612823,123.71147989993915,None,,,,,,,,,,,,,,,,,,,,,,,,,,,,,,,,,,,,,,,,,,,,,,,PPT48,001,2022-07-11_13h59.46.198,ABstudy,2022.1.4,59.90613908582004,
AB_Prac,Lag1_T1P_T2A,1,P,A,8,9,7,5,14,flower,Did you see the flower?,0.5,0.016,JPG\,razor01,axe01,binder03b,bowl01,kettle01,lettuce,lime,plasticflower01b,mitten04,pencilcase01,plunger02,strawbasket01,toothpick02,wallet02a,blankImage,blankImage,blankImage,plasticflower01b,,,,,,,,0,5,5,5,,,,,,,,,,,,,,,124.46715439995751,125.47857389994897,125.46179720002692,126.04087099991739,126.04087099991739,None,left,0.9202110000187531,133.1002197000198,None,133.1002197000198,None,134.03680549992714,None,right,0.9916200999869034,134.03680549992714,None,,,,,,,,,,,,,,,,,,,,,,,,,,,,,,,,,,,,,,,,,,,,,,,PPT48,001,2022-07-11_13h59.46.198,ABstudy,2022.1.4,59.90613908582004,
AB_Prac,Lag5_T1P_T2P,5,P,P,5,10,4,5,15,washing machine,Did you see the washing machine?,0.5,0.016,JPG\,waterbottle03,wheel01,flashlight02b,zucchini01,washingmachine,headphones02b,nutcracker01,paintroller01,paperclip03,stapler06,ribbon04,electricrazor,bottleofredwine01,pitabread,pot02a,blankImage,blankImage,washingmachine,,,,,,,,0,6,6,4,,,,,,,,,,,,,,,135.0583644999424,136.0724603999406,136.05573729996104,136.63769599993248,136.63769599993248,None,left,0.8250552000245079,144.2992065999424,None,144.2992065999424,None,145.1483352999203,None,left,0.7197438000002876,145.1483352999203,None,,,,,,,,,,,,,,,,,,,,,,,,,,,,,,,,,,,,,,,,,,,,,,,PPT48,001,2022-07-11_13h59.46.198,ABstudy,2022.1.4,59.90613908582004,
AB_Prac,Lag5_T1P_T2A,5,P,A,6,11,5,5,16,bread,Did you see the bread?,0.5,0.016,JPG\,cleaver01,clipboard,dustpan,hikingshoe01,notebook03a,baguette01,playingcard,pliers02b,styrofoamcup,rollingpin01a,swimgoggles,wineglass01,fryingpan02a,safetypin,syringe01,thimble,blankImage,baguette01,,,,,,,,0,7,7,8,,,,,,,,,,,,,,,145.91083009995054,146.91650970000774,146.88310580002144,147.46078710001893,147.46078710001893,None,left,0.7103803000645712,155.46929659997113,None,155.46929659997113,None,156.20931870001368,None,right,0.506824899930507,156.20931870001368,None,,,,,,,,,,,,,,,,,,,,,,,,,,,,,,,,,,,,,,,,,,,,,,,PPT48,001,2022-07-11_13h59.46.198,ABstudy,2022.1.4,59.90613908582004,
AB_Prac,Lag5_T1A_T2P,5,A,P,6,11,5,3,14,dog,Did you see the dog?,0.5,0.016,JPG\,bucket01a,doorlock,cookiecutter,fireextinguisher01,gluestick,highlighter02b,sportbag,spraybottle01,suitcase,thread02,stapler05,walnut01c,icecubetray01a,vikingmask01b,blankImage,blankImage,blankImage,None,,,,,,,,0,8,8,9,,,,,,,,,,,,,,,156.74631009995937,157.7607027000049,157.72732009994797,158.3466331999516,158.3466331999516,None,right,1.246668600011617,165.3573056999594,None,165.3573056999594,None,166.63590679992922,None,left,1.056115899933502,166.63590679992922,None,,,,,,,,,,,,,,,,,,,,,,,,,,,,,,,,,,,,,,,,,,,,,,,PPT48,001,2022-07-11_13h59.46.198,ABstudy,2022.1.4,59.90613908582004,
AB_Prac,Lag5_T1P_T2P,5,P,P,7,12,6,3,15,vacuum,Did you see the vacuum?,0.5,0.016,JPG\,fork07b,lightbulb01,manshoe,saw02b,shoelace,soap03a,vacuumcleaner01,floortile01,necklace,doll,cabbage,stapler03a,hanger02a,laptop01a,nailpolish03b,blankImage,blankImage,vacuumcleaner01,,,,,,,,0,9,9,2,,,,,,,,,,,,,,,167.7250152999768,168.7380555999698,168.7214181999443,169.29563499998767,169.29563499998767,None,left,0.6352364999474958,176.9045353999827,None,176.9045353999827,None,177.5635427000234,None,left,0.5369397000176832,177.5635427000234,None,,,,,,,,,,,,,,,,,,,,,,,,,,,,,,,,,,,,,,,,,,,,,,,PPT48,001,2022-07-11_13h59.46.198,ABstudy,2022.1.4,59.90613908582004,
AB_Prac,Lag1_T1A_T2A,1,A,A,8,9,7,3,12,Moose,Did you see the Moose?,0.5,0.016,JPG\,clothespin03b,corkscrew03a,drillbit03a,fusilli03a,needlenosepliers01,perfume01a,pistachio,scrubbingbrush05b,spatula03,toothpastetube,hinge,toydinosaur,blankImage,blankImage,blankImage,blankImage,blankImage,None,,,,,,,,0,10,10,10,,,,,,,,,,,,,,,178.1369750999147,179.14848759991582,179.13178669998888,179.72674529999495,179.72674529999495,None,right,0.9083593999966979,185.7355064000003,None,185.7355064000003,None,186.67310529993847,None,right,0.5385044000577182,186.67310529993847,None,,,,,,,,,,,,,,,,,,,,,,,,,,,,,,,,,,,,,,,,,,,,,,,PPT48,001,2022-07-11_13h59.46.198,ABstudy,2022.1.4,59.90613908582004,
AB_Prac,Lag1_T1P_T2A,1,P,A,5,6,4,5,11,Webcam,Did you see the Webcam?,0.5,0.016,JPG\,pictureframe04,binder03b,straw,adjustablewrench01b,webcam,cane,hairdryer02a,icepack,kitchenscale01a,lifejacket,piggybank,blankImage,blankImage,blankImage,blankImage,blankImage,blankImage,webcam,,,,,,,,0,11,11,6,,,,,,,,,,,,,,,187.24635309993755,188.25844339991454,188.24299529998098,188.9112820000155,188.82948339998256,None,left,1.044083199929446,194.42405989998952,None,194.42405989998952,None,195.498594100005,None,right,0.5852559999329969,195.498594100005,None,,,,,,,,,,,,,,,,,,,,,,,,,,,,,,,,,,,,,,,,,,,,,,,PPT48,001,2022-07-11_13h59.46.198,ABstudy,2022.1.4,59.90613908582004,
,,,,,,,,,,,,,,,,,,,,,,,,,,,,,,,,,,,,,,,,,,,,,,,,,,,,,,,,,,,,,,,,,,,,,,,,,,,,196.11688200000208,None,space,24.83069139998406,196.11688200000208,None,,,,,,,,,,,,,,,,,,,,,,,,,,,,,,,,,,,,,,,,,PPT48,001,2022-07-11_13h59.46.198,ABstudy,2022.1.4,59.90613908582004,
AB,Lag1_T1P_T2A,1,P,A,5,6,4,4,10,paper airplane,Did you see the paper airplane?,0.12,0.016,JPG\,thermometer02b,avocado01,scissors01,tennisball01b,paperairplane,banana01,strawberry,cigarette,potato02b,pineapple01a,blankImage,blankImage,blankImage,blankImage,blankImage,blankImage,blankImage,paperairplane,,,,,,,,,,,,0,0,0,191,,,,,,,,,,,,,,,,,,,,,,,,,,,,,,,,,,,221.62853069999255,222.64196289994288,222.62537679995876,223.23372359992936,223.23372359992936,None,224.47648059995845,None,right,5.1511547999689355,224.47648059995845,None,229.64994579995982,None,right,1.1132304000202566,229.64994579995982,None,,,,,,,,,,,,,,,,,,,,,,,PPT48,001,2022-07-11_13h59.46.198,ABstudy,2022.1.4,59.90613908582004,
AB,Lag1_T1P_T2P,1,P,P,5,6,4,5,11,football,Did you see the football?,0.12,0.016,JPG\,globe,belt02a,sponge01,violin,soccerball,stapler01,clock01a,microscope,balloon01b,scarf,teabag,blankImage,blankImage,blankImage,blankImage,blankImage,blankImage,soccerball,,,,,,,,,,,,0,1,1,26,,,,,,,,,,,,,,,,,,,,,,,,,,,,,,,,,,,230.78787639993243,231.8009620999219,231.7842431999743,232.37246749992482,232.37246749992482,None,233.6970616999315,None,left,0.7303872000193223,233.6970616999315,None,234.4538480999181,None,left,0.44542600004933774,234.4538480999181,None,,,,,,,,,,,,,,,,,,,,,,,PPT48,001,2022-07-11_13h59.46.198,ABstudy,2022.1.4,59.90613908582004,
AB,Lag1_T1P_T2P,1,P,P,7,8,6,5,13,school bus,Did you see the school bus?,0.12,0.016,JPG\,aceofdiamond,banana01,scissors01,pig,shirt02,leaf02a,schoolbus,stapler05,fork03c,tableknife02,balloon01b,match,toothbrush03b,blankImage,blankImage,blankImage,blankImage,schoolbus,,,,,,,,,,,,0,2,2,24,,,,,,,,,,,,,,,,,,,,,,,,,,,,,,,,,,,234.92707969993353,235.9392138000112,235.92363530001603,236.57100350002293,236.57100350002293,None,238.09729499998502,None,left,1.0181498000165448,238.09729499998502,None,239.14147629996296,None,right,0.40562929993029684,239.14147629996296,None,,,,,,,,,,,,,,,,,,,,,,,PPT48,001,2022-07-11_13h59.46.198,ABstudy,2022.1.4,59.90613908582004,
AB,Lag1_T1A_T2P,1,A,P,5,6,4,3,9,barrel,Did you see the barrel?,0.12,0.016,JPG\,clock01a,cellphone,toaster01,toothbrush03b,cauliflower01,stapler01,comb02a,paintbrush01,scarf,blankImage,blankImage,blankImage,blankImage,blankImage,blankImage,blankImage,blankImage,sheep,,,,,,,,,,,,0,3,3,243,,,,,,,,,,,,,,,,,,,,,,,,,,,,,,,,,,,239.62196559994482,240.62654600001406,240.60981789999641,241.21369200001936,241.21369200001936,None,242.2976253000088,None,right,1.0269042999716476,242.2976253000088,None,243.3456941000186,None,left,0.3856536999810487,243.3456941000186,None,,,,,,,,,,,,,,,,,,,,,,,PPT48,001,2022-07-11_13h59.46.198,ABstudy,2022.1.4,59.90613908582004,
AB,Lag1_T1A_T2P,1,A,P,8,9,7,3,12,elbow,Did you see the elbow?,0.12,0.016,JPG\,watermelon01,cigarette,faucet,cymbal,cauliflower01,feather03a,cherry01,broom01,stapler01,key01,baseball01a,iron01b,blankImage,blankImage,blankImage,blankImage,blankImage,cashregister01,,,,,,,,,,,,0,4,4,251,,,,,,,,,,,,,,,,,,,,,,,,,,,,,,,,,,,243.76532250002492,244.78050270001404,244.74713419994805,245.34612000000197,245.34612000000197,None,246.78539620002266,None,right,1.298831499996595,246.78539620002266,None,248.11480400001165,None,right,0.40937380003742874,248.11480400001165,None,,,,,,,,,,,,,,,,,,,,,,,PPT48,001,2022-07-11_13h59.46.198,ABstudy,2022.1.4,59.90613908582004,
AB,Lag1_T1A_T2P,1,A,P,7,8,6,3,11,lion,Did you see the lion?,0.12,0.016,JPG\,sock01a,spoon01,alligator,comb02a,printer02,medal02b,lamp04a,stapler01,greenolive,computerkeyboard02,cauliflower01,blankImage,blankImage,blankImage,blankImage,blankImage,blankImage,bullet,,,,,,,,,,,,0,5,5,229,,,,,,,,,,,,,,,,,,,,,,,,,,,,,,,,,,,248.60269999993034,249.60211859992705,249.60211859992705,250.17642409994733,250.17642409994733,None,251.51434370002244,None,right,1.2021454999921843,251.51434370002244,None,252.7390406000195,None,left,0.416253799921833,252.7390406000195,None,,,,,,,,,,,,,,,,,,,,,,,PPT48,001,2022-07-11_13h59.46.198,ABstudy,2022.1.4,59.90613908582004,
AB,Lag5_T1A_T2P,5,A,P,7,12,6,5,17,funnel,Did you see the funnel?,0.12,0.016,JPG\,iron01b,orange,birthdaycandle,potato02b,cauliflower01,pencil01,key01,candle08b,celery,tableknife02,pen04b,stapler04b,ring01,rice,lemon02,tomato01,blankImage,englishcucumber,,,,,,,,,,,,0,6,6,259,,,,,,,,,,,,,,,,,,,,,,,,,,,,,,,,,,,253.1764164000051,254.190053600003,254.1733421999961,254.76245669997297,254.76245669997297,None,256.696455599973,None,right,1.042848699958995,256.696455599973,None,257.7600517999381,None,right,0.4605239999946207,257.7600517999381,None,,,,,,,,,,,,,,,,,,,,,,,PPT48,001,2022-07-11_13h59.46.198,ABstudy,2022.1.4,59.90613908582004,
AB,Lag5_T1P_T2P,5,P,P,6,11,5,5,16,keys,Did you see the keys?,0.12,0.016,JPG\,toiletpaper01a,mushroom01,medal02b,sandal,rice,foldingchair,feather03a,pizza,candle08b,garlic01a,stapler01,belt02a,cigarette,violin,lemon02,fork03c,blankImage,foldingchair,,,,,,,,,,,,0,7,7,125,,,,,,,,,,,,,,,,,,,,,,,,,,,,,,,,,,,258.32369619992096,259.32886379992124,259.3131513999542,259.9170004000189,259.9170004000189,None,261.7726203999482,None,right,0.8625980999786407,261.7726203999482,None,262.6652016999433,None,left,0.35477880004327744,262.6652016999433,None,,,,,,,,,,,,,,,,,,,,,,,PPT48,001,2022-07-11_13h59.46.198,ABstudy,2022.1.4,59.90613908582004,
AB,Lag1_T1A_T2P,1,A,P,6,7,5,5,12,Treadmill,Did you see the Treadmill?,0.12,0.016,JPG\,pencil01,broccoli01a,button01,sponge01,watermelon01,lipstick02a,stapler04b,fan,lighter01,sock01a,spoon01,blueberry01,blankImage,blankImage,blankImage,blankImage,blankImage,magneticcompass,,,,,,,,,,,,0,8,8,238,,,,,,,,,,,,,,,,,,,,,,,,,,,,,,,,,,,263.0528687000042,264.06653319997713,264.0497666000156,264.64703559991904,264.64703559991904,None,266.0806232999312,None,right,1.8105367000680417,266.0806232999312,None,267.9200961999595,None,left,0.39551689999643713,267.9200961999595,None,,,,,,,,,,,,,,,,,,,,,,,PPT48,001,2022-07-11_13h59.46.198,ABstudy,2022.1.4,59.90613908582004,
AB,Lag5_T1P_T2A,5,P,A,7,12,6,5,17,corn,Did you see the corn?,0.12,0.016,JPG\,avocado01,pingpongpaddle01c,match,cauliflower01,paintbrush01,clock01a,corn02,cd,balloon01b,cellphone,watch02a,pear01,toaster01,sponge01,orange,blueberry01,blankImage,corn02,,,,,,,,,,,,0,9,9,210,,,,,,,,,,,,,,,,,,,,,,,,,,,,,,,,,,,268.40475979994517,269.40473009995185,269.39040879998356,270.06966659997124,269.98909349995665,None,271.8341518000234,None,left,0.9860921000363305,271.8341518000234,None,272.84204429993406,None,left,0.4093678999925032,272.84204429993406,None,,,,,,,,,,,,,,,,,,,,,,,PPT48,001,2022-07-11_13h59.46.198,ABstudy,2022.1.4,59.90613908582004,
AB,Lag5_T1A_T2P,5,A,P,6,11,5,3,14,keys,Did you see the keys?,0.12,0.016,JPG\,pencil01,microscope,banana01,computerkeyboard02,celery,cellphone,scissors01,sock01a,book01b,onion,stapler03a,binoculars01b,baseball01a,iron01b,blankImage,blankImage,blankImage,treadmill,,,,,,,,,,,,0,10,10,275,,,,,,,,,,,,,,,,,,,,,,,,,,,,,,,,,,,273.27928169991355,274.2933958999347,274.2766125999624,274.9040696999291,274.83637739997357,None,276.5686270999722,None,right,1.1628111000172794,276.5686270999722,None,277.7635660999222,None,right,0.3677866000216454,277.7635660999222,None,,,,,,,,,,,,,,,,,,,,,,,PPT48,001,2022-07-11_13h59.46.198,ABstudy,2022.1.4,59.90613908582004,
AB,Lag1_T1P_T2A,1,P,A,7,8,6,5,13,Well,Did you see the Well?,0.12,0.016,JPG\,leaf02a,apple07,cd,pineapple01a,envelope03a,paintbrush01,well,acorn,rice,feather03a,lemon02,balloon01b,avocado01,blankImage,blankImage,blankImage,blankImage,well,,,,,,,,,,,,0,11,11,178,,,,,,,,,,,,,,,,,,,,,,,,,,,,,,,,,,,278.24357099994086,279.2483792999992,279.23155449994374,279.9565018999856,279.8639645000221,None,281.3344270000234,None,left,1.2293047000421211,281.3344270000234,None,282.58512599999085,None,left,0.6987900999374688,282.58512599999085,None,,,,,,,,,,,,,,,,,,,,,,,PPT48,001,2022-07-11_13h59.46.198,ABstudy,2022.1.4,59.90613908582004,
AB,Lag1_T1P_T2P,1,P,P,6,7,5,5,12,snowman,Did you see the snowman?,0.12,0.016,JPG\,comb02a,watch02a,scissors01,dice05a,tableknife02,snowman,stapler03a,printer02,dandelion,spoon01,ashtray01,battery02b,blankImage,blankImage,blankImage,blankImage,blankImage,snowman,,,,,,,,,,,,0,12,12,4,,,,,,,,,,,,,,,,,,,,,,,,,,,,,,,,,,,283.30633990000933,284.320062499959,284.30326979991514,284.885245100013,284.885245100013,None,286.4217815999873,None,left,0.6063120999606326,286.4217815999873,None,287.0558565999381,None,left,0.3481606999412179,287.0558565999381,None,,,,,,,,,,,,,,,,,,,,,,,PPT48,001,2022-07-11_13h59.46.198,ABstudy,2022.1.4,59.90613908582004,
AB,Lag1_T1P_T2P,1,P,P,6,7,5,5,12,exit sign,Did you see the exit sign?,0.12,0.016,JPG\,printer02,envelope03a,potato02b,calculator01,tableknife02,exitsign,stapler01,pig,broom01,greenolive,candle08b,battery02b,blankImage,blankImage,blankImage,blankImage,blankImage,exitsign,,,,,,,,,,,,0,13,13,41,,,,,,,,,,,,,,,,,,,,,,,,,,,,,,,,,,,287.4285360999638,288.44093579996843,288.42425199993886,289.01813039998524,289.01813039998524,None,290.45362809998915,None,left,0.7896428999956697,290.45362809998915,None,291.2613363999408,None,left,3.0301037000026554,291.2613363999408,None,,,,,,,,,,,,,,,,,,,,,,,PPT48,001,2022-07-11_13h59.46.198,ABstudy,2022.1.4,59.90613908582004,
AB,Lag1_T1A_T2P,1,A,P,5,6,4,3,9,Crown,Did you see the Crown?,0.12,0.016,JPG\,leaf02a,pear01,measuringcup01,cigarette,fan,stapler04b,teabag,tableknife02,ring01,blankImage,blankImage,blankImage,blankImage,blankImage,blankImage,blankImage,blankImage,arrow02,,,,,,,,,,,,0,14,14,248,,,,,,,,,,,,,,,,,,,,,,,,,,,,,,,,,,,294.32080079999287,295.3310811999254,295.3144378999714,295.89683530002367,295.89683530002367,None,297.00087460002396,None,right,1.442980399937369,297.00087460002396,None,298.46719959995244,None,right,0.577466000104323,298.46719959995244,None,,,,,,,,,,,,,,,,,,,,,,,PPT48,001,2022-07-11_13h59.46.198,ABstudy,2022.1.4,59.90613908582004,
AB,Lag5_T1P_T2P,5,P,P,7,12,6,4,16,window,Did you see the window?,0.12,0.016,JPG\,cigarette,pig,banana01,strawberry,clock01a,plate01b,dormer,blueberry01,battery02b,pineapple01a,chain01,stapler01,candy,pen04b,teabag,birthdaycandle,blankImage,dormer,,,,,,,,,,,,0,15,15,170,,,,,,,,,,,,,,,,,,,,,,,,,,,,,,,,,,,299.0700601999415,300.08551489992533,300.0521523000207,300.63415099994745,300.63415099994745,None,302.5053341999883,None,right,4.146180499927141,302.5053341999883,None,306.67571330000646,None,right,0.5197610999457538,306.67571330000646,None,,,,,,,,,,,,,,,,,,,,,,,PPT48,001,2022-07-11_13h59.46.198,ABstudy,2022.1.4,59.90613908582004,
AB,Lag5_T1P_T2P,5,P,P,8,13,7,5,18,spice rack,Did you see the spice rack?,0.12,0.016,JPG\,lamp04a,broccoli01a,alligator,garlic01a,dandelion,brownsugar,avocado01,spicerack,leaf02a,cellphone,medal02b,cd,stapler05,sunglasses04,strawberry,eraser,blankImage,spicerack,,,,,,,,,,,,0,16,16,140,,,,,,,,,,,,,,,,,,,,,,,,,,,,,,,,,,,307.2735228999518,308.27810659992974,308.2626787999179,308.9616393999895,308.8809326000046,None,310.7397451000288,None,left,0.7834032999817282,310.7397451000288,None,311.54694699996617,None,left,0.38489940005820245,311.54694699996617,None,,,,,,,,,,,,,,,,,,,,,,,PPT48,001,2022-07-11_13h59.46.198,ABstudy,2022.1.4,59.90613908582004,
AB,Lag1_T1P_T2A,1,P,A,7,8,6,4,12,gorilla,Did you see the gorilla?,0.12,0.016,JPG\,scissors01,ashtray01,garlic01a,medal02b,cigarette,candle08b,gorilla,envelope03a,cucumber,rice,toiletpaper01a,greenolive,blankImage,blankImage,blankImage,blankImage,blankImage,gorilla,,,,,,,,,,,,0,17,17,189,,,,,,,,,,,,,,,,,,,,,,,,,,,,,,,,,,,311.9662758000195,312.9817166000139,312.94837539992295,313.5329633000074,313.5329633000074,None,315.0827683999669,None,left,0.848690600018017,315.0827683999669,None,315.9518965999596,None,right,0.4992973000044003,315.9518965999596,None,,,,,,,,,,,,,,,,,,,,,,,PPT48,001,2022-07-11_13h59.46.198,ABstudy,2022.1.4,59.90613908582004,
AB,Lag5_T1A_T2P,5,A,P,5,10,4,3,13,flower,Did you see the flower?,0.12,0.016,JPG\,cucumber,ring01,lipstick02a,microscope,violin,garlic01a,celery,lighter01,cherry01,stapler03a,belt02a,key01,binoculars01b,blankImage,blankImage,blankImage,blankImage,christmastree,,,,,,,,,,,,0,18,18,284,,,,,,,,,,,,,,,,,,,,,,,,,,,,,,,,,,,316.47254440002143,317.48641050001606,317.4695724999765,318.0659376999829,318.0659376999829,None,319.62574239994865,None,right,1.0490780000109226,319.62574239994865,None,320.7062995999586,None,left,0.37672509998083115,320.7062995999586,None,,,,,,,,,,,,,,,,,,,,,,,PPT48,001,2022-07-11_13h59.46.198,ABstudy,2022.1.4,59.90613908582004,
AB,Lag5_T1P_T2P,5,P,P,5,10,4,4,14,License Plate,Did you see the License Plate?,0.12,0.016,JPG\,toaster01,chain01,sponge01,baseball01a,licenseplate,belt02a,book01b,iron01b,grape01,stapler06,celery,onion,mushroom01,toothbrush03b,blankImage,blankImage,blankImage,licenseplate,,,,,,,,,,,,0,19,19,120,,,,,,,,,,,,,,,,,,,,,,,,,,,,,,,,,,,321.11892859998625,322.124441199936,322.09116179996636,322.7188184999395,322.7188184999395,None,324.4733809999889,None,left,0.5381468000123277,324.4733809999889,None,325.0442000000039,None,left,0.31111599993892014,325.0442000000039,None,,,,,,,,,,,,,,,,,,,,,,,PPT48,001,2022-07-11_13h59.46.198,ABstudy,2022.1.4,59.90613908582004,
AB,Lag5_T1P_T2P,5,P,P,7,12,6,5,17,tie,Did you see the tie?,0.12,0.016,JPG\,iron01b,orange,birthdaycandle,potato02b,cauliflower01,pencil01,tie02,candle08b,celery,tableknife02,pen04b,stapler06,ring01,rice,lemon02,tomato01,blankImage,tie02,,,,,,,,,,,,0,20,20,161,,,,,,,,,,,,,,,,,,,,,,,,,,,,,,,,,,,325.3819045999553,326.3951987000182,326.3786963999737,327.0809442999307,326.98528219992295,None,328.8950856999727,None,left,1.1403894999530166,328.8950856999727,None,330.06562809995376,None,right,0.8261553000193089,330.06562809995376,None,,,,,,,,,,,,,,,,,,,,,,,PPT48,001,2022-07-11_13h59.46.198,ABstudy,2022.1.4,59.90613908582004,
AB,Lag1_T1P_T2P,1,P,P,5,6,4,5,11,golf ball,Did you see the golf ball?,0.12,0.016,JPG\,foosballtable,cigarette,pen04b,birthdaycandle,golfball,stapler05,binoculars01b,chain01,potato02b,cauliflower01,paintbrush01,blankImage,blankImage,blankImage,blankImage,blankImage,blankImage,golfball,,,,,,,,,,,,0,21,21,13,,,,,,,,,,,,,,,,,,,,,,,,,,,,,,,,,,,330.9216763000004,331.9341261999216,331.91735909995623,332.41913860000204,332.41913860000204,None,333.87242859997787,None,left,0.9072083999635652,333.87242859997787,None,334.8037584000267,None,right,0.40743010002188385,334.8037584000267,None,,,,,,,,,,,,,,,,,,,,,,,PPT48,001,2022-07-11_13h59.46.198,ABstudy,2022.1.4,59.90613908582004,
AB,Lag1_T1P_T2P,1,P,P,5,6,4,5,11,shark,Did you see the shark?,0.12,0.016,JPG\,cucumber,sponge01,alligator,pear01,greatwhiteshark,stapler06,clock04,battery02b,fork03c,binoculars01b,mushroom01,blankImage,blankImage,blankImage,blankImage,blankImage,blankImage,greatwhiteshark,,,,,,,,,,,,0,22,22,84,,,,,,,,,,,,,,,,,,,,,,,,,,,,,,,,,,,335.23982279992197,336.2551688000094,336.2218070999952,336.79853229993023,336.79853229993023,None,338.1864578999812,None,left,0.6171116000041366,338.1864578999812,None,338.82444290001877,None,left,0.36309199989773333,338.82444290001877,None,,,,,,,,,,,,,,,,,,,,,,,PPT48,001,2022-07-11_13h59.46.198,ABstudy,2022.1.4,59.90613908582004,
AB,Lag1_T1P_T2P,1,P,P,5,6,4,3,9,dolphin,Did you see the dolphin?,0.12,0.016,JPG\,pig,belt02a,rice,screwdriver04b,dolphin01,stapler05,candle08b,pear01,feather03a,blankImage,blankImage,blankImage,blankImage,blankImage,blankImage,blankImage,blankImage,dolphin01,,,,,,,,,,,,0,23,23,10,,,,,,,,,,,,,,,,,,,,,,,,,,,,,,,,,,,339.26808299997356,340.2765344999498,340.26109199994244,340.77778030000627,340.7614830000093,None,341.9025200000033,None,left,0.64574339997489,341.9025200000033,None,342.58089059998747,None,left,0.36656029999721795,342.58089059998747,None,,,,,,,,,,,,,,,,,,,,,,,PPT48,001,2022-07-11_13h59.46.198,ABstudy,2022.1.4,59.90613908582004,
AB,Lag1_T1A_T2P,1,A,P,6,7,5,5,12,Ostrich,Did you see the Ostrich?,0.12,0.016,JPG\,thermometer02b,candle08b,comb02a,toothbrush03b,brick,computerkeyboard02,stapler05,pineapple01a,candy,birthdaycandle,clock04,hairclip03,blankImage,blankImage,blankImage,blankImage,blankImage,discoball,,,,,,,,,,,,0,24,24,232,,,,,,,,,,,,,,,,,,,,,,,,,,,,,,,,,,,342.99213219992816,343.99593759991694,343.9792645999696,344.55560580000747,344.55560580000747,None,346.03964239999186,None,right,0.8924507999327034,346.03964239999186,None,346.94932060001884,None,right,0.46977909991983324,346.94932060001884,None,,,,,,,,,,,,,,,,,,,,,,,PPT48,001,2022-07-11_13h59.46.198,ABstudy,2022.1.4,59.90613908582004,
AB,Lag1_T1P_T2P,1,P,P,8,9,7,3,12,bridge,Did you see the bridge?,0.12,0.016,JPG\,speaker04,sewingmachine01a,eraser,violin,globe,belt02a,sunglasses04,bridge,stapler01,greenolive,alligator,pear01,blankImage,blankImage,blankImage,blankImage,blankImage,bridge,,,,,,,,,,,,0,25,25,78,,,,,,,,,,,,,,,,,,,,,,,,,,,,,,,,,,,347.45400659996085,348.4672386000166,348.4504906999646,349.0414353000233,349.0414353000233,None,350.5207588999765,None,left,0.6426430999999866,350.5207588999765,None,351.18633529997896,None,left,0.36901520006358624,351.18633529997896,None,,,,,,,,,,,,,,,,,,,,,,,PPT48,001,2022-07-11_13h59.46.198,ABstudy,2022.1.4,59.90613908582004,
AB,Lag1_T1P_T2P,1,P,P,8,9,7,5,14,helicopter,Did you see the helicopter?,0.12,0.016,JPG\,broom01,globe,cellphone,tableknife02,cauliflower01,scissors01,ring01,helicopter,stapler01,toaster01,cigarette,grape01,microscope,cucumber,blankImage,blankImage,blankImage,helicopter,,,,,,,,,,,,0,26,26,85,,,,,,,,,,,,,,,,,,,,,,,,,,,,,,,,,,,351.5956896999851,352.60479210002813,352.5885701000225,353.170373299974,353.170373299974,None,354.87064079998527,None,left,0.6200972000369802,354.87064079998527,None,355.5073571000248,None,left,0.3434503999305889,355.5073571000248,None,,,,,,,,,,,,,,,,,,,,,,,PPT48,001,2022-07-11_13h59.46.198,ABstudy,2022.1.4,59.90613908582004,
AB,Lag1_T1P_T2P,1,P,P,8,9,7,3,12,snow globe,Did you see the Snow globe?,0.12,0.016,JPG\,eraser,measuringcup01,chain01,birthdaycandle,ring01,rice,8ball,stapler04b,stapler01,celery,microscope,sunglasses04,blankImage,blankImage,blankImage,blankImage,blankImage,snowglobe,,,,,,,,,,,,0,27,27,56,,,,,,,,,,,,,,,,,,,,,,,,,,,,,,,,,,,355.8785537999356,356.89205799996853,356.8753427999327,357.4495020000031,357.4495020000031,None,358.922945600003,None,right,1.3204916999675333,358.922945600003,None,360.26248859998304,None,left,0.4124023999320343,360.26248859998304,None,,,,,,,,,,,,,,,,,,,,,,,PPT48,001,2022-07-11_13h59.46.198,ABstudy,2022.1.4,59.90613908582004,
AB,Lag5_T1A_T2P,5,A,P,7,12,6,4,16,ear,Did you see the ear?,0.12,0.016,JPG\,candle01,shirt02,brick,orange,greenolive,toothbrush03b,pizza,thermometer02b,book01b,toiletpaper01a,sewingmachine01a,stapler01,candy,cymbal,potato02b,plate01b,blankImage,chair,,,,,,,,,,,,0,28,28,257,,,,,,,,,,,,,,,,,,,,,,,,,,,,,,,,,,,360.73133590002544,361.7305178999668,361.7305178999668,362.2870775000192,362.2870775000192,None,364.19353769999,None,right,0.9698415999300778,364.19353769999,None,365.1839905999368,None,left,0.3550228000385687,365.1839905999368,None,,,,,,,,,,,,,,,,,,,,,,,PPT48,001,2022-07-11_13h59.46.198,ABstudy,2022.1.4,59.90613908582004,
AB,Lag1_T1P_T2P,1,P,P,5,6,4,5,11,owl,Did you see the owl?,0.12,0.016,JPG\,cellphone,tomato01,comb02a,candy,barnowl,stapler03a,toaster01,fan,feather03a,pen04b,lemon02,blankImage,blankImage,blankImage,blankImage,blankImage,blankImage,barnowl,,,,,,,,,,,,0,29,29,33,,,,,,,,,,,,,,,,,,,,,,,,,,,,,,,,,,,365.56778019992635,366.5687347999774,366.55179609998595,367.11774979997426,367.11774979997426,None,368.49068809999153,None,left,1.512855099979788,368.49068809999153,None,370.02229509991594,None,left,1.3726044999202713,370.02229509991594,None,,,,,,,,,,,,,,,,,,,,,,,PPT48,001,2022-07-11_13h59.46.198,ABstudy,2022.1.4,59.90613908582004,
AB,Lag5_T1P_T2A,5,P,A,5,10,4,3,13,fan,Did you see the fan?,0.12,0.016,JPG\,scissors01,grape01,mushroom01,toiletpaper01a,fanheater,pizza,cigarette,ashtray01,carrot01,pineapple01a,foosballtable,lipstick02a,teabag,blankImage,blankImage,blankImage,blankImage,fanheater,,,,,,,,,,,,0,30,30,220,,,,,,,,,,,,,,,,,,,,,,,,,,,,,,,,,,,371.4253902999917,372.42484200000763,372.40984310000204,373.07740790001117,373.00705769995693,None,374.57027459994424,None,left,0.9450148000614718,374.57027459994424,None,375.5442090999568,None,right,0.41166600002907217,375.5442090999568,None,,,,,,,,,,,,,,,,,,,,,,,PPT48,001,2022-07-11_13h59.46.198,ABstudy,2022.1.4,59.90613908582004,
AB,Lag5_T1P_T2P,5,P,P,5,10,4,5,15,rake,Did you see the rake?,0.12,0.016,JPG\,scissors01,grape01,mushroom01,toiletpaper01a,leafrake,pizza,cigarette,ashtray01,carrot01,stapler03b,foosballtable,lipstick02a,teabag,acorn,potato02b,blankImage,blankImage,leafrake,,,,,,,,,,,,0,31,31,92,,,,,,,,,,,,,,,,,,,,,,,,,,,,,,,,,,,375.987483899924,376.9954036999261,376.9787240999285,377.54841189994477,377.54841189994477,None,379.44871199992485,None,left,0.7229178000707179,379.44871199992485,None,380.1989962999942,None,right,0.3796106999507174,380.1989962999942,None,,,,,,,,,,,,,,,,,,,,,,,PPT48,001,2022-07-11_13h59.46.198,ABstudy,2022.1.4,59.90613908582004,
AB,Lag1_T1P_T2P,1,P,P,8,9,7,3,12,Sheep,Did you see the Sheep?,0.12,0.016,JPG\,celery,orange,scissors01,balloon01b,avocado01,printer02,mushroom01,sheep,stapler03b,dice05a,ashtray01,fan,blankImage,blankImage,blankImage,blankImage,blankImage,sheep,,,,,,,,,,,,0,32,32,71,,,,,,,,,,,,,,,,,,,,,,,,,,,,,,,,,,,380.6523411999224,381.6669479999691,381.650226800004,382.2408734000055,382.2408734000055,None,383.6433499000268,None,left,0.8637881999602541,383.6433499000268,None,384.536612899974,None,left,0.32252749998588115,384.536612899974,None,,,,,,,,,,,,,,,,,,,,,,,PPT48,001,2022-07-11_13h59.46.198,ABstudy,2022.1.4,59.90613908582004,
AB,Lag5_T1P_T2P,5,P,P,7,12,6,3,15,Eye patch,Did you see the Eye patch?,0.12,0.016,JPG\,candle01,paintbrush01,scissors01,fan,microscope,toothbrush03b,eyepatch,watermelon01,teabag,pencil01,lemon02,stapler05,shirt02,cauliflower01,cd,blankImage,blankImage,eyepatch,,,,,,,,,,,,0,33,33,108,,,,,,,,,,,,,,,,,,,,,,,,,,,,,,,,,,,384.8970966999186,385.9041132000275,385.88965179992374,386.5281016000081,386.45486139995046,None,388.38405989995226,None,left,0.7953966000350192,388.38405989995226,None,389.2079861999955,None,left,0.3713038000278175,389.2079861999955,None,,,,,,,,,,,,,,,,,,,,,,,PPT48,001,2022-07-11_13h59.46.198,ABstudy,2022.1.4,59.90613908582004,
AB,Lag1_T1P_T2A,1,P,A,5,6,4,5,11,Electric toothbrush,Did you see the Electric toothbrush?,0.12,0.016,JPG\,carrot01,greenolive,fork03c,chain01,electrictoothbrush01c,watermelon01,tableknife02,printer02,comb02a,toaster01,orange,blankImage,blankImage,blankImage,blankImage,blankImage,blankImage,electrictoothbrush01c,,,,,,,,,,,,0,34,34,186,,,,,,,,,,,,,,,,,,,,,,,,,,,,,,,,,,,389.61481719999574,390.6257023999933,390.608991599991,391.19547739997506,391.19547739997506,None,392.5713108999189,None,left,1.055565300048329,392.5713108999189,None,393.64510239998344,None,right,0.3267232000362128,393.64510239998344,None,,,,,,,,,,,,,,,,,,,,,,,PPT48,001,2022-07-11_13h59.46.198,ABstudy,2022.1.4,59.90613908582004,
AB,Lag5_T1P_T2P,5,P,P,5,10,4,3,13,Rabbit,Did you see the Rabbit?,0.12,0.016,JPG\,celery,tennisball01b,calculator01,pear01,jackrabbit,orange,button01,cellphone,onion,stapler06,iron01b,brownsugar,banana01,blankImage,blankImage,blankImage,blankImage,jackrabbit,,,,,,,,,,,,0,35,35,90,,,,,,,,,,,,,,,,,,,,,,,,,,,,,,,,,,,393.99885580001865,394.9975435999222,394.9819633999141,395.59505260002334,395.59505260002334,None,397.13342139997985,None,left,0.6292721000500023,397.13342139997985,None,397.78276809991803,None,left,0.3879676000215113,397.78276809991803,None,,,,,,,,,,,,,,,,,,,,,,,PPT48,001,2022-07-11_13h59.46.198,ABstudy,2022.1.4,59.90613908582004,
AB,Lag5_T1P_T2P,5,P,P,8,13,7,3,16,shrimp,Did you see the shrimp?,0.12,0.016,JPG\,globe,belt02a,sponge01,violin,fork03c,tomato01,clock01a,cocktailshrimp02,balloon01b,scarf,teabag,pen04b,stapler03a,brownsugar,speaker04,screwdriver04b,blankImage,cocktailshrimp02,,,,,,,,,,,,0,36,36,169,,,,,,,,,,,,,,,,,,,,,,,,,,,,,,,,,,,398.2032315999968,399.2175833999645,399.1841662999941,399.7566969000036,399.7566969000036,None,401.70336749998387,None,right,0.9476477999705821,401.70336749998387,None,402.6712315999903,None,left,0.8277903000125661,402.6712315999903,None,,,,,,,,,,,,,,,,,,,,,,,PPT48,001,2022-07-11_13h59.46.198,ABstudy,2022.1.4,59.90613908582004,
AB,Lag5_T1A_T2A,5,A,A,7,12,6,3,15,Christmas lights,Did you see the Christmas lights?,0.12,0.016,JPG\,toiletpaper01a,mushroom01,medal02b,sandal,rice,cd,feather03a,pizza,candle08b,garlic01a,toaster01,belt02a,cigarette,violin,lemon02,blankImage,blankImage,rockbass,,,,,,,,,,,,0,37,37,299,,,,,,,,,,,,,,,,,,,,,,,,,,,,,,,,,,,403.57287889998406,404.5731114000082,404.55639129993506,405.14664910000283,405.14664910000283,None,406.9422036999604,None,right,0.7886771999765188,406.9422036999604,None,407.7593246999895,None,right,0.3794917999766767,407.7593246999895,None,,,,,,,,,,,,,,,,,,,,,,,PPT48,001,2022-07-11_13h59.46.198,ABstudy,2022.1.4,59.90613908582004,
AB,Lag5_T1P_T2P,5,P,P,5,10,4,3,13,lollipop,Did you see the lollipop?,0.12,0.016,JPG\,brownsugar,candle01,match,printer02,lollipop04,balloon01b,belt02a,potato02b,computerkeyboard02,stapler03a,rice,mushroom01,pencil01,blankImage,blankImage,blankImage,blankImage,lollipop04,,,,,,,,,,,,0,38,38,112,,,,,,,,,,,,,,,,,,,,,,,,,,,,,,,,,,,408.162508099922,409.17765869991854,409.1442111999495,409.64788579999004,409.64788579999004,None,411.39060829998925,None,left,0.7004746999591589,411.39060829998925,None,412.11369819997344,None,right,0.48121540003921837,412.11369819997344,None,,,,,,,,,,,,,,,,,,,,,,,PPT48,001,2022-07-11_13h59.46.198,ABstudy,2022.1.4,59.90613908582004,
AB,Lag5_T1P_T2P,5,P,P,6,11,5,3,14,fish,Did you see the fish?,0.12,0.016,JPG\,broom01,globe,cellphone,tableknife02,cauliflower01,holdfast,ring01,alligator,rice,toaster01,stapler03b,grape01,microscope,cucumber,blankImage,blankImage,blankImage,holdfast,,,,,,,,,,,,0,39,39,133,,,,,,,,,,,,,,,,,,,,,,,,,,,,,,,,,,,412.61650739994366,413.6319124000147,413.59855719993357,414.17680569994263,414.17680569994263,None,415.8803152999608,None,left,0.6269897000165656,415.8803152999608,None,416.5345160999568,None,left,0.42017960001248866,416.5345160999568,None,,,,,,,,,,,,,,,,,,,,,,,PPT48,001,2022-07-11_13h59.46.198,ABstudy,2022.1.4,59.90613908582004,
AB,Lag1_T1P_T2A,1,P,A,7,8,6,3,11,Armadillo,Did you see the Armadillo?,0.12,0.016,JPG\,clock01a,cellphone,toaster01,toothbrush03b,cauliflower01,microscope,armadillo,paintbrush01,scarf,clock04,sponge01,blankImage,blankImage,blankImage,blankImage,blankImage,blankImage,armadillo,,,,,,,,,,,,0,40,40,180,,,,,,,,,,,,,,,,,,,,,,,,,,,,,,,,,,,416.99456189991906,418.0031136999605,417.986335100024,418.57745809992775,418.57745809992775,None,419.97796359995846,None,left,0.9127942000050098,419.97796359995846,None,420.92250609991606,None,right,0.3291448999661952,420.92250609991606,None,,,,,,,,,,,,,,,,,,,,,,,PPT48,001,2022-07-11_13h59.46.198,ABstudy,2022.1.4,59.90613908582004,
AB,Lag5_T1P_T2P,5,P,P,7,12,6,5,17,American football helmet,Did you see the American football helmet?,0.12,0.016,JPG\,alligator,banana01,apple07,tomato01,button01,spoon01,footballhelmet,fork03c,slipper03b,potato02b,grape01,stapler03b,teabag,screwdriver04b,hammer01,tennisball01b,blankImage,footballhelmet,,,,,,,,,,,,0,41,41,148,,,,,,,,,,,,,,,,,,,,,,,,,,,,,,,,,,,421.27855549997184,422.29071099997964,422.2739316999214,422.77576929994393,422.77576929994393,None,424.8048840999836,None,left,0.742178599932231,424.8048840999836,None,425.577529400005,None,right,0.37724079994950444,425.577529400005,None,,,,,,,,,,,,,,,,,,,,,,,PPT48,001,2022-07-11_13h59.46.198,ABstudy,2022.1.4,59.90613908582004,
AB,Lag1_T1P_T2P,1,P,P,6,7,5,3,10,handcuffs,Did you see the handcuffs?,0.12,0.016,JPG\,sewingmachine01a,scarf,carrot01,book01b,eraser,handcuffs,stapler05,lipstick02a,printer02,garlic01a,blankImage,blankImage,blankImage,blankImage,blankImage,blankImage,blankImage,handcuffs,,,,,,,,,,,,0,42,42,2,,,,,,,,,,,,,,,,,,,,,,,,,,,,,,,,,,,425.98141529993154,426.99542249995284,426.9786405999912,427.5750354999909,427.5750354999909,None,428.79368839995004,None,left,0.6172206000192091,428.79368839995004,None,429.43234139995184,None,right,0.5069490999449044,429.43234139995184,None,,,,,,,,,,,,,,,,,,,,,,,PPT48,001,2022-07-11_13h59.46.198,ABstudy,2022.1.4,59.90613908582004,
AB,Lag5_T1P_T2P,5,P,P,8,13,7,4,17,Accordion,Did you see the Accordion?,0.12,0.016,JPG\,toiletpaper01a,lipstick02a,potato02b,speaker04,globe,strawberry,carrot01,accordion01,sock01a,candle08b,pen04b,calculator01,stapler01,brick,pear01,fork03c,blankImage,accordion01,,,,,,,,,,,,0,43,43,162,,,,,,,,,,,,,,,,,,,,,,,,,,,,,,,,,,,429.9708710999694,430.98274949996267,430.96596029994544,431.58027249993756,431.58027249993756,None,433.50688459991943,None,left,0.5119334000628442,433.50688459991943,None,434.03617059998214,None,left,0.42255649995058775,434.03617059998214,None,,,,,,,,,,,,,,,,,,,,,,,PPT48,001,2022-07-11_13h59.46.198,ABstudy,2022.1.4,59.90613908582004,
AB,Lag5_T1P_T2P,5,P,P,5,10,4,3,13,Sushi,Did you see the Sushi?,0.12,0.016,JPG\,carrot01,greenolive,fork03c,chain01,makiroll,watermelon01,tableknife02,printer02,comb02a,stapler03b,orange,rice,fan,blankImage,blankImage,blankImage,blankImage,makiroll,,,,,,,,,,,,0,44,44,135,,,,,,,,,,,,,,,,,,,,,,,,,,,,,,,,,,,434.4892988000065,435.5036861000117,435.47032500000205,436.04474609997123,436.04474609997123,None,437.6251507999841,None,left,0.9056841999990866,437.6251507999841,None,438.55705189995933,None,right,0.3905115999514237,438.55705189995933,None,,,,,,,,,,,,,,,,,,,,,,,PPT48,001,2022-07-11_13h59.46.198,ABstudy,2022.1.4,59.90613908582004,
AB,Lag5_T1P_T2P,5,P,P,6,11,5,3,14,Poker chips,Did you see the Poker chips?,0.12,0.016,JPG\,iron01b,brick,broccoli01a,balloon01b,tomato01,pokerchips,sandal,teabag,scissors01,pineapple01a,stapler04b,measuringcup01,sock01a,book01b,blankImage,blankImage,blankImage,pokerchips,,,,,,,,,,,,0,45,45,154,,,,,,,,,,,,,,,,,,,,,,,,,,,,,,,,,,,438.97639169998,439.99170279991813,439.95825199992396,440.53551580000203,440.53551580000203,None,442.304531199974,None,left,0.44257099996320903,442.304531199974,None,442.77758519991767,None,left,0.42538829997647554,442.77758519991767,None,,,,,,,,,,,,,,,,,,,,,,,PPT48,001,2022-07-11_13h59.46.198,ABstudy,2022.1.4,59.90613908582004,
AB,Lag1_T1P_T2A,1,P,A,8,9,7,5,14,Fridge,Did you see the Fridge?,0.12,0.016,JPG\,cherry01,cymbal,envelope03a,foosballtable,shirt02,cellphone,sewingmachine01a,fridge,battery02b,apple07,pencil01,screwdriver04b,strawberry,sunglasses04,blankImage,blankImage,blankImage,fridge,,,,,,,,,,,,0,46,46,173,,,,,,,,,,,,,,,,,,,,,,,,,,,,,,,,,,,443.23497380001936,444.2465702999616,444.23101839993615,444.8870258999523,444.81313659995794,None,446.5390306999907,None,right,8.487834300030954,446.5390306999907,None,455.0595023999922,None,right,2.4874318999936804,455.0595023999922,None,,,,,,,,,,,,,,,,,,,,,,,PPT48,001,2022-07-11_13h59.46.198,ABstudy,2022.1.4,59.90613908582004,
AB,Lag5_T1P_T2P,5,P,P,8,13,7,5,18,popcorn,Did you see the popcorn?,0.12,0.016,JPG\,toaster01,garlic01a,hairclip03,fan,comb02a,apple07,orange,popcorn,onion,blueberry01,toiletpaper01a,fork03c,stapler06,pineapple01a,scarf,eraser,blankImage,popcorn,,,,,,,,,,,,0,47,47,155,,,,,,,,,,,,,,,,,,,,,,,,,,,,,,,,,,,457.5885516999988,458.59310559998266,458.57647239998914,459.151311900001,459.151311900001,None,461.08792409999296,None,left,0.5547600999707356,461.08792409999296,None,461.6634588999441,None,left,0.3790722000412643,461.6634588999441,None,,,,,,,,,,,,,,,,,,,,,,,PPT48,001,2022-07-11_13h59.46.198,ABstudy,2022.1.4,59.90613908582004,
AB,Lag1_T1A_T2A,1,A,A,5,6,4,3,9,Pigeon,Did you see the Pigeon?,0.12,0.016,JPG\,candle01,paintbrush01,scissors01,fan,microscope,toothbrush03b,candle08b,watermelon01,teabag,blankImage,blankImage,blankImage,blankImage,blankImage,blankImage,blankImage,blankImage,floorlamp,,,,,,,,,,,,0,48,48,286,,,,,,,,,,,,,,,,,,,,,,,,,,,,,,,,,,,462.0695300999796,463.08131939999294,463.06451559998095,463.65287059999537,463.65287059999537,None,464.7480309000239,None,right,1.806854199967347,464.7480309000239,None,466.5874708999181,None,right,0.392345399945043,466.5874708999181,None,,,,,,,,,,,,,,,,,,,,,,,PPT48,001,2022-07-11_13h59.46.198,ABstudy,2022.1.4,59.90613908582004,
AB,Lag1_T1P_T2P,1,P,P,8,9,7,3,12,Wheelchair,Did you see the Wheelchair?,0.12,0.016,JPG\,cigarette,pig,banana01,strawberry,clock01a,plate01b,spoon01,wheelchair,stapler03b,pineapple01a,chain01,paintbrush01,blankImage,blankImage,blankImage,blankImage,blankImage,wheelchair,,,,,,,,,,,,0,49,49,27,,,,,,,,,,,,,,,,,,,,,,,,,,,,,,,,,,,467.01186610001605,468.01940200000536,468.0026918000076,468.5732999999309,468.5732999999309,None,470.05388319992926,None,left,0.9733536000130698,470.05388319992926,None,471.05569670000114,None,right,0.39475550001952797,471.05569670000114,None,,,,,,,,,,,,,,,,,,,,,,,PPT48,001,2022-07-11_13h59.46.198,ABstudy,2022.1.4,59.90613908582004,
AB,Lag1_T1P_T2P,1,P,P,5,6,4,5,11,squirrel,Did you see the squirrel?,0.12,0.016,JPG\,pencil01,orange,clock01a,sponge01,squirrel,stapler05,lipstick02a,strawberry,book01b,mushroom01,envelope03a,blankImage,blankImage,blankImage,blankImage,blankImage,blankImage,squirrel,,,,,,,,,,,,0,50,50,5,,,,,,,,,,,,,,,,,,,,,,,,,,,,,,,,,,,471.48021870001685,472.4904839999508,472.47381619992666,473.0649692999432,473.0649692999432,None,474.40129890001845,None,left,0.5133789000101388,474.40129890001845,None,474.94599539996125,None,left,0.4019613000564277,474.94599539996125,None,,,,,,,,,,,,,,,,,,,,,,,PPT48,001,2022-07-11_13h59.46.198,ABstudy,2022.1.4,59.90613908582004,
AB,Lag5_T1A_T2P,5,A,P,5,10,4,5,15,parachute,Did you see the parachute?,0.12,0.016,JPG\,binoculars01b,speaker04,sandal,envelope03a,plate01b,comb02a,battery02b,chain01,measuringcup01,stapler03b,medal02b,lamp04a,tennisball01b,pizza,cigarette,blankImage,blankImage,knee,,,,,,,,,,,,0,51,51,264,,,,,,,,,,,,,,,,,,,,,,,,,,,,,,,,,,,475.43632159999106,476.44485109997913,476.4279921000125,477.0480993000092,477.0480993000092,None,478.7676233999664,None,right,0.7711867999751121,478.7676233999664,None,479.5641782999737,None,right,0.45458160003181547,479.5641782999737,None,,,,,,,,,,,,,,,,,,,,,,,PPT48,001,2022-07-11_13h59.46.198,ABstudy,2022.1.4,59.90613908582004,
AB,Lag5_T1P_T2A,5,P,A,7,12,6,3,15,Toy soldier,Did you see the Toy soldier?,0.12,0.016,JPG\,binoculars01b,cymbal,pizza,candy,paintbrush01,sponge01,toysoldier01b,thermometer02b,speaker04,lemon02,lipstick02a,strawberry,candle01,acorn,plate01b,blankImage,blankImage,toysoldier01b,,,,,,,,,,,,0,52,52,203,,,,,,,,,,,,,,,,,,,,,,,,,,,,,,,,,,,480.0508580999449,481.06604750000406,481.0326162999263,481.67800409998745,481.67800409998745,None,483.5061532999389,None,right,0.6009540000231937,483.5061532999389,None,484.13578819995746,None,right,8.698476899997331,484.13578819995746,None,,,,,,,,,,,,,,,,,,,,,,,PPT48,001,2022-07-11_13h59.46.198,ABstudy,2022.1.4,59.90613908582004,
AB,Lag1_T1A_T2P,1,A,P,5,6,4,3,9,chimney,Did you see the chimney?,0.12,0.016,JPG\,cucumber,sponge01,alligator,pear01,ashtray01,stapler06,clock04,battery02b,fork03c,blankImage,blankImage,blankImage,blankImage,blankImage,blankImage,blankImage,blankImage,trophy01,,,,,,,,,,,,0,53,53,246,,,,,,,,,,,,,,,,,,,,,,,,,,,,,,,,,,,492.8630434999941,493.87847819994204,493.84512399998493,494.42653789999895,494.42653789999895,None,495.5267827999778,None,right,1.1082943000365049,495.5267827999778,None,496.66451619996224,None,left,3.0977053000824526,496.66451619996224,None,,,,,,,,,,,,,,,,,,,,,,,PPT48,001,2022-07-11_13h59.46.198,ABstudy,2022.1.4,59.90613908582004,
AB,Lag1_T1P_T2A,1,P,A,6,7,5,4,11,Road,Did you see the Road?,0.12,0.016,JPG\,pizza,printer02,medal02b,spoon01,grape01,road02,belt02a,watermelon01,celery,battery02b,screw02,blankImage,blankImage,blankImage,blankImage,blankImage,blankImage,road02,,,,,,,,,,,,0,54,54,174,,,,,,,,,,,,,,,,,,,,,,,,,,,,,,,,,,,499.7903149999911,500.80208349996246,500.7853897999739,501.3778215999482,501.3778215999482,None,502.6721611999674,None,left,0.9145191999850795,502.6721611999674,None,503.6051775999367,None,right,0.3334197000367567,503.6051775999367,None,,,,,,,,,,,,,,,,,,,,,,,PPT48,001,2022-07-11_13h59.46.198,ABstudy,2022.1.4,59.90613908582004,
AB,Lag5_T1A_T2P,5,A,P,7,12,6,4,16,church,Did you see the church?,0.12,0.016,JPG\,printer02,leaf02a,cauliflower01,sock01a,brownsugar,paintbrush01,pig,orange,belt02a,shirt02,key01,stapler06,cigarette,scissors01,envelope03a,blueberry01,blankImage,ant,,,,,,,,,,,,0,55,55,279,,,,,,,,,,,,,,,,,,,,,,,,,,,,,,,,,,,504.0090856999159,505.0231548999436,505.00628359999973,505.60951219999697,505.60951219999697,None,507.5270096999593,None,right,1.091691300040111,507.5270096999593,None,508.64344909996726,None,right,0.6474550999701023,508.64344909996726,None,,,,,,,,,,,,,,,,,,,,,,,PPT48,001,2022-07-11_13h59.46.198,ABstudy,2022.1.4,59.90613908582004,
AB,Lag5_T1P_T2P,5,P,P,5,10,4,5,15,Bee,Did you see the Bee?,0.12,0.016,JPG\,fork03c,dandelion,dice05a,belt02a,honeybee,watch02a,key01,globe,eraser,stapler03a,greenolive,shirt02,candle08b,cigarette,garlic01a,blankImage,blankImage,honeybee,,,,,,,,,,,,0,56,56,149,,,,,,,,,,,,,,,,,,,,,,,,,,,,,,,,,,,509.31959129997995,510.3283952999627,510.3115715999156,510.91732459992636,510.91732459992636,None,512.7125789999263,None,left,0.5459601000184193,512.7125789999263,None,513.2814528999152,None,left,0.4255151000106707,513.2814528999152,None,,,,,,,,,,,,,,,,,,,,,,,PPT48,001,2022-07-11_13h59.46.198,ABstudy,2022.1.4,59.90613908582004,
AB,Lag1_T1A_T2P,1,A,P,6,7,5,3,10,curtain,Did you see the curtain?,0.12,0.016,JPG\,carrot01,greenolive,fork03c,chain01,ashtray01,watermelon01,stapler06,printer02,comb02a,toaster01,blankImage,blankImage,blankImage,blankImage,blankImage,blankImage,blankImage,birdhouse,,,,,,,,,,,,0,57,57,249,,,,,,,,,,,,,,,,,,,,,,,,,,,,,,,,,,,513.7371383999707,514.749808399938,514.7341946000233,515.3791707999771,515.3061791999498,None,516.5176932999166,None,right,0.8531552000204101,516.5176932999166,None,517.4022468000185,None,right,0.5287674999563023,517.4022468000185,None,,,,,,,,,,,,,,,,,,,,,,,PPT48,001,2022-07-11_13h59.46.198,ABstudy,2022.1.4,59.90613908582004,
AB,Lag1_T1P_T2A,1,P,A,5,6,4,5,11,Toaster oven,Did you see the Toaster oven?,0.12,0.016,JPG\,fork03c,toothbrush03b,cellphone,fan,toasteroven,clock01a,ring01,eraser,sunglasses04,thermometer02b,violin,blankImage,blankImage,blankImage,blankImage,blankImage,blankImage,toasteroven,,,,,,,,,,,,0,58,58,200,,,,,,,,,,,,,,,,,,,,,,,,,,,,,,,,,,,517.9553291000193,518.9700692999177,518.9534163000062,519.5756010999903,519.5054379999638,None,520.8964672000147,None,right,0.6175619999412447,520.8964672000147,None,521.5402218999807,None,right,0.5351526000304148,521.5402218999807,None,,,,,,,,,,,,,,,,,,,,,,,PPT48,001,2022-07-11_13h59.46.198,ABstudy,2022.1.4,59.90613908582004,
AB,Lag1_T1P_T2A,1,P,A,6,7,5,3,10,Dragon fly,Did you see the Dragon fly?,0.12,0.016,JPG\,leaf02a,pear01,measuringcup01,cigarette,fan,dragonfly01,teabag,tableknife02,ring01,pencil01,blankImage,blankImage,blankImage,blankImage,blankImage,blankImage,blankImage,dragonfly01,,,,,,,,,,,,0,59,59,185,,,,,,,,,,,,,,,,,,,,,,,,,,,,,,,,,,,522.1110662999563,523.1243319999194,523.1078216999304,523.6713460999308,523.6713460999308,None,524.9300290999236,None,left,0.768691600067541,524.9300290999236,None,525.7271728999913,None,right,0.41136639995966107,525.7271728999913,None,,,,,,,,,,,,,,,,,,,,,,,PPT48,001,2022-07-11_13h59.46.198,ABstudy,2022.1.4,59.90613908582004,
AB,Lag1_T1P_T2P,1,P,P,7,8,6,3,11,locker,Did you see the locker?,0.12,0.016,JPG\,toiletpaper01a,lipstick02a,potato02b,speaker04,globe,strawberry,locker,stapler04b,sock01a,candle08b,pen04b,blankImage,blankImage,blankImage,blankImage,blankImage,blankImage,locker,,,,,,,,,,,,0,60,60,19,,,,,,,,,,,,,,,,,,,,,,,,,,,,,,,,,,,526.1645969999954,527.1784679000266,527.1617285999237,527.7959171999246,527.7959171999246,None,529.0869997999398,None,right,2.596941599971615,529.0869997999398,None,531.7161365000065,None,right,1.2222414000425488,531.7161365000065,None,,,,,,,,,,,,,,,,,,,,,,,PPT48,001,2022-07-11_13h59.46.198,ABstudy,2022.1.4,59.90613908582004,
AB,Lag1_T1P_T2A,1,P,A,6,7,5,4,11,bird,Did you see the bird?,0.12,0.016,JPG\,foosballtable,candy,envelope03a,microscope,pencil01,cedarwaxwing,scissors01,watermelon01,grape01,dandelion,pineapple01a,blankImage,blankImage,blankImage,blankImage,blankImage,blankImage,cedarwaxwing,,,,,,,,,,,,0,61,61,182,,,,,,,,,,,,,,,,,,,,,,,,,,,,,,,,,,,532.9696461999556,533.985116399941,533.9517018999904,534.4550859999144,534.4550859999144,None,535.9263650999637,None,left,0.4924104999518022,535.9263650999637,None,536.4391027999809,None,left,0.39531629998236895,536.4391027999809,None,,,,,,,,,,,,,,,,,,,,,,,PPT48,001,2022-07-11_13h59.46.198,ABstudy,2022.1.4,59.90613908582004,
AB,Lag1_T1P_T2P,1,P,P,5,6,4,4,10,Ladybug,Did you see the Ladybug?,0.12,0.016,JPG\,key01,apple07,ring01,leaf02a,ladybug03,stapler04b,violin,sponge01,baseball01a,thermometer02b,blankImage,blankImage,blankImage,blankImage,blankImage,blankImage,blankImage,ladybug03,,,,,,,,,,,,0,62,62,65,,,,,,,,,,,,,,,,,,,,,,,,,,,,,,,,,,,536.8609154999722,537.8725885999156,537.8559212000109,538.4455430000089,538.4455430000089,None,539.6829822999425,None,left,1.2152982000261545,539.6829822999425,None,540.9252681999933,None,right,0.885932800010778,540.9252681999933,None,,,,,,,,,,,,,,,,,,,,,,,PPT48,001,2022-07-11_13h59.46.198,ABstudy,2022.1.4,59.90613908582004,
AB,Lag1_T1P_T2P,1,P,P,8,9,7,4,13,kite,Did you see the kite?,0.12,0.016,JPG\,scissors01,balloon01b,eraser,feather03a,banana01,candle01,measuringcup01,kite,stapler04b,strawberry,pear01,carrot01,globe,blankImage,blankImage,blankImage,blankImage,kite,,,,,,,,,,,,0,63,63,17,,,,,,,,,,,,,,,,,,,,,,,,,,,,,,,,,,,541.8451000999194,542.8605763999512,542.8272221999941,543.4003390999278,543.4003390999278,None,545.0600779999513,None,left,0.5739938999759033,545.0600779999513,None,545.6637440000195,None,left,0.4264960999134928,545.6637440000195,None,,,,,,,,,,,,,,,,,,,,,,,PPT48,001,2022-07-11_13h59.46.198,ABstudy,2022.1.4,59.90613908582004,
AB,Lag1_T1P_T2P,1,P,P,6,7,5,3,10,Pool table,Did you see the Pool table?,0.12,0.016,JPG\,tomato01,pen04b,shirt02,carrot01,lamp04a,pooltable,stapler06,avocado01,sewingmachine01a,apple07,blankImage,blankImage,blankImage,blankImage,blankImage,blankImage,blankImage,pooltable,,,,,,,,,,,,0,64,64,29,,,,,,,,,,,,,,,,,,,,,,,,,,,,,,,,,,,546.1205858999165,547.1316268999362,547.1149016999407,547.7175893000094,547.7175893000094,None,549.0049303999403,None,left,0.509427500073798,549.0049303999403,None,549.5360871999292,None,left,0.38662200001999736,549.5360871999292,None,,,,,,,,,,,,,,,,,,,,,,,PPT48,001,2022-07-11_13h59.46.198,ABstudy,2022.1.4,59.90613908582004,
AB,Lag5_T1P_T2P,5,P,P,6,11,5,4,15,Bumper car,Did you see the Bumper car?,0.12,0.016,JPG\,eraser,measuringcup01,chain01,birthdaycandle,ring01,bumpercar,weight04a,pig,cauliflower01,celery,stapler01,sunglasses04,greenolive,candy,strawberry,blankImage,blankImage,bumpercar,,,,,,,,,,,,0,65,65,104,,,,,,,,,,,,,,,,,,,,,,,,,,,,,,,,,,,549.9552441999549,550.9686539999675,550.9519778999966,551.5342483000131,551.5342483000131,None,553.3550997999264,None,left,0.6231883000582457,553.3550997999264,None,554.0053227000171,None,right,0.6538021999876946,554.0053227000171,None,,,,,,,,,,,,,,,,,,,,,,,PPT48,001,2022-07-11_13h59.46.198,ABstudy,2022.1.4,59.90613908582004,
AB,Lag1_T1P_T2P,1,P,P,5,6,4,3,9,camel,Did you see the camel?,0.12,0.016,JPG\,iron01b,brick,broccoli01a,balloon01b,dromedary,stapler05,sandal,teabag,scissors01,blankImage,blankImage,blankImage,blankImage,blankImage,blankImage,blankImage,blankImage,dromedary,,,,,,,,,,,,0,66,66,11,,,,,,,,,,,,,,,,,,,,,,,,,,,,,,,,,,,554.6925924000097,555.7069586999714,555.6903261999832,556.2583894999698,556.2583894999698,None,557.3434413999785,None,left,0.5393031999701634,557.3434413999785,None,557.9117861000123,None,left,0.4191463999450207,557.9117861000123,None,,,,,,,,,,,,,,,,,,,,,,,PPT48,001,2022-07-11_13h59.46.198,ABstudy,2022.1.4,59.90613908582004,
AB,Lag1_T1P_T2A,1,P,A,7,8,6,4,12,bird,Did you see the bird?,0.12,0.016,JPG\,speaker04,sewingmachine01a,eraser,violin,globe,belt02a,tern,cymbal,cd,greenolive,alligator,pear01,blankImage,blankImage,blankImage,blankImage,blankImage,tern,,,,,,,,,,,,0,67,67,177,,,,,,,,,,,,,,,,,,,,,,,,,,,,,,,,,,,558.3705963999964,559.3770755999722,559.3603449999355,559.9491638999898,559.9491638999898,None,561.4541438999586,None,left,0.6206292000133544,561.4541438999586,None,562.0967857999494,None,right,0.40203640004619956,562.0967857999494,None,,,,,,,,,,,,,,,,,,,,,,,PPT48,001,2022-07-11_13h59.46.198,ABstudy,2022.1.4,59.90613908582004,
AB,Lag1_T1P_T2A,1,P,A,5,6,4,4,10,flower,Did you see the flower?,0.12,0.016,JPG\,broom01,globe,cellphone,tableknife02,daffodil,scissors01,ring01,alligator,rice,toaster01,blankImage,blankImage,blankImage,blankImage,blankImage,blankImage,blankImage,daffodil,,,,,,,,,,,,0,68,68,184,,,,,,,,,,,,,,,,,,,,,,,,,,,,,,,,,,,562.5340864999453,563.5480541000143,563.5312886999454,564.1184308999218,564.1184308999218,None,565.3198402000125,None,left,0.9785229999106377,565.3198402000125,None,566.3314988999628,None,right,0.5041991999605671,566.3314988999628,None,,,,,,,,,,,,,,,,,,,,,,,PPT48,001,2022-07-11_13h59.46.198,ABstudy,2022.1.4,59.90613908582004,
AB,Lag5_T1P_T2P,5,P,P,7,12,6,4,16,Recycling bin,Did you see the Recycling bin?,0.12,0.016,JPG\,broccoli01a,scissors01,toothbrush03b,foosballtable,iron01b,brick,recyclingbin,toiletpaper01a,cd,garlic01a,carrot01,stapler03a,envelope03a,battery02b,balloon01b,broom01,blankImage,recyclingbin,,,,,,,,,,,,0,69,69,157,,,,,,,,,,,,,,,,,,,,,,,,,,,,,,,,,,,566.866285600001,567.8687430999707,567.8354388999287,568.4408221999183,568.4408221999183,None,570.4204869000241,None,left,0.5096070000436157,570.4204869000241,None,570.9555004999274,None,left,0.446675100014545,570.9555004999274,None,,,,,,,,,,,,,,,,,,,,,,,PPT48,001,2022-07-11_13h59.46.198,ABstudy,2022.1.4,59.90613908582004,
AB,Lag1_T1P_T2P,1,P,P,7,8,6,3,11,cloud,Did you see the cloud?,0.12,0.016,JPG\,lighter01,hammer01,spoon01,chain01,cymbal,sponge01,cloud,stapler06,pig,watermelon01,cauliflower01,blankImage,blankImage,blankImage,blankImage,blankImage,blankImage,cloud,,,,,,,,,,,,0,70,70,36,,,,,,,,,,,,,,,,,,,,,,,,,,,,,,,,,,,571.4268948999234,572.4398184999591,572.4252511999803,573.0176828999538,573.0176828999538,None,574.3180212000152,None,left,0.5008417998906225,574.3180212000152,None,574.8427183999447,None,left,0.4240878999698907,574.8427183999447,None,,,,,,,,,,,,,,,,,,,,,,,PPT48,001,2022-07-11_13h59.46.198,ABstudy,2022.1.4,59.90613908582004,
AB,Lag1_T1P_T2A,1,P,A,6,7,5,5,12,Tombstone,Did you see the Tombstone?,0.12,0.016,JPG\,cigarette,ashtray01,envelope03a,sandal,chain01,tombstone,broccoli01a,tomato01,dandelion,candle01,lemon02,button01,blankImage,blankImage,blankImage,blankImage,blankImage,tombstone,,,,,,,,,,,,0,71,71,196,,,,,,,,,,,,,,,,,,,,,,,,,,,,,,,,,,,575.2990421999712,576.3106486999895,576.2941309999442,576.8919042999623,576.8919042999623,None,578.3566742999246,None,right,1.4139561000047252,578.3566742999246,None,579.7972931999248,None,right,0.48517659993376583,579.7972931999248,None,,,,,,,,,,,,,,,,,,,,,,,PPT48,001,2022-07-11_13h59.46.198,ABstudy,2022.1.4,59.90613908582004,
AB,Lag1_T1P_T2P,1,P,P,8,9,7,3,12,Fire hydrant,Did you see the Fire hydrant?,0.12,0.016,JPG\,foosballtable,candy,envelope03a,microscope,pencil01,leaf02a,scissors01,firehydrant,stapler01,dandelion,pineapple01a,hammer01,blankImage,blankImage,blankImage,blankImage,blankImage,firehydrant,,,,,,,,,,,,0,72,72,83,,,,,,,,,,,,,,,,,,,,,,,,,,,,,,,,,,,580.3596105999313,581.3657196999993,581.3490465999348,581.8507229000097,581.8507229000097,None,583.3158071999205,None,left,0.8061150000430644,583.3158071999205,None,584.151867599925,None,right,0.4345764999743551,584.151867599925,None,,,,,,,,,,,,,,,,,,,,,,,PPT48,001,2022-07-11_13h59.46.198,ABstudy,2022.1.4,59.90613908582004,
AB,Lag1_T1P_T2A,1,P,A,7,8,6,3,11,Snowshoe,Did you see the Snowshoe?,0.12,0.016,JPG\,birthdaycandle,mushroom01,strawberry,match,cherry01,eraser,snowshoe,thermometer02b,sock01a,ring01,feather03a,blankImage,blankImage,blankImage,blankImage,blankImage,blankImage,snowshoe,,,,,,,,,,,,0,73,73,194,,,,,,,,,,,,,,,,,,,,,,,,,,,,,,,,,,,584.624014699948,585.6367812999524,585.6199283999158,586.1236324999481,586.1236324999481,None,587.5752224000171,None,left,1.4515668000094593,587.5752224000171,None,589.0567906999495,None,right,0.4350344999693334,589.0567906999495,None,,,,,,,,,,,,,,,,,,,,,,,PPT48,001,2022-07-11_13h59.46.198,ABstudy,2022.1.4,59.90613908582004,
AB,Lag5_T1P_T2P,5,P,P,7,12,6,3,15,marble,Did you see the marble?,0.12,0.016,JPG\,cigarette,ashtray01,envelope03a,sandal,chain01,cucumber,marble,tomato01,dandelion,candle01,lemon02,stapler03b,potato02b,cymbal,clock01a,blankImage,blankImage,marble,,,,,,,,,,,,0,74,74,146,,,,,,,,,,,,,,,,,,,,,,,,,,,,,,,,,,,589.5295777999563,590.5416588999797,590.5249771999661,591.1043532999465,591.1043532999465,None,592.9543474999955,None,left,0.5358111999230459,592.9543474999955,None,593.5133414999582,None,left,0.418267700006254,593.5133414999582,None,,,,,,,,,,,,,,,,,,,,,,,PPT48,001,2022-07-11_13h59.46.198,ABstudy,2022.1.4,59.90613908582004,
AB,Lag1_T1P_T2P,1,P,P,6,7,5,3,10,fortune cookie,Did you see the fortune cookie?,0.12,0.016,JPG\,scissors01,grape01,mushroom01,toiletpaper01a,greenolive,fortunecookie,stapler03b,ashtray01,carrot01,pineapple01a,blankImage,blankImage,blankImage,blankImage,blankImage,blankImage,blankImage,fortunecookie,,,,,,,,,,,,0,75,75,42,,,,,,,,,,,,,,,,,,,,,,,,,,,,,,,,,,,593.9667168000014,594.9794463999569,594.9627216999652,595.5260274999309,595.5260274999309,None,596.7698515999364,None,left,0.7529050000011921,596.7698515999364,None,597.5628425999312,None,left,0.42355760000646114,597.5628425999312,None,,,,,,,,,,,,,,,,,,,,,,,PPT48,001,2022-07-11_13h59.46.198,ABstudy,2022.1.4,59.90613908582004,
AB,Lag5_T1A_T2A,5,A,A,6,11,5,5,16,shrimp,Did you see the shrimp?,0.12,0.016,JPG\,speaker04,sewingmachine01a,eraser,violin,globe,belt02a,sunglasses04,cymbal,cd,greenolive,alligator,pear01,watch02a,screwdriver04b,banana01,cigarette,blankImage,rollerblade,,,,,,,,,,,,0,76,76,300,,,,,,,,,,,,,,,,,,,,,,,,,,,,,,,,,,,598.0241083999863,599.0340246999403,599.0184609999415,599.6256269000005,599.6256269000005,None,601.5162137999432,None,right,0.8700024000136182,601.5162137999432,None,602.4039420000045,None,left,0.47814389993436635,602.4039420000045,None,,,,,,,,,,,,,,,,,,,,,,,PPT48,001,2022-07-11_13h59.46.198,ABstudy,2022.1.4,59.90613908582004,
AB,Lag1_T1P_T2P,1,P,P,8,9,7,4,13,Hula hoop,Did you see the Hula hoop?,0.12,0.016,JPG\,brownsugar,candle01,match,printer02,broom01,balloon01b,belt02a,hulahoop,stapler04b,feather03a,rice,mushroom01,pencil01,blankImage,blankImage,blankImage,blankImage,hulahoop,,,,,,,,,,,,0,77,77,64,,,,,,,,,,,,,,,,,,,,,,,,,,,,,,,,,,,602.9435285999207,603.9548948999727,603.9381488999352,604.4407404999947,604.4407404999947,None,606.0599011000013,None,left,0.6624597000190988,606.0599011000013,None,606.7408200999489,None,left,0.45338550000451505,606.7408200999489,None,,,,,,,,,,,,,,,,,,,,,,,PPT48,001,2022-07-11_13h59.46.198,ABstudy,2022.1.4,59.90613908582004,
AB,Lag1_T1A_T2A,1,A,A,6,7,5,5,12,Safe,Did you see the Safe?,0.12,0.016,JPG\,hammer01,sponge01,toaster01,cherry01,feather03a,mushroom01,measuringcup01,pencil01,tennisball01b,brick,clock04,medal02b,blankImage,blankImage,blankImage,blankImage,blankImage,downhillski,,,,,,,,,,,,0,78,78,294,,,,,,,,,,,,,,,,,,,,,,,,,,,,,,,,,,,607.2275899000233,608.2423561000032,608.208977799979,608.7845288999379,608.7845288999379,None,610.2861562999897,None,right,1.2526443999959156,610.2861562999897,None,611.5622737000231,None,right,0.41644760000053793,611.5622737000231,None,,,,,,,,,,,,,,,,,,,,,,,PPT48,001,2022-07-11_13h59.46.198,ABstudy,2022.1.4,59.90613908582004,
AB,Lag5_T1P_T2P,5,P,P,7,12,6,5,17,flamingo,Did you see the flamingo?,0.12,0.016,JPG\,pig,belt02a,rice,screwdriver04b,candle01,apple07,flamingo,pear01,feather03a,match,thermometer02b,stapler06,lemon02,violin,medal02b,pineapple01a,blankImage,flamingo,,,,,,,,,,,,0,79,79,153,,,,,,,,,,,,,,,,,,,,,,,,,,,,,,,,,,,611.9982941999333,613.013764299918,612.9803944999585,613.4819774000207,613.4819774000207,None,615.5601774000097,None,left,0.43441419990267605,615.5601774000097,None,616.019613099983,None,left,0.45407259999774396,616.019613099983,None,,,,,,,,,,,,,,,,,,,,,,,PPT48,001,2022-07-11_13h59.46.198,ABstudy,2022.1.4,59.90613908582004,
AB,Lag1_T1P_T2P,1,P,P,5,6,4,4,10,skateboard,Did you see the skateboard?,0.12,0.016,JPG\,binoculars01b,cymbal,pizza,candy,skateboard,stapler05,grape01,thermometer02b,speaker04,lemon02,blankImage,blankImage,blankImage,blankImage,blankImage,blankImage,blankImage,skateboard,,,,,,,,,,,,0,80,80,25,,,,,,,,,,,,,,,,,,,,,,,,,,,,,,,,,,,616.5002841999521,617.5016826000065,617.4849789999425,618.1347132999217,618.1347132999217,None,619.3242582000094,None,left,0.9832094999728724,619.3242582000094,None,620.3376850999193,None,right,0.3843879000050947,620.3376850999193,None,,,,,,,,,,,,,,,,,,,,,,,PPT48,001,2022-07-11_13h59.46.198,ABstudy,2022.1.4,59.90613908582004,
AB,Lag5_T1P_T2P,5,P,P,5,10,4,4,14,duck,Did you see the duck?,0.12,0.016,JPG\,celery,pencil01,fan,foosballtable,duck01,shirt02,potato02b,fork03c,button01,stapler03a,baseball01a,printer02,cauliflower01,dandelion,blankImage,blankImage,blankImage,duck01,,,,,,,,,,,,0,81,81,130,,,,,,,,,,,,,,,,,,,,,,,,,,,,,,,,,,,620.7569901000243,621.7723966999911,621.7391194999218,622.3146715000039,622.3146715000039,None,623.9465800999897,None,left,0.46320760005619377,623.9465800999897,None,624.4419058000203,None,left,0.4318716999841854,624.4419058000203,None,,,,,,,,,,,,,,,,,,,,,,,PPT48,001,2022-07-11_13h59.46.198,ABstudy,2022.1.4,59.90613908582004,
AB,Lag5_T1P_T2A,5,P,A,6,11,5,3,14,Balcony,Did you see the Balcony?,0.12,0.016,JPG\,tomato01,pen04b,shirt02,carrot01,lamp04a,balcony02,pizza,avocado01,sewingmachine01a,apple07,iron01b,book01b,chain01,sock01a,blankImage,blankImage,blankImage,balcony02,,,,,,,,,,,,0,82,82,207,,,,,,,,,,,,,,,,,,,,,,,,,,,,,,,,,,,624.9418666999554,625.9434679999249,625.9267249000259,626.5152330999263,626.5152330999263,None,628.2054561999394,None,left,0.8929501000093296,628.2054561999394,None,629.1297880000202,None,right,0.36056549998465925,629.1297880000202,None,,,,,,,,,,,,,,,,,,,,,,,PPT48,001,2022-07-11_13h59.46.198,ABstudy,2022.1.4,59.90613908582004,
AB,Lag5_T1A_T2A,5,A,A,5,10,4,5,15,flower,Did you see the flower?,0.12,0.016,JPG\,clock01a,cellphone,toaster01,toothbrush03b,cauliflower01,microscope,comb02a,paintbrush01,scarf,clock04,sponge01,iron01b,watch02a,celery,ring01,blankImage,blankImage,stepladder,,,,,,,,,,,,0,83,83,303,,,,,,,,,,,,,,,,,,,,,,,,,,,,,,,,,,,629.5157764999894,630.5311960999388,630.4978238999611,631.0796059999848,631.0796059999848,None,632.9089089999907,None,right,0.733044599997811,632.9089089999907,None,633.6684805999976,None,right,0.6463829999556765,633.6684805999976,None,,,,,,,,,,,,,,,,,,,,,,,PPT48,001,2022-07-11_13h59.46.198,ABstudy,2022.1.4,59.90613908582004,
AB,Lag1_T1A_T2P,1,A,P,7,8,6,5,13,Horseshoe,Did you see the Horseshoe?,0.12,0.016,JPG\,leaf02a,apple07,cd,pineapple01a,envelope03a,paintbrush01,pig,stapler06,rice,feather03a,lemon02,balloon01b,avocado01,blankImage,blankImage,blankImage,blankImage,rooster,,,,,,,,,,,,0,84,84,241,,,,,,,,,,,,,,,,,,,,,,,,,,,,,,,,,,,634.4074546999764,635.420260099927,635.4046308000106,635.9865872999653,635.9865872999653,None,637.5611025999533,None,right,0.8487553000450134,637.5611025999533,None,638.4395026999991,None,left,0.394491899991408,638.4395026999991,None,,,,,,,,,,,,,,,,,,,,,,,PPT48,001,2022-07-11_13h59.46.198,ABstudy,2022.1.4,59.90613908582004,
AB,Lag5_T1A_T2P,5,A,P,7,12,6,4,16,scooter,Did you see the scooter?,0.12,0.016,JPG\,cigarette,pig,banana01,strawberry,clock01a,plate01b,spoon01,blueberry01,battery02b,pineapple01a,chain01,stapler05,candy,pen04b,teabag,birthdaycandle,blankImage,1nose,,,,,,,,,,,,0,85,85,268,,,,,,,,,,,,,,,,,,,,,,,,,,,,,,,,,,,638.8587474999949,639.8740141999442,639.8406808000291,640.4058178999694,640.4058178999694,None,642.3561095999321,None,right,0.7904974000994116,642.3561095999321,None,643.1773293999722,None,left,0.4095322999637574,643.1773293999722,None,,,,,,,,,,,,,,,,,,,,,,,PPT48,001,2022-07-11_13h59.46.198,ABstudy,2022.1.4,59.90613908582004,
AB,Lag1_T1A_T2A,1,A,A,8,9,7,4,13,Recycling bin,Did you see the Recycling bin?,0.12,0.016,JPG\,brick,plate01b,pen04b,toaster01,screwdriver04b,candle01,envelope03a,feather03a,pig,ring01,orange,clock01a,lighter01,blankImage,blankImage,blankImage,blankImage,bumpercar,,,,,,,,,,,,0,86,86,292,,,,,,,,,,,,,,,,,,,,,,,,,,,,,,,,,,,643.6182197999442,644.6287536999444,644.6120021999814,645.2006111999508,645.2006111999508,None,646.760496999952,None,right,0.9712669000728056,646.760496999952,None,647.7488248000154,None,right,0.5576028999639675,647.7488248000154,None,,,,,,,,,,,,,,,,,,,,,,,PPT48,001,2022-07-11_13h59.46.198,ABstudy,2022.1.4,59.90613908582004,
AB,Lag1_T1P_T2P,1,P,P,8,9,7,5,14,bullet,Did you see the bullet?,0.12,0.016,JPG\,measuringcup01,dice05a,greenolive,lipstick02a,feather03a,balloon01b,lighter01,bullet,stapler04b,plate01b,microscope,brick,thermometer02b,screw02,blankImage,blankImage,blankImage,bullet,,,,,,,,,,,,0,87,87,57,,,,,,,,,,,,,,,,,,,,,,,,,,,,,,,,,,,648.3377472999273,649.3503493999597,649.3334159000078,649.934407099965,649.934407099965,None,651.6652814999688,None,left,2.049252700060606,651.6652814999688,None,653.7380420999834,None,right,1.6085229000309482,653.7380420999834,None,,,,,,,,,,,,,,,,,,,,,,,PPT48,001,2022-07-11_13h59.46.198,ABstudy,2022.1.4,59.90613908582004,
AB,Lag1_T1P_T2A,1,P,A,5,6,4,5,11,Sailboat,Did you see the Sailboat?,0.12,0.016,JPG\,chain01,speaker04,avocado01,watermelon01,sailboat,comb02a,lamp04a,fork03c,toaster01,slipper03b,scissors01,blankImage,blankImage,blankImage,blankImage,blankImage,blankImage,sailboat,,,,,,,,,,,,0,88,88,193,,,,,,,,,,,,,,,,,,,,,,,,,,,,,,,,,,,655.3780570999952,656.3905048000161,656.3739934000187,656.9463841000106,656.9463841000106,None,658.3314033999341,None,left,1.1346508000278845,658.3314033999341,None,659.495138600003,None,right,0.5707839000970125,659.495138600003,None,,,,,,,,,,,,,,,,,,,,,,,PPT48,001,2022-07-11_13h59.46.198,ABstudy,2022.1.4,59.90613908582004,
AB,Lag1_T1A_T2P,1,A,P,5,6,4,3,9,Stool,Did you see the Stool?,0.12,0.016,JPG\,cherry01,cymbal,envelope03a,foosballtable,shirt02,stapler01,sewingmachine01a,candle08b,battery02b,blankImage,blankImage,blankImage,blankImage,blankImage,blankImage,blankImage,blankImage,hulahoop,,,,,,,,,,,,0,89,89,236,,,,,,,,,,,,,,,,,,,,,,,,,,,,,,,,,,,660.100943599944,661.1115749999881,661.0948704999173,661.6781306000194,661.6781306000194,None,662.7909329999238,None,right,0.7392508001066744,662.7909329999238,None,663.5489738999167,None,right,0.38195319997612387,663.5489738999167,None,,,,,,,,,,,,,,,,,,,,,,,PPT48,001,2022-07-11_13h59.46.198,ABstudy,2022.1.4,59.90613908582004,
AB,Lag1_T1P_T2A,1,P,A,6,7,5,5,12,foot,Did you see the foot?,0.12,0.016,JPG\,watermelon01,cigarette,weight04a,cymbal,cauliflower01,foot,cherry01,broom01,battery02b,key01,baseball01a,iron01b,blankImage,blankImage,blankImage,blankImage,blankImage,foot,,,,,,,,,,,,0,90,90,188,,,,,,,,,,,,,,,,,,,,,,,,,,,,,,,,,,,663.9526831000112,664.9657452999381,664.949085899978,665.5438714999473,665.5438714999473,None,666.9673666999443,None,left,0.9304361999966204,666.9673666999443,None,667.9183513999451,None,right,0.35567449999507517,667.9183513999451,None,,,,,,,,,,,,,,,,,,,,,,,PPT48,001,2022-07-11_13h59.46.198,ABstudy,2022.1.4,59.90613908582004,
AB,Lag1_T1P_T2P,1,P,P,8,9,7,4,13,dart board,Did you see the dart board?,0.12,0.016,JPG\,rice,watermelon01,tableknife02,scarf,computerkeyboard02,cauliflower01,battery02b,dartboard,stapler01,sandal,sponge01,microscope,tomato01,blankImage,blankImage,blankImage,blankImage,dartboard,,,,,,,,,,,,0,91,91,80,,,,,,,,,,,,,,,,,,,,,,,,,,,,,,,,,,,668.3063229999971,669.3198177999584,669.3030882999301,669.8812706000172,669.8812706000172,None,671.5517311999574,None,left,0.514552199980244,671.5517311999574,None,672.089538399945,None,left,0.40810740005690604,672.089538399945,None,,,,,,,,,,,,,,,,,,,,,,,PPT48,001,2022-07-11_13h59.46.198,ABstudy,2022.1.4,59.90613908582004,
AB,Lag1_T1P_T2P,1,P,P,8,9,7,3,12,zebra,Did you see the zebra?,0.12,0.016,JPG\,apple07,toiletpaper01a,pizza,dandelion,greenolive,eraser,microscope,zebra,stapler03b,lipstick02a,balloon01b,sandal,blankImage,blankImage,blankImage,blankImage,blankImage,zebra,,,,,,,,,,,,0,92,92,28,,,,,,,,,,,,,,,,,,,,,,,,,,,,,,,,,,,672.5334689000156,673.5409701999743,673.5241425000131,674.1061126999557,674.1061126999557,None,675.5760550999548,None,left,0.5222033000318334,675.5760550999548,None,676.12690319994,None,left,0.4196120999986306,676.12690319994,None,,,,,,,,,,,,,,,,,,,,,,,PPT48,001,2022-07-11_13h59.46.198,ABstudy,2022.1.4,59.90613908582004,
AB,Lag1_T1P_T2P,1,P,P,8,9,7,3,12,apron,Did you see the apron?,0.12,0.016,JPG\,avocado01,tambourine02,match,cauliflower01,paintbrush01,clock01a,pig,apron,stapler03a,cellphone,watch02a,pear01,blankImage,blankImage,blankImage,blankImage,blankImage,apron,,,,,,,,,,,,0,93,93,32,,,,,,,,,,,,,,,,,,,,,,,,,,,,,,,,,,,676.5821295999922,677.5948854999151,677.578133199946,678.1892009999137,678.1892009999137,None,679.5974145999644,None,left,0.7163911999668926,679.5974145999644,None,680.3310930000152,None,right,0.376341599971056,680.3310930000152,None,,,,,,,,,,,,,,,,,,,,,,,PPT48,001,2022-07-11_13h59.46.198,ABstudy,2022.1.4,59.90613908582004,
AB,Lag5_T1A_T2P,5,A,P,6,11,5,3,14,saxophone,Did you see the saxophone?,0.12,0.016,JPG\,globe,belt02a,sponge01,violin,fork03c,tomato01,clock01a,microscope,balloon01b,scarf,stapler03b,pen04b,brick,brownsugar,blankImage,blankImage,blankImage,microphone01,,,,,,,,,,,,0,94,94,267,,,,,,,,,,,,,,,,,,,,,,,,,,,,,,,,,,,680.7374793000054,681.7490616999567,681.7322890999494,682.3371713999659,682.3371713999659,None,683.9194853999652,None,right,0.9945115000009537,683.9194853999652,None,684.9354762999574,None,right,0.46623050002381206,684.9354762999574,None,,,,,,,,,,,,,,,,,,,,,,,PPT48,001,2022-07-11_13h59.46.198,ABstudy,2022.1.4,59.90613908582004,
AB,Lag1_T1P_T2P,1,P,P,8,9,7,3,12,cactus,Did you see the cactus?,0.12,0.016,JPG\,tennisball01b,paintbrush01,medal02b,apple07,speaker04,iron01b,avocado01,cactus,stapler03b,toiletpaper01a,watermelon01,candle01,blankImage,blankImage,blankImage,blankImage,blankImage,cactus,,,,,,,,,,,,0,95,95,58,,,,,,,,,,,,,,,,,,,,,,,,,,,,,,,,,,,685.4214798000176,686.436829400016,686.4034524000017,686.9903652999783,686.9903652999783,None,688.4449121999787,None,left,0.5970122000435367,688.4449121999787,None,689.0756846999284,None,left,0.40695410000626,689.0756846999284,None,,,,,,,,,,,,,,,,,,,,,,,PPT48,001,2022-07-11_13h59.46.198,ABstudy,2022.1.4,59.90613908582004,
AB,Lag5_T1P_T2P,5,P,P,8,13,7,4,17,butterfly,Did you see the butterfly?,0.12,0.016,JPG\,speaker04,sewingmachine01a,eraser,violin,globe,belt02a,sunglasses04,butterfly,cd,greenolive,alligator,pear01,stapler01,screwdriver04b,banana01,cigarette,blankImage,butterfly,,,,,,,,,,,,0,96,96,126,,,,,,,,,,,,,,,,,,,,,,,,,,,,,,,,,,,689.5098137999885,690.5242186000105,690.4908391999779,691.0758323000045,691.0758323000045,None,693.0263449000195,None,right,1.2712233999045566,693.0263449000195,None,694.3281128000235,None,right,0.39364639995619655,694.3281128000235,None,,,,,,,,,,,,,,,,,,,,,,,PPT48,001,2022-07-11_13h59.46.198,ABstudy,2022.1.4,59.90613908582004,
AB,Lag5_T1P_T2P,5,P,P,8,13,7,3,16,church,Did you see the church?,0.12,0.016,JPG\,clock01a,cellphone,toaster01,toothbrush03b,cauliflower01,microscope,comb02a,church,scarf,clock04,sponge01,iron01b,stapler06,celery,ring01,ashtray01,blankImage,church,,,,,,,,,,,,0,97,97,129,,,,,,,,,,,,,,,,,,,,,,,,,,,,,,,,,,,694.7977429999737,695.8130146999611,695.7962438999675,696.4052240999881,696.4052240999881,None,698.2573289999273,None,left,0.3686871000099927,698.2573289999273,None,698.6487323999172,None,left,0.43371930008288473,698.6487323999172,None,,,,,,,,,,,,,,,,,,,,,,,PPT48,001,2022-07-11_13h59.46.198,ABstudy,2022.1.4,59.90613908582004,
AB,Lag1_T1A_T2P,1,A,P,5,6,4,3,9,Spider,Did you see the Spider?,0.12,0.016,JPG\,pen04b,speaker04,lighter01,cherry01,8ball,stapler04b,sock01a,toothbrush03b,broom01,blankImage,blankImage,blankImage,blankImage,blankImage,blankImage,blankImage,blankImage,bridge,,,,,,,,,,,,0,98,98,250,,,,,,,,,,,,,,,,,,,,,,,,,,,,,,,,,,,699.1065783000086,700.117443199968,700.1007457999513,700.6837388999993,700.6837388999993,None,701.7961616999237,None,right,1.1425368000054732,701.7961616999237,None,702.9699192999396,None,right,0.4400341999717057,702.9699192999396,None,,,,,,,,,,,,,,,,,,,,,,,PPT48,001,2022-07-11_13h59.46.198,ABstudy,2022.1.4,59.90613908582004,
AB,Lag5_T1P_T2P,5,P,P,6,11,5,5,16,Car,Did you see the Car?,0.12,0.016,JPG\,leaf02a,apple07,cd,pineapple01a,envelope03a,car,pig,canoftennisballs,rice,feather03a,stapler03a,balloon01b,avocado01,calculator01,watermelon01,teabag,blankImage,car,,,,,,,,,,,,0,99,99,127,,,,,,,,,,,,,,,,,,,,,,,,,,,,,,,,,,,703.4926353999181,704.5049908999354,704.4882927999133,705.1102326000109,705.1102326000109,None,706.9756555999629,None,left,0.8264476000331342,706.9756555999629,None,707.8251126999967,None,right,0.3769887000089511,707.8251126999967,None,,,,,,,,,,,,,,,,,,,,,,,PPT48,001,2022-07-11_13h59.46.198,ABstudy,2022.1.4,59.90613908582004,
AB,Lag5_T1A_T2P,5,A,P,5,10,4,3,13,License Plate,Did you see the License Plate?,0.12,0.016,JPG\,tomato01,pen04b,shirt02,carrot01,lamp04a,key01,pizza,avocado01,sewingmachine01a,stapler06,iron01b,book01b,chain01,blankImage,blankImage,blankImage,blankImage,porcupine,,,,,,,,,,,,0,100,100,270,,,,,,,,,,,,,,,,,,,,,,,,,,,,,,,,,,,708.2326447999803,709.2438636999577,709.2282260999782,709.8225759000052,709.8225759000052,None,711.4095404000254,None,right,0.8807614000979811,711.4095404000254,None,712.3129634999204,None,left,0.4263631000649184,712.3129634999204,None,,,,,,,,,,,,,,,,,,,,,,,PPT48,001,2022-07-11_13h59.46.198,ABstudy,2022.1.4,59.90613908582004,
AB,Lag1_T1P_T2P,1,P,P,7,8,6,4,12,trophy,Did you see the trophy?,0.12,0.016,JPG\,cherry01,cymbal,envelope03a,foosballtable,shirt02,cellphone,trophy01,stapler04b,battery02b,apple07,pencil01,screwdriver04b,blankImage,blankImage,blankImage,blankImage,blankImage,trophy01,,,,,,,,,,,,0,101,101,74,,,,,,,,,,,,,,,,,,,,,,,,,,,,,,,,,,,712.7682823999785,713.7809496999253,713.7641148000257,714.3474641999928,714.3474641999928,None,715.8217132999562,None,left,0.8206959000090137,715.8217132999562,None,716.6668507999275,None,right,0.4225944000063464,716.6668507999275,None,,,,,,,,,,,,,,,,,,,,,,,PPT48,001,2022-07-11_13h59.46.198,ABstudy,2022.1.4,59.90613908582004,
AB,Lag5_T1P_T2A,5,P,A,7,12,6,4,16,Bear,Did you see the Bear?,0.12,0.016,JPG\,comb02a,key01,medal02b,battery02b,lighter01,microscope,grizzly,sandal,pig,cellphone,computerkeyboard02,calculator01,cymbal,clock04,cucumber,avocado01,blankImage,grizzly,,,,,,,,,,,,0,102,102,213,,,,,,,,,,,,,,,,,,,,,,,,,,,,,,,,,,,717.1195807999466,718.1350229999516,718.1016552000074,718.6753051999258,718.6753051999258,None,720.6303287999472,None,left,0.5881859000073746,720.6303287999472,None,721.2380646999227,None,right,0.6353846999118105,721.2380646999227,None,,,,,,,,,,,,,,,,,,,,,,,PPT48,001,2022-07-11_13h59.46.198,ABstudy,2022.1.4,59.90613908582004,
AB,Lag1_T1P_T2P,1,P,P,8,9,7,4,13,peacock,Did you see the peacock?,0.12,0.016,JPG\,hammer01,sponge01,toaster01,cherry01,feather03a,mushroom01,measuringcup01,peacock,stapler03a,brick,clock04,medal02b,teabag,blankImage,blankImage,blankImage,blankImage,peacock,,,,,,,,,,,,0,103,103,68,,,,,,,,,,,,,,,,,,,,,,,,,,,,,,,,,,,721.9077212000266,722.9231130999979,722.8897408000194,723.4637585999444,723.4637585999444,None,725.0838378999615,None,left,0.710300000035204,725.0838378999615,None,725.826396199991,None,left,0.4636719999834895,725.826396199991,None,,,,,,,,,,,,,,,,,,,,,,,PPT48,001,2022-07-11_13h59.46.198,ABstudy,2022.1.4,59.90613908582004,
AB,Lag1_T1P_T2P,1,P,P,7,8,6,3,11,Sand castle,Did you see the Sand castle?,0.12,0.016,JPG\,thermometer02b,candle08b,comb02a,toothbrush03b,brick,computerkeyboard02,sandcastle,stapler06,candy,birthdaycandle,clock04,blankImage,blankImage,blankImage,blankImage,blankImage,blankImage,sandcastle,,,,,,,,,,,,0,104,104,70,,,,,,,,,,,,,,,,,,,,,,,,,,,,,,,,,,,726.316592499963,727.3276931999717,727.3109983999748,727.9019222999923,727.9019222999923,None,729.278236299986,None,left,0.603334299987182,729.278236299986,None,729.9138736999594,None,left,4.305277999956161,729.9138736999594,None,,,,,,,,,,,,,,,,,,,,,,,PPT48,001,2022-07-11_13h59.46.198,ABstudy,2022.1.4,59.90613908582004,
AB,Lag5_T1P_T2P,5,P,P,5,10,4,5,15,penguin,Did you see the penguin?,0.12,0.016,JPG\,watermelon01,cigarette,pintofbeer,cymbal,penguin,feather03a,cherry01,broom01,battery02b,stapler05,baseball01a,iron01b,garlic01a,computerkeyboard02,pig,blankImage,blankImage,penguin,,,,,,,,,,,,0,105,105,137,,,,,,,,,,,,,,,,,,,,,,,,,,,,,,,,,,,734.2569485999411,735.2687932000263,735.2520806000102,735.8417215999216,735.8417215999216,None,737.6186882000184,None,left,1.0004797999281436,737.6186882000184,None,738.6390320999781,None,right,0.3862732999259606,738.6390320999781,None,,,,,,,,,,,,,,,,,,,,,,,PPT48,001,2022-07-11_13h59.46.198,ABstudy,2022.1.4,59.90613908582004,
AB,Lag1_T1P_T2P,1,P,P,6,7,5,3,10,spider web,Did you see the spider web?,0.12,0.016,JPG\,toaster01,chain01,sponge01,baseball01a,carrot01,spiderweb,stapler03b,iron01b,grape01,brick,blankImage,blankImage,blankImage,blankImage,blankImage,blankImage,blankImage,spiderweb,,,,,,,,,,,,0,106,106,72,,,,,,,,,,,,,,,,,,,,,,,,,,,,,,,,,,,739.0585911999224,740.057486900012,740.0418952999171,740.6417678999715,740.6417678999715,None,741.8669092999771,None,left,1.311608099960722,741.8669092999771,None,743.2130410999525,None,right,0.6528467999305576,743.2130410999525,None,,,,,,,,,,,,,,,,,,,,,,,PPT48,001,2022-07-11_13h59.46.198,ABstudy,2022.1.4,59.90613908582004,
AB,Lag1_T1P_T2P,1,P,P,5,6,4,3,9,Pumpkin,Did you see the Pumpkin?,0.12,0.016,JPG\,binoculars01b,speaker04,sandal,envelope03a,pumpkin,stapler03b,battery02b,chain01,measuringcup01,blankImage,blankImage,blankImage,blankImage,blankImage,blankImage,blankImage,blankImage,pumpkin,,,,,,,,,,,,0,107,107,23,,,,,,,,,,,,,,,,,,,,,,,,,,,,,,,,,,,743.8969193999656,744.8958933999529,744.8803303999593,745.5548913999228,745.4728231999325,None,746.6197448999155,None,left,0.5022477000020444,746.6197448999155,None,747.1616167000029,None,left,0.37600609997753054,747.1616167000029,None,,,,,,,,,,,,,,,,,,,,,,,PPT48,001,2022-07-11_13h59.46.198,ABstudy,2022.1.4,59.90613908582004,
AB,Lag5_T1P_T2A,5,P,A,8,13,7,4,17,Drum set,Did you see the Drum set?,0.12,0.016,JPG\,pencil01,microscope,banana01,computerkeyboard02,celery,cellphone,scissors01,drumset,book01b,onion,dice05a,binoculars01b,baseball01a,iron01b,screw02,fork03c,blankImage,drumset,,,,,,,,,,,,0,108,108,212,,,,,,,,,,,,,,,,,,,,,,,,,,,,,,,,,,,747.5733525999822,748.5821123999776,748.5654379000189,749.1427172999829,749.1427172999829,None,751.056441099965,None,left,0.6970138000324368,751.056441099965,None,751.7882608999498,None,right,0.4131196999223903,751.7882608999498,None,,,,,,,,,,,,,,,,,,,,,,,PPT48,001,2022-07-11_13h59.46.198,ABstudy,2022.1.4,59.90613908582004,
AB,Lag5_T1P_T2P,5,P,P,7,12,6,5,17,Badminton Racket,Did you see the Badminton Racket?,0.12,0.016,JPG\,paintbrush01,dice05a,watermelon01,broccoli01a,hammer01,leaf02a,badmintonracket,tennisball01b,lemon02,fan,lipstick02a,stapler04b,envelope03a,sponge01,foosballtable,orange,blankImage,badmintonracket,,,,,,,,,,,,0,109,109,163,,,,,,,,,,,,,,,,,,,,,,,,,,,,,,,,,,,752.2285881999414,753.2367046999279,753.2200546999229,753.8075775000034,753.8075775000034,None,755.8066347999265,None,left,0.476120000006631,755.8066347999265,None,756.3067234000191,None,left,0.46427869994658977,756.3067234000191,None,,,,,,,,,,,,,,,,,,,,,,,PPT48,001,2022-07-11_13h59.46.198,ABstudy,2022.1.4,59.90613908582004,
AB,Lag5_T1P_T2P,5,P,P,8,13,7,4,17,trumpet,Did you see the trumpet?,0.12,0.016,JPG\,toaster01,scarf,toiletpaper01a,calculator01,violin,sewingmachine01a,fan,trumpet,strawberry,balloon01b,brownsugar,eraser,stapler01,rice,ring01,shirt02,blankImage,trumpet,,,,,,,,,,,,0,110,110,145,,,,,,,,,,,,,,,,,,,,,,,,,,,,,,,,,,,756.7966555999592,757.8087847999996,757.7931457000086,758.3945886999136,758.3945886999136,None,760.3232392999344,None,left,0.5906163000036031,760.3232392999344,None,760.9448261000216,None,left,0.42486890009604394,760.9448261000216,None,,,,,,,,,,,,,,,,,,,,,,,PPT48,001,2022-07-11_13h59.46.198,ABstudy,2022.1.4,59.90613908582004,
AB,Lag1_T1P_T2P,1,P,P,7,8,6,3,11,swing,Did you see the swing?,0.12,0.016,JPG\,sewingmachine01a,thermometer02b,sponge01,eraser,broccoli01a,fork03c,swing,stapler03b,belt02a,medal02b,pineapple01a,blankImage,blankImage,blankImage,blankImage,blankImage,blankImage,swing,,,,,,,,,,,,0,111,111,30,,,,,,,,,,,,,,,,,,,,,,,,,,,,,,,,,,,761.4429154000245,762.446016300004,762.4292140000034,763.0326322999317,763.0326322999317,None,764.3482192999218,None,left,0.6377975000068545,764.3482192999218,None,765.0153731999453,None,left,0.4517876000609249,765.0153731999453,None,,,,,,,,,,,,,,,,,,,,,,,PPT48,001,2022-07-11_13h59.46.198,ABstudy,2022.1.4,59.90613908582004,
AB,Lag1_T1P_T2A,1,P,A,8,9,7,5,14,Sausage,Did you see the Sausage?,0.12,0.016,JPG\,pencil01,broccoli01a,button01,sponge01,watermelon01,lipstick02a,comb02a,sausage,lighter01,sock01a,spoon01,blueberry01,belt02a,onion,blankImage,blankImage,blankImage,sausage,,,,,,,,,,,,0,112,112,175,,,,,,,,,,,,,,,,,,,,,,,,,,,,,,,,,,,765.5043670999585,766.5167459999211,766.5000996999443,767.0723670999287,767.0723670999287,None,768.7808242000174,None,left,2.596876599942334,768.7808242000174,None,771.4050909000216,None,right,1.9725555999903008,771.4050909000216,None,,,,,,,,,,,,,,,,,,,,,,,PPT48,001,2022-07-11_13h59.46.198,ABstudy,2022.1.4,59.90613908582004,
AB,Lag5_T1P_T2P,5,P,P,6,11,5,5,16,table,Did you see the table?,0.12,0.016,JPG\,birthdaycandle,mushroom01,strawberry,match,cherry01,table01,hammer01,thermometer02b,sock01a,ring01,stapler06,banana01,toiletpaper01a,key01,sponge01,teabag,blankImage,table01,,,,,,,,,,,,0,113,113,144,,,,,,,,,,,,,,,,,,,,,,,,,,,,,,,,,,,773.4730197999161,774.4752773999935,774.459573399974,774.9617910999805,774.9617910999805,None,776.9594112000195,None,left,0.8263092999113724,776.9594112000195,None,777.8111121000256,None,right,0.44639870000537485,777.8111121000256,None,,,,,,,,,,,,,,,,,,,,,,,PPT48,001,2022-07-11_13h59.46.198,ABstudy,2022.1.4,59.90613908582004,
AB,Lag1_T1P_T2A,1,P,A,5,6,4,4,10,bird,Did you see the bird?,0.12,0.016,JPG\,toaster01,scarf,toiletpaper01a,calculator01,swallow,sewingmachine01a,fan,teabag,strawberry,balloon01b,blankImage,blankImage,blankImage,blankImage,blankImage,blankImage,blankImage,swallow,,,,,,,,,,,,0,114,114,195,,,,,,,,,,,,,,,,,,,,,,,,,,,,,,,,,,,778.2804528999841,779.2797980000032,779.264151899959,779.8826654999284,779.8826654999284,None,781.1871507000178,None,left,1.518782899947837,781.1871507000178,None,782.7471403999953,None,right,0.6540581000735983,782.7471403999953,None,,,,,,,,,,,,,,,,,,,,,,,PPT48,001,2022-07-11_13h59.46.198,ABstudy,2022.1.4,59.90613908582004,
AB,Lag5_T1P_T2P,5,P,P,8,13,7,3,16,parachute,Did you see the parachute?,0.12,0.016,JPG\,brick,plate01b,pen04b,toaster01,screwdriver04b,candle01,envelope03a,parachute,pig,ring01,orange,clock01a,stapler03b,calculator01,mushroom01,chain01,blankImage,parachute,,,,,,,,,,,,0,115,115,114,,,,,,,,,,,,,,,,,,,,,,,,,,,,,,,,,,,783.4363220999949,784.4510942000197,784.4177083999384,785.0085802000249,785.0085802000249,None,786.9507321999408,None,left,0.6196526000276208,786.9507321999408,None,787.5883994000033,None,left,0.43682579998858273,787.5883994000033,None,,,,,,,,,,,,,,,,,,,,,,,PPT48,001,2022-07-11_13h59.46.198,ABstudy,2022.1.4,59.90613908582004,
AB,Lag1_T1P_T2P,1,P,P,5,6,4,3,9,elephant,Did you see the elephant?,0.12,0.016,JPG\,celery,brownsugar,key01,sunglasses04,arugula,stapler04b,dice05a,tennisball01b,scarf,blankImage,blankImage,blankImage,blankImage,blankImage,blankImage,blankImage,blankImage,arugula,,,,,,,,,,,,0,116,116,54,,,,,,,,,,,,,,,,,,,,,,,,,,,,,,,,,,,788.0581193999387,789.0723545999499,789.0389656999614,789.6137487000087,789.6137487000087,None,790.7244503999827,None,right,0.652961099985987,790.7244503999827,None,791.4079304999905,None,right,0.36961900000460446,791.4079304999905,None,,,,,,,,,,,,,,,,,,,,,,,PPT48,001,2022-07-11_13h59.46.198,ABstudy,2022.1.4,59.90613908582004,
AB,Lag1_T1A_T2A,1,A,A,8,9,7,3,12,punching bag,Did you see the punching bag?,0.12,0.016,JPG\,key01,apple07,ring01,leaf02a,hammer01,tableknife02,violin,sponge01,baseball01a,thermometer02b,celery,calculator01,blankImage,blankImage,blankImage,blankImage,blankImage,bathtub,,,,,,,,,,,,0,117,117,291,,,,,,,,,,,,,,,,,,,,,,,,,,,,,,,,,,,791.8117666000035,792.8259929999476,792.8093737999443,793.4388665999286,793.3685288999695,None,794.8644555999199,None,right,0.7689416001085192,794.8644555999199,None,795.6652740000281,None,right,0.44870160007849336,795.6652740000281,None,,,,,,,,,,,,,,,,,,,,,,,PPT48,001,2022-07-11_13h59.46.198,ABstudy,2022.1.4,59.90613908582004,
AB,Lag5_T1A_T2P,5,A,P,8,13,7,3,16,ladder,Did you see the ladder?,0.12,0.016,JPG\,apple07,toiletpaper01a,pizza,dandelion,greenolive,eraser,microscope,violin,orange,lipstick02a,balloon01b,sandal,stapler01,fan,book01b,sewingmachine01a,blankImage,ostrich,,,,,,,,,,,,0,118,118,269,,,,,,,,,,,,,,,,,,,,,,,,,,,,,,,,,,,796.1496258999687,797.1639055999694,797.1470972999232,797.7468887999421,797.7468887999421,None,799.6936620000051,None,right,1.7484751999145374,799.6936620000051,None,801.4709039999871,None,right,0.539103600080125,801.4709039999871,None,,,,,,,,,,,,,,,,,,,,,,,PPT48,001,2022-07-11_13h59.46.198,ABstudy,2022.1.4,59.90613908582004,
AB,Lag1_T1P_T2P,1,P,P,8,9,7,4,13,bowling ball,Did you see the bowling ball?,0.12,0.016,JPG\,dandelion,pineapple01a,broom01,pen04b,sock01a,sandal,foosballtable,bowlingball,stapler01,toothbrush03b,celery,candle08b,tennisball01b,blankImage,blankImage,blankImage,blankImage,bowlingball,,,,,,,,,,,,0,119,119,7,,,,,,,,,,,,,,,,,,,,,,,,,,,,,,,,,,,802.0504530000035,803.0529418999795,803.0195736999158,803.5220706999535,803.5220706999535,None,805.2348833999131,None,left,0.7025737999938428,805.2348833999131,None,805.9560992999468,None,left,0.3970588999800384,805.9560992999468,None,,,,,,,,,,,,,,,,,,,,,,,PPT48,001,2022-07-11_13h59.46.198,ABstudy,2022.1.4,59.90613908582004,
AB,Lag5_T1P_T2P,5,P,P,6,11,5,4,15,punching bag,Did you see the punching bag?,0.12,0.016,JPG\,foosballtable,cigarette,pen04b,birthdaycandle,hammer01,punchingbag,binoculars01b,chain01,potato02b,cauliflower01,stapler04b,ashtray01,scarf,cellphone,calculator01,blankImage,blankImage,punchingbag,,,,,,,,,,,,0,120,120,156,,,,,,,,,,,,,,,,,,,,,,,,,,,,,,,,,,,806.4244332999224,807.4244124999968,807.4077402999392,807.9086597999558,807.9086597999558,None,809.7698250999674,None,left,0.9122031000442803,809.7698250999674,None,810.710513799917,None,right,0.41154320002533495,810.710513799917,None,,,,,,,,,,,,,,,,,,,,,,,PPT48,001,2022-07-11_13h59.46.198,ABstudy,2022.1.4,59.90613908582004,
AB,Lag5_T1A_T2A,5,A,A,6,11,5,3,14,mirror,Did you see the mirror?,0.12,0.016,JPG\,foosballtable,candy,envelope03a,microscope,pencil01,leaf02a,scissors01,watermelon01,grape01,dandelion,pineapple01a,hammer01,celery,thermometer02b,blankImage,blankImage,blankImage,shower,,,,,,,,,,,,0,121,121,305,,,,,,,,,,,,,,,,,,,,,,,,,,,,,,,,,,,811.1466212000232,812.1620577999856,812.1286478999536,812.6293036999414,812.6293036999414,None,814.4459338999586,None,right,1.019569500000216,814.4459338999586,None,815.4823121000081,None,right,0.41540079994592816,815.4823121000081,None,,,,,,,,,,,,,,,,,,,,,,,PPT48,001,2022-07-11_13h59.46.198,ABstudy,2022.1.4,59.90613908582004,
AB,Lag1_T1P_T2P,1,P,P,6,7,5,3,10,cupcake,Did you see the cupcake?,0.12,0.016,JPG\,printer02,leaf02a,cauliflower01,sock01a,brownsugar,cupcake,stapler01,orange,belt02a,shirt02,blankImage,blankImage,blankImage,blankImage,blankImage,blankImage,blankImage,cupcake,,,,,,,,,,,,0,122,122,38,,,,,,,,,,,,,,,,,,,,,,,,,,,,,,,,,,,815.9219559999183,816.9335363999708,816.9168810999254,817.5059689999325,817.5059689999325,None,818.7183614999522,None,right,1.12283310003113,818.7183614999522,None,819.8700026000151,None,left,0.40329099993687123,819.8700026000151,None,,,,,,,,,,,,,,,,,,,,,,,PPT48,001,2022-07-11_13h59.46.198,ABstudy,2022.1.4,59.90613908582004,
AB,Lag5_T1P_T2P,5,P,P,7,12,6,5,17,elbow,Did you see the elbow?,0.12,0.016,JPG\,candle01,fork03c,plate01b,violin,computerkeyboard02,candy,elbow,paintbrush01,cherry01,sock01a,teabag,stapler01,cd,lighter01,book01b,tennisball01b,blankImage,elbow,,,,,,,,,,,,0,123,123,87,,,,,,,,,,,,,,,,,,,,,,,,,,,,,,,,,,,820.308702499955,821.3214440000011,821.3047903999686,821.8866308999714,821.8866308999714,None,823.808278099983,None,left,0.7056119999615476,823.808278099983,None,824.5409697999712,None,left,0.46083110000472516,824.5409697999712,None,,,,,,,,,,,,,,,,,,,,,,,PPT48,001,2022-07-11_13h59.46.198,ABstudy,2022.1.4,59.90613908582004,
AB,Lag5_T1P_T2P,5,P,P,8,13,7,3,16,Chefs hat,Did you see the Chefs hat?,0.12,0.016,JPG\,rice,watermelon01,tableknife02,scarf,computerkeyboard02,cauliflower01,battery02b,chefshat,book01b,sandal,sponge01,microscope,stapler01,fork03c,thermometer02b,apple07,blankImage,chefshat,,,,,,,,,,,,0,124,124,128,,,,,,,,,,,,,,,,,,,,,,,,,,,,,,,,,,,825.027806899976,826.0423671000171,826.0090512000024,826.5976459999802,826.5976459999802,None,828.5586878999602,None,left,0.7066340000601485,828.5586878999602,None,829.2957369999494,None,left,0.41850900009740144,829.2957369999494,None,,,,,,,,,,,,,,,,,,,,,,,PPT48,001,2022-07-11_13h59.46.198,ABstudy,2022.1.4,59.90613908582004,
AB,Lag5_T1P_T2P,5,P,P,6,11,5,4,15,saxophone,Did you see the saxophone?,0.12,0.016,JPG\,pizza,strawberry,potato02b,speaker04,battery02b,saxophone,dice05a,cellphone,globe,banana01,stapler03b,baseball01a,toaster01,broom01,ring01,blankImage,blankImage,saxophone,,,,,,,,,,,,0,125,125,117,,,,,,,,,,,,,,,,,,,,,,,,,,,,,,,,,,,829.808673499967,830.8135820999742,830.7990589999827,831.5022631000029,831.4144067999441,None,833.163631399977,None,left,0.4696140999440104,833.163631399977,None,833.6501466999762,None,left,0.5037431999808177,833.6501466999762,None,,,,,,,,,,,,,,,,,,,,,,,PPT48,001,2022-07-11_13h59.46.198,ABstudy,2022.1.4,59.90613908582004,
AB,Lag1_T1P_T2P,1,P,P,7,8,6,5,13,horse,Did you see the horse?,0.12,0.016,JPG\,watermelon01,pencil01,microscope,blueberry01,computerkeyboard02,lamp04a,horse,stapler03b,sock01a,key01,binoculars01b,cauliflower01,ashtray01,blankImage,blankImage,blankImage,blankImage,horse,,,,,,,,,,,,0,126,126,3,,,,,,,,,,,,,,,,,,,,,,,,,,,,,,,,,,,834.187681099982,835.2015620999737,835.184854799998,835.7734947999706,835.7734947999706,None,837.3786287999246,None,left,0.43053970008622855,837.3786287999246,None,837.8382657999173,None,left,0.45122100005391985,837.8382657999173,None,,,,,,,,,,,,,,,,,,,,,,,PPT48,001,2022-07-11_13h59.46.198,ABstudy,2022.1.4,59.90613908582004,
AB,Lag5_T1P_T2P,5,P,P,6,11,5,4,15,boxing glove,Did you see the boxing glove?,0.12,0.016,JPG\,button01,celery,birthdaycandle,apple07,avocado01,boxingglove01,dice05a,teabag,clock01a,feather03a,stapler06,scarf,orange,battery02b,thermometer02b,blankImage,blankImage,boxingglove01,,,,,,,,,,,,0,127,127,165,,,,,,,,,,,,,,,,,,,,,,,,,,,,,,,,,,,838.3285746999318,839.3392504999647,839.3225269999821,839.9228631999576,839.9228631999576,None,841.7762571999338,None,left,0.5531400999752805,841.7762571999338,None,842.3617883999832,None,right,0.6315825999481604,842.3617883999832,None,,,,,,,,,,,,,,,,,,,,,,,PPT48,001,2022-07-11_13h59.46.198,ABstudy,2022.1.4,59.90613908582004,
AB,Lag5_T1P_T2A,5,P,A,8,13,7,4,17,Tarantula,Did you see the Tarantula?,0.12,0.016,JPG\,binoculars01b,speaker04,sandal,envelope03a,plate01b,comb02a,battery02b,tarantula,measuringcup01,key01,medal02b,lamp04a,tennisball01b,pizza,cigarette,sunglasses04,blankImage,tarantula,,,,,,,,,,,,0,128,128,201,,,,,,,,,,,,,,,,,,,,,,,,,,,,,,,,,,,843.0282886999194,844.043733999948,844.0103995000245,844.5915412999457,844.5915412999457,None,846.5542342999252,None,left,0.7988248000619933,846.5542342999252,None,847.3832725000102,None,right,0.41050200001336634,847.3832725000102,None,,,,,,,,,,,,,,,,,,,,,,,PPT48,001,2022-07-11_13h59.46.198,ABstudy,2022.1.4,59.90613908582004,
AB,Lag1_T1A_T2P,1,A,P,8,9,7,3,12,porcupine,Did you see the porcupine?,0.12,0.016,JPG\,celery,orange,scissors01,balloon01b,avocado01,printer02,mushroom01,sewingmachine01a,stapler01,dice05a,ashtray01,fan,blankImage,blankImage,blankImage,blankImage,blankImage,drumstick,,,,,,,,,,,,0,129,129,233,,,,,,,,,,,,,,,,,,,,,,,,,,,,,,,,,,,847.8278178999899,848.8317972000223,848.8150534000015,849.435000199941,849.435000199941,None,850.8572212000145,None,right,0.8962869999231771,850.8572212000145,None,851.7850307999179,None,left,0.39344410004559904,851.7850307999179,None,,,,,,,,,,,,,,,,,,,,,,,PPT48,001,2022-07-11_13h59.46.198,ABstudy,2022.1.4,59.90613908582004,
AB,Lag1_T1P_T2P,1,P,P,7,8,6,4,12,cow,Did you see the cow?,0.12,0.016,JPG\,fork03c,plate01b,toiletpaper01a,greenolive,rice,blueberry01,cow,stapler01,envelope03a,orange,book01b,pencil01,blankImage,blankImage,blankImage,blankImage,blankImage,cow,,,,,,,,,,,,0,130,130,59,,,,,,,,,,,,,,,,,,,,,,,,,,,,,,,,,,,852.2031844999874,853.2029592000181,853.1861688999925,853.7627975000069,853.7627975000069,None,855.333098199917,None,left,0.49242720007896423,855.333098199917,None,855.8577687999932,None,left,0.4159597000107169,855.8577687999932,None,,,,,,,,,,,,,,,,,,,,,,,PPT48,001,2022-07-11_13h59.46.198,ABstudy,2022.1.4,59.90613908582004,
AB,Lag1_T1P_T2P,1,P,P,7,8,6,5,13,arrow,Did you see the arrow?,0.12,0.016,JPG\,pencil01,broccoli01a,button01,sponge01,watermelon01,lipstick02a,arrow02,stapler04b,lighter01,sock01a,spoon01,blueberry01,belt02a,blankImage,blankImage,blankImage,blankImage,arrow02,,,,,,,,,,,,0,131,131,76,,,,,,,,,,,,,,,,,,,,,,,,,,,,,,,,,,,856.3082026999909,857.3235986999935,857.290374299977,857.8688468999462,857.8688468999462,None,859.4440632999176,None,left,2.1968880998902023,859.4440632999176,None,861.6612585999537,None,right,1.4998235000530258,861.6612585999537,None,,,,,,,,,,,,,,,,,,,,,,,PPT48,001,2022-07-11_13h59.46.198,ABstudy,2022.1.4,59.90613908582004,
AB,Lag5_T1A_T2P,5,A,P,7,12,6,3,15,Car,Did you see the Car?,0.12,0.016,JPG\,lighter01,hammer01,spoon01,chain01,cymbal,sponge01,lipstick02a,alligator,pig,watermelon01,cauliflower01,stapler03b,broccoli01a,tableknife02,tennisball01b,blankImage,blankImage,wallclock,,,,,,,,,,,,0,132,132,277,,,,,,,,,,,,,,,,,,,,,,,,,,,,,,,,,,,863.181834399933,864.1971285999753,864.163814599975,864.749315999914,864.749315999914,None,866.5844745999202,None,right,0.6729942000238225,866.5844745999202,None,867.2835109999869,None,left,0.36600490007549524,867.2835109999869,None,,,,,,,,,,,,,,,,,,,,,,,PPT48,001,2022-07-11_13h59.46.198,ABstudy,2022.1.4,59.90613908582004,
AB,Lag5_T1P_T2A,5,P,A,5,10,4,4,14,rocket,Did you see the rocket?,0.12,0.016,JPG\,fan,tomato01,candy,screwdriver04b,spacerocket,cd,thermometer02b,apple07,button01,plate01b,brownsugar,lighter01,clock01a,envelope03a,blankImage,blankImage,blankImage,spacerocket,,,,,,,,,,,,0,133,133,226,,,,,,,,,,,,,,,,,,,,,,,,,,,,,,,,,,,867.669525199919,868.685119099915,868.6516985999187,869.2410259000026,869.2410259000026,None,870.9827466999413,None,right,0.9872120000654832,870.9827466999413,None,871.9887679999229,None,right,1.4289115000283346,871.9887679999229,None,,,,,,,,,,,,,,,,,,,,,,,PPT48,001,2022-07-11_13h59.46.198,ABstudy,2022.1.4,59.90613908582004,
AB,Lag1_T1A_T2P,1,A,P,7,8,6,5,13,Ant,Did you see the Ant?,0.12,0.016,JPG\,rice,watermelon01,tableknife02,scarf,computerkeyboard02,cauliflower01,battery02b,stapler03b,book01b,sandal,sponge01,microscope,tomato01,blankImage,blankImage,blankImage,blankImage,sandcastle,,,,,,,,,,,,0,134,134,242,,,,,,,,,,,,,,,,,,,,,,,,,,,,,,,,,,,873.4447381999344,874.4575311000226,874.4407661999576,875.0255738999695,875.0255738999695,None,876.5824068000074,None,right,0.7544839999172837,876.5824068000074,None,877.3603439999279,None,left,0.39344169991090894,877.3603439999279,None,,,,,,,,,,,,,,,,,,,,,,,PPT48,001,2022-07-11_13h59.46.198,ABstudy,2022.1.4,59.90613908582004,
AB,Lag1_T1P_T2P,1,P,P,7,8,6,3,11,Moose,Did you see the Moose?,0.12,0.016,JPG\,sock01a,spoon01,alligator,comb02a,printer02,medal02b,moose,stapler03a,greenolive,computerkeyboard02,cauliflower01,blankImage,blankImage,blankImage,blankImage,blankImage,blankImage,moose,,,,,,,,,,,,0,135,135,67,,,,,,,,,,,,,,,,,,,,,,,,,,,,,,,,,,,877.7801542999223,878.7950496999547,878.761651000008,879.3437033999944,879.3437033999944,None,880.7567156999139,None,left,0.548492299974896,880.7567156999139,None,881.3308510999195,None,left,0.39041210000868887,881.3308510999195,None,,,,,,,,,,,,,,,,,,,,,,,PPT48,001,2022-07-11_13h59.46.198,ABstudy,2022.1.4,59.90613908582004,
AB,Lag5_T1P_T2A,5,P,A,8,13,7,4,17,knife,Did you see the knife?,0.12,0.016,JPG\,lighter01,hammer01,spoon01,chain01,cymbal,sponge01,lipstick02a,knife03,pig,watermelon01,cauliflower01,lemon02,broccoli01a,tableknife02,tennisball01b,toothbrush03b,blankImage,knife03,,,,,,,,,,,,0,136,136,214,,,,,,,,,,,,,,,,,,,,,,,,,,,,,,,,,,,881.7503994000144,882.7656432000222,882.7322803999996,883.3159990999848,883.3159990999848,None,885.2306286999956,None,left,0.8905662000179291,885.2306286999956,None,886.1525147999637,None,right,0.3527973999734968,886.1525147999637,None,,,,,,,,,,,,,,,,,,,,,,,PPT48,001,2022-07-11_13h59.46.198,ABstudy,2022.1.4,59.90613908582004,
AB,Lag5_T1P_T2P,5,P,P,5,10,4,5,15,Ipad,Did you see the Ipad?,0.12,0.016,JPG\,fork03c,toothbrush03b,cellphone,fan,ipad02,clock01a,ring01,eraser,sunglasses04,stapler06,violin,brownsugar,blueberry01,pear01,pencil01,blankImage,blankImage,ipad02,,,,,,,,,,,,0,137,137,150,,,,,,,,,,,,,,,,,,,,,,,,,,,,,,,,,,,886.5437673999695,887.553856399958,887.5371683000121,888.1142284999369,888.1142284999369,None,889.9000978999538,None,left,0.5728997000260279,889.9000978999538,None,890.4903218999971,None,left,0.42320509999990463,890.4903218999971,None,,,,,,,,,,,,,,,,,,,,,,,PPT48,001,2022-07-11_13h59.46.198,ABstudy,2022.1.4,59.90613908582004,
