TrialType,CondType,Lag,T1_PA,T2_PA,T1Loc,T2Loc,PreDistractor,PostDistractor,TotalImg,cueWord,T1cue,StimLength,isi,PicFolder,Img1,Img2,Img3,Img4,Img5,Img6,Img7,Img8,Img9,Img10,Img11,Img12,Img13,Img14,Img15,Img16,Img17,T1_Identity,ImageType,T1PA,T2PA,Picture,Image,FullPathName,FilePath,Practice_Trials.thisRepN,Practice_Trials.thisTrialN,Practice_Trials.thisN,Practice_Trials.thisIndex,trials.thisRepN,trials.thisTrialN,trials.thisN,trials.thisIndex,trials_2.thisRepN,trials_2.thisTrialN,trials_2.thisN,trials_2.thisIndex,Practice_Ins.started,Practice_Ins.stopped,End_Prac_Ins.keys,End_Prac_Ins.rt,End_Prac_Ins.started,End_Prac_Ins.stopped,text_2.started,text_2.stopped,Fixation_Cross_2.started,Fixation_Cross_2.stopped,Rapid_Image_Present_2.started,Rapid_Image_Present_2.stopped,key_resp.keys,key_resp.rt,key_resp.started,key_resp.stopped,T1Response_2.started,T1Response_2.stopped,T2Response_2.started,T2Response_2.stopped,key_resp_4.keys,key_resp_4.rt,key_resp_4.started,key_resp_4.stopped,text.started,text.stopped,End_Instructions.keys,End_Instructions.rt,End_Instructions.started,End_Instructions.stopped,text_5.started,text_5.stopped,FC.started,FC.stopped,Rapid_Image_Present.started,Rapid_Image_Present.stopped,T1Response.started,T1Response.stopped,key_resp_2.keys,key_resp_2.rt,key_resp_2.started,key_resp_2.stopped,T2Response.started,T2Response.stopped,key_resp_3.keys,key_resp_3.rt,key_resp_3.started,key_resp_3.stopped,text_6.started,text_6.stopped,Fin_ins.keys,Fin_ins.rt,Fin_ins.started,Fin_ins.stopped,MemTest.started,MemTest.stopped,MemResponse.keys,MemResponse.rt,MemResponse.started,MemResponse.stopped,Display.started,Display.stopped,text_7.started,text_7.stopped,endOfExperiment.started,endOfExperiment.stopped,key_resp_5.keys,key_resp_5.rt,key_resp_5.started,key_resp_5.stopped,participant,session,date,expName,psychopyVersion,frameRate,
,,,,,,,,,,,,,,,,,,,,,,,,,,,,,,,,,,,,,,,,,,,,,,,,,,,,12.485490299994126,None,space,71.70384869992267,12.485490299994126,None,,,,,,,,,,,,,,,,,,,,,,,,,,,,,,,,,,,,,,,,,,,,,,,,,,,,,,,,,,,,,,,,,PPT42,001,2022-07-07_14h52.56.649,ABstudy,2022.1.4,59.964980422126,
AB_Prac,Lag1_T1P_T2A,1,P,A,8,9,7,5,14,flower,Did you see the flower?,0.5,0.016,JPG\,razor01,axe01,binder03b,bowl01,kettle01,lettuce,lime,plasticflower01b,mitten04,pencilcase01,plunger02,strawbasket01,toothpick02,wallet02a,blankImage,blankImage,blankImage,plasticflower01b,,,,,,,,0,0,0,5,,,,,,,,,,,,,,,84.27357109996956,85.27914120000787,85.2622992999386,85.86620980000589,85.86620980000589,None,right,2.852064000093378,92.93856299994513,None,92.93856299994513,None,95.8228003999684,None,right,2.7427557000191882,95.8228003999684,None,,,,,,,,,,,,,,,,,,,,,,,,,,,,,,,,,,,,,,,,,,,,,,,PPT42,001,2022-07-07_14h52.56.649,ABstudy,2022.1.4,59.964980422126,
AB_Prac,Lag1_T1A_T2A,1,A,A,8,9,7,3,12,Moose,Did you see the Moose?,0.5,0.016,JPG\,clothespin03b,corkscrew03a,drillbit03a,fusilli03a,needlenosepliers01,perfume01a,pistachio,scrubbingbrush05b,spatula03,toothpastetube,hinge,toydinosaur,blankImage,blankImage,blankImage,blankImage,blankImage,None,,,,,,,,0,1,1,10,,,,,,,,,,,,,,,98.59656009997707,99.61000260000583,99.59318919992074,100.17181580001488,100.17181580001488,None,right,1.5348951000487432,106.25547969993204,None,106.25547969993204,None,107.81807289994322,None,right,4.602736599976197,107.81807289994322,None,,,,,,,,,,,,,,,,,,,,,,,,,,,,,,,,,,,,,,,,,,,,,,,PPT42,001,2022-07-07_14h52.56.649,ABstudy,2022.1.4,59.964980422126,
AB_Prac,Lag5_T1A_T2P,5,A,P,6,11,5,3,14,dog,Did you see the dog?,0.5,0.016,JPG\,bucket01a,doorlock,cookiecutter,fireextinguisher01,gluestick,highlighter02b,sportbag,spraybottle01,suitcase,thread02,stapler05,walnut01c,icecubetray01a,vikingmask01b,blankImage,blankImage,blankImage,None,,,,,,,,0,2,2,9,,,,,,,,,,,,,,,112.44380859995726,113.45765280001797,113.44191609998234,114.04848559992388,114.04848559992388,None,right,1.690426499932073,121.01904929999728,None,121.01904929999728,None,122.73290139995515,None,right,1.4804494999116287,122.73290139995515,None,,,,,,,,,,,,,,,,,,,,,,,,,,,,,,,,,,,,,,,,,,,,,,,PPT42,001,2022-07-07_14h52.56.649,ABstudy,2022.1.4,59.964980422126,
AB_Prac,Lag5_T1P_T2P,5,P,P,7,12,6,3,15,vacuum,Did you see the vacuum?,0.5,0.016,JPG\,fork07b,lightbulb01,manshoe,saw02b,shoelace,soap03a,vacuumcleaner01,floortile01,necklace,doll,cabbage,stapler03a,hanger02a,laptop01a,nailpolish03b,blankImage,blankImage,vacuumcleaner01,,,,,,,,0,3,3,2,,,,,,,,,,,,,,,124.239009300014,125.25244750001002,125.23572340002283,125.80610569997225,125.80610569997225,None,right,1.7492156000807881,133.34395629994106,None,133.34395629994106,None,135.11263809993397,None,left,0.9806120001012459,135.11263809993397,None,,,,,,,,,,,,,,,,,,,,,,,,,,,,,,,,,,,,,,,,,,,,,,,PPT42,001,2022-07-07_14h52.56.649,ABstudy,2022.1.4,59.964980422126,
AB_Prac,Lag1_T1P_T2A,1,P,A,5,6,4,5,11,Webcam,Did you see the Webcam?,0.5,0.016,JPG\,pictureframe04,binder03b,straw,adjustablewrench01b,webcam,cane,hairdryer02a,icepack,kitchenscale01a,lifejacket,piggybank,blankImage,blankImage,blankImage,blankImage,blankImage,blankImage,webcam,,,,,,,,0,4,4,6,,,,,,,,,,,,,,,136.12653739994857,137.13064989994746,137.11393479991239,137.71362579998095,137.71362579998095,None,left,2.4447522999253124,143.20035800000187,None,143.20035800000187,None,145.67240129993297,None,left,0.8528348999097943,145.67240129993297,None,,,,,,,,,,,,,,,,,,,,,,,,,,,,,,,,,,,,,,,,,,,,,,,PPT42,001,2022-07-07_14h52.56.649,ABstudy,2022.1.4,59.964980422126,
AB_Prac,Lag5_T1P_T2P,5,P,P,5,10,4,5,15,Vulture,Did you see the Vulture?,0.5,0.016,JPG\,shorts01,toast,ramekin01,bib,vulture,cracker02,date,glasses01a,hat03b,stapler01,measuringtape01,nail,pill,drum01,starfish01,blankImage,blankImage,vulture,,,,,,,,0,5,5,3,,,,,,,,,,,,,,,146.56056309991982,147.57433249999303,147.5576235000044,148.13862869993318,148.13862869993318,None,left,0.9669008000055328,155.75873779994436,None,155.75873779994436,None,156.75039389997255,None,left,0.3902784999227151,156.75039389997255,None,,,,,,,,,,,,,,,,,,,,,,,,,,,,,,,,,,,,,,,,,,,,,,,PPT42,001,2022-07-07_14h52.56.649,ABstudy,2022.1.4,59.964980422126,
AB_Prac,Lag5_T1A_T2A,5,A,A,6,11,5,5,16,castle,Did you see the castle?,0.5,0.016,JPG\,tape02a,englishmuffin,flask,ladle02a,monitor,peach01,keychain,squeegee01b,telephone01b,whisk,walkman,syringe02,baguette01,coaster,box01a,coffeepot03a,blankImage,None,,,,,,,,0,6,6,11,,,,,,,,,,,,,,,157.17013240000233,158.18514459999278,158.15172169997822,158.75956939999014,158.75956939999014,None,right,1.870217000017874,166.76733239996247,None,166.76733239996247,None,168.66488219995517,None,right,1.3876047999365255,168.66488219995517,None,,,,,,,,,,,,,,,,,,,,,,,,,,,,,,,,,,,,,,,,,,,,,,,PPT42,001,2022-07-07_14h52.56.649,ABstudy,2022.1.4,59.964980422126,
AB_Prac,Lag5_T1P_T2P,5,P,P,5,10,4,5,15,washing machine,Did you see the washing machine?,0.5,0.016,JPG\,waterbottle03,wheel01,flashlight02b,zucchini01,washingmachine,headphones02b,nutcracker01,paintroller01,paperclip03,stapler06,ribbon04,electricrazor,bottleofredwine01,pitabread,pot02a,blankImage,blankImage,washingmachine,,,,,,,,0,7,7,4,,,,,,,,,,,,,,,170.09399979992304,171.09773769997992,171.0810744999908,171.6666499999119,171.6666499999119,None,left,0.6353339999914169,179.16220060002524,None,179.16220060002524,None,179.82281779998448,None,left,0.606226300005801,179.82281779998448,None,,,,,,,,,,,,,,,,,,,,,,,,,,,,,,,,,,,,,,,,,,,,,,,PPT42,001,2022-07-07_14h52.56.649,ABstudy,2022.1.4,59.964980422126,
AB_Prac,Lag5_T1P_T2A,5,P,A,6,11,5,5,16,bread,Did you see the bread?,0.5,0.016,JPG\,cleaver01,clipboard,dustpan,hikingshoe01,notebook03a,baguette01,playingcard,pliers02b,styrofoamcup,rollingpin01a,swimgoggles,wineglass01,fryingpan02a,safetypin,syringe01,thimble,blankImage,baguette01,,,,,,,,0,8,8,8,,,,,,,,,,,,,,,180.4609070000006,181.4750077999197,181.44158260000404,182.0093929999275,182.0093929999275,None,left,2.319745499989949,190.07719470001757,None,190.07719470001757,None,192.41900090000127,None,right,1.2510013000573963,192.41900090000127,None,,,,,,,,,,,,,,,,,,,,,,,,,,,,,,,,,,,,,,,,,,,,,,,PPT42,001,2022-07-07_14h52.56.649,ABstudy,2022.1.4,59.964980422126,
AB_Prac,Lag1_T1P_T2P,1,P,P,6,7,5,5,12,triangle,Did you see the triangle?,0.5,0.016,JPG\,ginger,mousetrap,plum01,slipper01b,dropper01,triangle,stapler04b,pants,raspberry01,rope03,scale01a,vase01,blankImage,blankImage,blankImage,blankImage,blankImage,triangle,,,,,,,,0,9,9,1,,,,,,,,,,,,,,,193.68916169996373,194.7045554999495,194.67126430000644,195.2522428999655,195.2522428999655,None,left,0.8706636000424623,201.3664138999302,None,201.3664138999302,None,202.26217160001397,None,left,0.4947842999827117,202.26217160001397,None,,,,,,,,,,,,,,,,,,,,,,,,,,,,,,,,,,,,,,,,,,,,,,,PPT42,001,2022-07-07_14h52.56.649,ABstudy,2022.1.4,59.964980422126,
AB_Prac,Lag1_T1P_T2P,1,P,P,8,9,7,5,14,Tennis racket,Did you see the Tennis racket?,0.5,0.016,JPG\,coconut,computermouse06,croissant01,deodorant02a,pillow01a,peanut01,boot02b,tennisracket,stapler03b,crayon,eggplant,marker01a,plant01,radish01,blankImage,blankImage,blankImage,tennisracket,,,,,,,,0,10,10,0,,,,,,,,,,,,,,,202.78652959992178,203.7969737999374,203.7802838999778,204.3759119999595,204.3759119999595,None,right,1.5837449000682682,211.366066699964,None,211.366066699964,None,212.97317589994054,None,right,0.7116479000542313,212.97317589994054,None,,,,,,,,,,,,,,,,,,,,,,,,,,,,,,,,,,,,,,,,,,,,,,,PPT42,001,2022-07-07_14h52.56.649,ABstudy,2022.1.4,59.964980422126,
AB_Prac,Lag5_T1P_T2A,5,P,A,6,11,5,5,16,Wheat,Did you see the Wheat?,0.5,0.016,JPG\,bottleopener01,dentalfloss03b,cooler01,icecreamcone01a,paperclip01b,wheat,pencilsharpener02a,plasticbasket01a,toycar04,apricot,hairclip02,rock01a,honeydewmelon,antenna,blackberry,cardboardbox,blankImage,wheat,,,,,,,,0,11,11,7,,,,,,,,,,,,,,,213.71099920000415,214.72476239991374,214.7079112000065,215.30357480002567,215.30357480002567,None,left,2.8344111000187695,223.30615349998698,None,223.30615349998698,None,226.16967500001192,None,right,0.6996378999901935,226.16967500001192,None,,,,,,,,,,,,,,,,,,,,,,,,,,,,,,,,,,,,,,,,,,,,,,,PPT42,001,2022-07-07_14h52.56.649,ABstudy,2022.1.4,59.964980422126,
,,,,,,,,,,,,,,,,,,,,,,,,,,,,,,,,,,,,,,,,,,,,,,,,,,,,,,,,,,,,,,,,,,,,,,,,,,,,226.88820749998558,None,space,22.59720199997537,226.88820749998558,None,,,,,,,,,,,,,,,,,,,,,,,,,,,,,,,,,,,,,,,,,PPT42,001,2022-07-07_14h52.56.649,ABstudy,2022.1.4,59.964980422126,
AB,Lag5_T1P_T2A,5,P,A,6,11,5,5,16,fish,Did you see the fish?,0.12,0.016,JPG\,cucumber,ring01,lipstick02a,microscope,violin,redlionfish,celery,lighter01,cherry01,sewingmachine01a,belt02a,key01,binoculars01b,medal02b,watermelon01,dice05a,blankImage,redlionfish,,,,,,,,,,,,0,0,0,221,,,,,,,,,,,,,,,,,,,,,,,,,,,,,,,,,,,250.23800269991625,251.244420300005,251.2277981999796,251.860470399959,251.860470399959,None,253.7396983000217,None,right,3.7846997000742704,253.7396983000217,None,257.55311889993027,None,right,1.5151951999869198,257.55311889993027,None,,,,,,,,,,,,,,,,,,,,,,,PPT42,001,2022-07-07_14h52.56.649,ABstudy,2022.1.4,59.964980422126,
AB,Lag1_T1P_T2P,1,P,P,8,9,7,3,12,Eiffel tower,Did you see the Eiffel tower?,0.12,0.016,JPG\,celery,tennisball01b,calculator01,pear01,screw02,orange,button01,eiffeltower,stapler03b,apple07,iron01b,brownsugar,blankImage,blankImage,blankImage,blankImage,blankImage,eiffeltower,,,,,,,,,,,,0,1,1,40,,,,,,,,,,,,,,,,,,,,,,,,,,,,,,,,,,,259.0960755000124,260.10281930002384,260.06951259996276,260.6429283999605,260.6429283999605,None,262.03968279995024,None,left,1.324413700029254,262.03968279995024,None,263.38959639996756,None,right,1.9432165999896824,263.38959639996756,None,,,,,,,,,,,,,,,,,,,,,,,PPT42,001,2022-07-07_14h52.56.649,ABstudy,2022.1.4,59.964980422126,
AB,Lag5_T1A_T2P,5,A,P,5,10,4,4,14,mail box,Did you see the mail box?,0.12,0.016,JPG\,button01,celery,birthdaycandle,apple07,avocado01,tennisball01b,dice05a,teabag,clock01a,stapler05,tomato01,scarf,orange,battery02b,blankImage,blankImage,blankImage,jeep,,,,,,,,,,,,0,2,2,263,,,,,,,,,,,,,,,,,,,,,,,,,,,,,,,,,,,265.3635262999451,266.3762509999797,266.3596816000063,266.9592360999668,266.9592360999668,None,268.68170850002207,None,right,1.4027923999819905,268.68170850002207,None,270.1130463000154,None,left,0.6603760999860242,270.1130463000154,None,,,,,,,,,,,,,,,,,,,,,,,PPT42,001,2022-07-07_14h52.56.649,ABstudy,2022.1.4,59.964980422126,
AB,Lag5_T1P_T2A,5,P,A,7,12,6,5,17,shoulder,Did you see the shoulder?,0.12,0.016,JPG\,battery02b,sunglasses04,pear01,tennisball01b,clock01a,speaker04,shoulder,spoon01,alligator,pineapple01a,avocado01,grape01,blueberry01,violin,strawberry,sock01a,blankImage,shoulder,,,,,,,,,,,,0,3,3,224,,,,,,,,,,,,,,,,,,,,,,,,,,,,,,,,,,,270.8415597999701,271.8481170999585,271.8310771000106,272.41625889996067,272.41625889996067,None,274.3416767999297,None,left,1.822461700066924,274.3416767999297,None,276.1857450000243,None,right,1.6902802999829873,276.1857450000243,None,,,,,,,,,,,,,,,,,,,,,,,PPT42,001,2022-07-07_14h52.56.649,ABstudy,2022.1.4,59.964980422126,
AB,Lag1_T1P_T2P,1,P,P,6,7,5,4,11,no parking sign,Did you see the no parking sign?,0.12,0.016,JPG\,fork03c,belt02a,grape01,computerkeyboard02,lemon02,parkingsign,stapler05,toiletpaper01a,toaster01,lipstick02a,book01b,blankImage,blankImage,blankImage,blankImage,blankImage,blankImage,parkingsign,,,,,,,,,,,,0,4,4,47,,,,,,,,,,,,,,,,,,,,,,,,,,,,,,,,,,,277.91062979993876,278.9218177999137,278.9051488999976,279.47766640002374,279.47766640002374,None,280.9209825999569,None,left,3.5632236000383273,280.9209825999569,None,284.5106464999262,None,left,0.541649799910374,284.5106464999262,None,,,,,,,,,,,,,,,,,,,,,,,PPT42,001,2022-07-07_14h52.56.649,ABstudy,2022.1.4,59.964980422126,
AB,Lag5_T1P_T2A,5,P,A,8,13,7,3,16,Shelves,Did you see the Shelves?,0.12,0.016,JPG\,pineapple01a,leaf02a,grape01,toiletpaper01a,match,tennisball01b,spoon01,shelves,pig,measuringcup01,ring01,lemon02,dice05a,pizza,potato02b,eraser,blankImage,shelves,,,,,,,,,,,,0,5,5,222,,,,,,,,,,,,,,,,,,,,,,,,,,,,,,,,,,,285.08259539993014,286.09585049992893,286.07906759995967,286.66564030002337,286.66564030002337,None,288.62034020002466,None,left,1.472792899934575,288.62034020002466,None,290.11627509992104,None,right,0.9605881000170484,290.11627509992104,None,,,,,,,,,,,,,,,,,,,,,,,PPT42,001,2022-07-07_14h52.56.649,ABstudy,2022.1.4,59.964980422126,
AB,Lag1_T1P_T2P,1,P,P,8,9,7,4,13,dart board,Did you see the dart board?,0.12,0.016,JPG\,rice,watermelon01,tableknife02,scarf,computerkeyboard02,cauliflower01,battery02b,dartboard,stapler01,sandal,sponge01,microscope,tomato01,blankImage,blankImage,blankImage,blankImage,dartboard,,,,,,,,,,,,0,6,6,80,,,,,,,,,,,,,,,,,,,,,,,,,,,,,,,,,,,291.1054598999908,292.1186487999512,292.10198609996587,292.68233829992823,292.68233829992823,None,294.3021377000259,None,left,1.0877979999640957,294.3021377000259,None,295.42155839991756,None,left,0.3524027999956161,295.42155839991756,None,,,,,,,,,,,,,,,,,,,,,,,PPT42,001,2022-07-07_14h52.56.649,ABstudy,2022.1.4,59.964980422126,
AB,Lag1_T1A_T2P,1,A,P,5,6,4,3,9,Stool,Did you see the Stool?,0.12,0.016,JPG\,cherry01,cymbal,envelope03a,foosballtable,shirt02,stapler01,sewingmachine01a,candle08b,battery02b,blankImage,blankImage,blankImage,blankImage,blankImage,blankImage,blankImage,blankImage,hulahoop,,,,,,,,,,,,0,7,7,236,,,,,,,,,,,,,,,,,,,,,,,,,,,,,,,,,,,295.80749479995575,296.8066990999505,296.78986849996727,297.3730333999265,297.3730333999265,None,298.50344220001716,None,right,2.429455199977383,298.50344220001716,None,300.96079169993754,None,right,0.4114688999252394,300.96079169993754,None,,,,,,,,,,,,,,,,,,,,,,,PPT42,001,2022-07-07_14h52.56.649,ABstudy,2022.1.4,59.964980422126,
AB,Lag1_T1A_T2P,1,A,P,7,8,6,3,11,Fox,Did you see the Fox?,0.12,0.016,JPG\,toaster01,chain01,sponge01,baseball01a,carrot01,belt02a,book01b,stapler03b,grape01,brick,celery,blankImage,blankImage,blankImage,blankImage,blankImage,blankImage,fingerprint,,,,,,,,,,,,0,8,8,234,,,,,,,,,,,,,,,,,,,,,,,,,,,,,,,,,,,301.40801160002593,302.4120325000258,302.3952713999897,303.0112193999812,303.0112193999812,None,304.31154899997637,None,right,2.9410449999850243,304.31154899997637,None,307.28374430001713,None,right,0.7047271999763325,307.28374430001713,None,,,,,,,,,,,,,,,,,,,,,,,PPT42,001,2022-07-07_14h52.56.649,ABstudy,2022.1.4,59.964980422126,
AB,Lag1_T1P_T2P,1,P,P,6,7,5,5,12,Snowboard,Did you see the Snowboard?,0.12,0.016,JPG\,belt02a,measuringcup01,spoon01,chain01,greenolive,snowboard,stapler01,onion,fan,strawberry,candle01,broom01,blankImage,blankImage,blankImage,blankImage,blankImage,snowboard,,,,,,,,,,,,0,9,9,49,,,,,,,,,,,,,,,,,,,,,,,,,,,,,,,,,,,308.0235748999985,309.0353272999637,309.018622100004,309.5918842999963,309.5918842999963,None,311.02094249997754,None,right,3.7358475000364706,311.02094249997754,None,314.7745626999531,None,left,0.42937559995334595,314.7745626999531,None,,,,,,,,,,,,,,,,,,,,,,,PPT42,001,2022-07-07_14h52.56.649,ABstudy,2022.1.4,59.964980422126,
AB,Lag1_T1P_T2P,1,P,P,5,6,4,5,11,Light switch,Did you see the Light switch?,0.12,0.016,JPG\,iron01b,orange,birthdaycandle,potato02b,lightswitch01,stapler03b,key01,candle08b,celery,tableknife02,pen04b,blankImage,blankImage,blankImage,blankImage,blankImage,blankImage,lightswitch01,,,,,,,,,,,,0,10,10,18,,,,,,,,,,,,,,,,,,,,,,,,,,,,,,,,,,,315.2789682999719,316.2925246999366,316.27580810000654,316.8621978999581,316.8621978999581,None,318.15469909994863,None,right,1.282320600003004,318.15469909994863,None,319.46251540002413,None,left,0.39824489993043244,319.46251540002413,None,,,,,,,,,,,,,,,,,,,,,,,PPT42,001,2022-07-07_14h52.56.649,ABstudy,2022.1.4,59.964980422126,
AB,Lag1_T1P_T2P,1,P,P,7,8,6,3,11,Moose,Did you see the Moose?,0.12,0.016,JPG\,sock01a,spoon01,alligator,comb02a,printer02,medal02b,moose,stapler03a,greenolive,computerkeyboard02,cauliflower01,blankImage,blankImage,blankImage,blankImage,blankImage,blankImage,moose,,,,,,,,,,,,0,11,11,67,,,,,,,,,,,,,,,,,,,,,,,,,,,,,,,,,,,319.8832810999593,320.897143799928,320.8805381999118,321.4588031999301,321.4588031999301,None,322.84677309996914,None,right,1.1419686999870464,322.84677309996914,None,324.0170606999891,None,left,0.7710270000388846,324.0170606999891,None,,,,,,,,,,,,,,,,,,,,,,,PPT42,001,2022-07-07_14h52.56.649,ABstudy,2022.1.4,59.964980422126,
AB,Lag5_T1P_T2P,5,P,P,5,10,4,3,13,rose,Did you see the rose?,0.12,0.016,JPG\,lipstick02a,cucumber,candle08b,printer02,rose,violin,paintbrush01,lighter01,belt02a,stapler03b,thermometer02b,microscope,cigarette,blankImage,blankImage,blankImage,blankImage,rose,,,,,,,,,,,,0,12,12,158,,,,,,,,,,,,,,,,,,,,,,,,,,,,,,,,,,,324.8213234000141,325.8354038000107,325.81863250001334,326.4568427000195,326.38983160001226,None,328.0100191999227,None,right,1.7631506999023259,328.0100191999227,None,329.78992829995696,None,left,0.910257300012745,329.78992829995696,None,,,,,,,,,,,,,,,,,,,,,,,PPT42,001,2022-07-07_14h52.56.649,ABstudy,2022.1.4,59.964980422126,
AB,Lag1_T1P_T2P,1,P,P,8,9,7,3,12,Wheelchair,Did you see the Wheelchair?,0.12,0.016,JPG\,cigarette,pig,banana01,strawberry,clock01a,plate01b,spoon01,wheelchair,stapler03b,pineapple01a,chain01,paintbrush01,blankImage,blankImage,blankImage,blankImage,blankImage,wheelchair,,,,,,,,,,,,0,13,13,27,,,,,,,,,,,,,,,,,,,,,,,,,,,,,,,,,,,330.73047249997035,331.7412637999514,331.72446509997826,332.284368099994,332.284368099994,None,333.8576588999713,None,left,3.170786799979396,333.8576588999713,None,337.047622699989,None,right,1.6525626999791712,337.047622699989,None,,,,,,,,,,,,,,,,,,,,,,,PPT42,001,2022-07-07_14h52.56.649,ABstudy,2022.1.4,59.964980422126,
AB,Lag5_T1P_T2P,5,P,P,7,12,6,4,16,Recycling bin,Did you see the Recycling bin?,0.12,0.016,JPG\,broccoli01a,scissors01,toothbrush03b,foosballtable,iron01b,brick,recyclingbin,toiletpaper01a,cd,garlic01a,carrot01,stapler03a,envelope03a,battery02b,balloon01b,broom01,blankImage,recyclingbin,,,,,,,,,,,,0,14,14,157,,,,,,,,,,,,,,,,,,,,,,,,,,,,,,,,,,,338.7380327999126,339.74928039999213,339.7325529999798,340.3215992000187,340.3215992000187,None,342.21467589994427,None,right,1.0546733000082895,342.21467589994427,None,343.28640290000476,None,left,0.6698108999989927,343.28640290000476,None,,,,,,,,,,,,,,,,,,,,,,,PPT42,001,2022-07-07_14h52.56.649,ABstudy,2022.1.4,59.964980422126,
AB,Lag5_T1P_T2A,5,P,A,8,13,7,5,18,Nunchuks,Did you see the Nunchuks?,0.12,0.016,JPG\,celery,tennisball01b,calculator01,pear01,screw02,orange,button01,nunchuk,onion,apple07,iron01b,brownsugar,banana01,paintbrush01,dandelion,toothbrush03b,blankImage,nunchuk,,,,,,,,,,,,0,15,15,218,,,,,,,,,,,,,,,,,,,,,,,,,,,,,,,,,,,344.0438792000059,345.0545314999763,345.0376940999413,345.62261830002535,345.62261830002535,None,347.5151949999854,None,right,4.464853100012988,347.5151949999854,None,352.01147149992175,None,right,0.21665290009696037,352.01147149992175,None,,,,,,,,,,,,,,,,,,,,,,,PPT42,001,2022-07-07_14h52.56.649,ABstudy,2022.1.4,59.964980422126,
AB,Lag1_T1A_T2P,1,A,P,8,9,7,3,12,elbow,Did you see the elbow?,0.12,0.016,JPG\,watermelon01,cigarette,faucet,cymbal,cauliflower01,feather03a,cherry01,broom01,stapler01,key01,baseball01a,iron01b,blankImage,blankImage,blankImage,blankImage,blankImage,cashregister01,,,,,,,,,,,,0,16,16,251,,,,,,,,,,,,,,,,,,,,,,,,,,,,,,,,,,,352.2488514999859,353.2627078000223,353.2459239999298,353.90840610000305,353.8222298999317,None,355.3449248999823,None,right,1.5792676999699324,355.3449248999823,None,356.9498381000012,None,right,0.4863528999267146,356.9498381000012,None,,,,,,,,,,,,,,,,,,,,,,,PPT42,001,2022-07-07_14h52.56.649,ABstudy,2022.1.4,59.964980422126,
AB,Lag5_T1A_T2P,5,A,P,6,11,5,5,16,baseball bat,Did you see the baseball bat?,0.12,0.016,JPG\,avocado01,aceofdiamond,match,cauliflower01,paintbrush01,clock01a,pig,cd,balloon01b,cellphone,stapler01,pear01,toaster01,sponge01,orange,blueberry01,blankImage,stool01,,,,,,,,,,,,0,17,17,273,,,,,,,,,,,,,,,,,,,,,,,,,,,,,,,,,,,357.4714110000059,358.4845619999105,358.4677651999518,359.0631715999916,359.0631715999916,None,361.0291409000056,None,right,1.1266818000003695,361.0291409000056,None,362.188513699919,None,left,0.43127419997472316,362.188513699919,None,,,,,,,,,,,,,,,,,,,,,,,PPT42,001,2022-07-07_14h52.56.649,ABstudy,2022.1.4,59.964980422126,
AB,Lag5_T1P_T2A,5,P,A,5,10,4,4,14,rocket,Did you see the rocket?,0.12,0.016,JPG\,fan,tomato01,candy,screwdriver04b,spacerocket,cd,thermometer02b,apple07,button01,plate01b,brownsugar,lighter01,clock01a,envelope03a,blankImage,blankImage,blankImage,spacerocket,,,,,,,,,,,,0,18,18,226,,,,,,,,,,,,,,,,,,,,,,,,,,,,,,,,,,,362.6466436999617,363.65597349999007,363.6392283999594,364.2362595999148,364.2362595999148,None,365.9613346999977,None,right,0.9556817000266165,365.9613346999977,None,366.94341169996187,None,right,0.25257170002441853,366.94341169996187,None,,,,,,,,,,,,,,,,,,,,,,,PPT42,001,2022-07-07_14h52.56.649,ABstudy,2022.1.4,59.964980422126,
AB,Lag5_T1P_T2P,5,P,P,8,13,7,4,17,Accordion,Did you see the Accordion?,0.12,0.016,JPG\,toiletpaper01a,lipstick02a,potato02b,speaker04,globe,strawberry,carrot01,accordion01,sock01a,candle08b,pen04b,calculator01,stapler01,brick,pear01,fork03c,blankImage,accordion01,,,,,,,,,,,,0,19,19,162,,,,,,,,,,,,,,,,,,,,,,,,,,,,,,,,,,,367.23550629999954,368.244624099927,368.2290834999876,368.8257945999503,368.8257945999503,None,370.76383710000664,None,right,1.2641424000030383,370.76383710000664,None,372.050650899997,None,left,0.3132484999950975,372.050650899997,None,,,,,,,,,,,,,,,,,,,,,,,PPT42,001,2022-07-07_14h52.56.649,ABstudy,2022.1.4,59.964980422126,
AB,Lag1_T1P_T2P,1,P,P,7,8,6,3,11,cloud,Did you see the cloud?,0.12,0.016,JPG\,lighter01,hammer01,spoon01,chain01,cymbal,sponge01,cloud,stapler06,pig,watermelon01,cauliflower01,blankImage,blankImage,blankImage,blankImage,blankImage,blankImage,cloud,,,,,,,,,,,,0,20,20,36,,,,,,,,,,,,,,,,,,,,,,,,,,,,,,,,,,,372.39120979991276,373.3994270999683,373.3826435999945,373.96338959992863,373.96338959992863,None,375.2801749999635,None,right,3.42753200000152,375.2801749999635,None,378.7381816999987,None,right,0.8190971999429166,378.7381816999987,None,,,,,,,,,,,,,,,,,,,,,,,PPT42,001,2022-07-07_14h52.56.649,ABstudy,2022.1.4,59.964980422126,
AB,Lag5_T1P_T2P,5,P,P,5,10,4,3,13,bathtub,Did you see the bathtub?,0.12,0.016,JPG\,belt02a,sunglasses04,computerkeyboard02,cherry01,bathtub,eraser,watch02a,dice05a,blueberry01,stapler04b,match,leaf02a,iron01b,blankImage,blankImage,blankImage,blankImage,bathtub,,,,,,,,,,,,0,21,21,103,,,,,,,,,,,,,,,,,,,,,,,,,,,,,,,,,,,379.5923727999907,380.6065204999177,380.5899712999817,381.1595649999799,381.1595649999799,None,382.77561949996743,None,right,1.3081778000341728,382.77561949996743,None,384.1110573000042,None,left,0.42889429989736527,384.1110573000042,None,,,,,,,,,,,,,,,,,,,,,,,PPT42,001,2022-07-07_14h52.56.649,ABstudy,2022.1.4,59.964980422126,
AB,Lag1_T1P_T2P,1,P,P,5,6,4,3,9,hockey stick,Did you see the hockey stick?,0.12,0.016,JPG\,violin,pizza,toothbrush03b,pineapple01a,hockeystick,stapler03b,candy,dandelion,clock04,blankImage,blankImage,blankImage,blankImage,blankImage,blankImage,blankImage,blankImage,hockeystick,,,,,,,,,,,,0,22,22,63,,,,,,,,,,,,,,,,,,,,,,,,,,,,,,,,,,,384.5683163999347,385.5781904999167,385.5615420999238,386.1337565999711,386.1337565999711,None,387.26288829999976,None,right,1.7973098000511527,387.26288829999976,None,389.08266339998227,None,right,0.7296076000202447,389.08266339998227,None,,,,,,,,,,,,,,,,,,,,,,,PPT42,001,2022-07-07_14h52.56.649,ABstudy,2022.1.4,59.964980422126,
AB,Lag5_T1P_T2P,5,P,P,7,12,6,4,16,flower,Did you see the flower?,0.12,0.016,JPG\,cucumber,sponge01,alligator,pear01,ashtray01,hammer01,hibiscusflower02,battery02b,fork03c,binoculars01b,mushroom01,stapler01,leaf02a,acorn,comb02a,screwdriver04b,blankImage,hibiscusflower02,,,,,,,,,,,,0,23,23,132,,,,,,,,,,,,,,,,,,,,,,,,,,,,,,,,,,,389.8381964999717,390.8501632999396,390.8335025999695,391.430974900024,391.430974900024,None,393.35893119999673,None,left,1.1970305999275297,393.35893119999673,None,394.58698010002263,None,right,0.9860440000193194,394.58698010002263,None,,,,,,,,,,,,,,,,,,,,,,,PPT42,001,2022-07-07_14h52.56.649,ABstudy,2022.1.4,59.964980422126,
AB,Lag5_T1P_T2P,5,P,P,5,10,4,3,13,lollipop,Did you see the lollipop?,0.12,0.016,JPG\,brownsugar,candle01,match,printer02,lollipop04,balloon01b,belt02a,potato02b,computerkeyboard02,stapler03a,rice,mushroom01,pencil01,blankImage,blankImage,blankImage,blankImage,lollipop04,,,,,,,,,,,,0,24,24,112,,,,,,,,,,,,,,,,,,,,,,,,,,,,,,,,,,,395.65637769992463,396.65585629991256,396.65585629991256,397.15842240001075,397.15842240001075,None,398.72353680001106,None,right,1.569048999925144,398.72353680001106,None,400.3121116999537,None,left,0.917068799957633,400.3121116999537,None,,,,,,,,,,,,,,,,,,,,,,,PPT42,001,2022-07-07_14h52.56.649,ABstudy,2022.1.4,59.964980422126,
AB,Lag1_T1P_T2A,1,P,A,7,8,6,3,11,Snowshoe,Did you see the Snowshoe?,0.12,0.016,JPG\,birthdaycandle,mushroom01,strawberry,match,cherry01,eraser,snowshoe,thermometer02b,sock01a,ring01,feather03a,blankImage,blankImage,blankImage,blankImage,blankImage,blankImage,snowshoe,,,,,,,,,,,,0,25,25,194,,,,,,,,,,,,,,,,,,,,,,,,,,,,,,,,,,,401.27341199992225,402.2785663999384,402.26347919995897,402.779002700001,402.7630384999793,None,404.22183079994284,None,right,0.9904058000538498,404.22183079994284,None,405.230838199961,None,right,0.34959870006423444,405.230838199961,None,,,,,,,,,,,,,,,,,,,,,,,PPT42,001,2022-07-07_14h52.56.649,ABstudy,2022.1.4,59.964980422126,
AB,Lag1_T1P_T2P,1,P,P,7,8,6,3,11,harmonica,Did you see the harmonica?,0.12,0.016,JPG\,cucumber,ring01,lipstick02a,microscope,violin,garlic01a,harmonica,stapler03b,cherry01,sewingmachine01a,belt02a,blankImage,blankImage,blankImage,blankImage,blankImage,blankImage,harmonica,,,,,,,,,,,,0,26,26,43,,,,,,,,,,,,,,,,,,,,,,,,,,,,,,,,,,,405.60161669994704,406.5995267999824,406.58419299998786,407.1842964999378,407.1842964999378,None,408.5310592999449,None,left,0.7925885000731796,408.5310592999449,None,409.3520250999136,None,right,0.9564620999153703,409.3520250999136,None,,,,,,,,,,,,,,,,,,,,,,,PPT42,001,2022-07-07_14h52.56.649,ABstudy,2022.1.4,59.964980422126,
AB,Lag1_T1P_T2P,1,P,P,5,6,4,3,9,mail box,Did you see the mail box?,0.12,0.016,JPG\,watermelon01,banana01,ring01,pencil01,mailbox02,stapler04b,cucumber,thermometer02b,key01,blankImage,blankImage,blankImage,blankImage,blankImage,blankImage,blankImage,blankImage,mailbox02,,,,,,,,,,,,0,27,27,21,,,,,,,,,,,,,,,,,,,,,,,,,,,,,,,,,,,410.3419874999672,411.35389809997287,411.3371808999218,411.9145105999196,411.9145105999196,None,413.0436693999218,None,right,1.6735612000338733,413.0436693999218,None,414.7401603999315,None,left,0.9609329999657348,414.7401603999315,None,,,,,,,,,,,,,,,,,,,,,,,PPT42,001,2022-07-07_14h52.56.649,ABstudy,2022.1.4,59.964980422126,
AB,Lag1_T1A_T2A,1,A,A,5,6,4,3,9,Pigeon,Did you see the Pigeon?,0.12,0.016,JPG\,candle01,paintbrush01,scissors01,fan,microscope,toothbrush03b,candle08b,watermelon01,teabag,blankImage,blankImage,blankImage,blankImage,blankImage,blankImage,blankImage,blankImage,floorlamp,,,,,,,,,,,,0,28,28,286,,,,,,,,,,,,,,,,,,,,,,,,,,,,,,,,,,,415.7271515999455,416.7421485999366,416.7254690999398,417.3490955999587,417.2780515999766,None,418.38926139997784,None,right,1.0321847000159323,418.38926139997784,None,419.44493879994843,None,right,0.24739209993276745,419.44493879994843,None,,,,,,,,,,,,,,,,,,,,,,,PPT42,001,2022-07-07_14h52.56.649,ABstudy,2022.1.4,59.964980422126,
AB,Lag1_T1P_T2P,1,P,P,6,7,5,3,10,cupcake,Did you see the cupcake?,0.12,0.016,JPG\,printer02,leaf02a,cauliflower01,sock01a,brownsugar,cupcake,stapler01,orange,belt02a,shirt02,blankImage,blankImage,blankImage,blankImage,blankImage,blankImage,blankImage,cupcake,,,,,,,,,,,,0,29,29,38,,,,,,,,,,,,,,,,,,,,,,,,,,,,,,,,,,,419.715979999979,420.72988030000124,420.69636429997627,421.3296905999305,421.3296905999305,None,422.6022855999181,None,left,0.9619975999230519,422.6022855999181,None,423.5828743999591,None,right,3.365104400087148,423.5828743999591,None,,,,,,,,,,,,,,,,,,,,,,,PPT42,001,2022-07-07_14h52.56.649,ABstudy,2022.1.4,59.964980422126,
AB,Lag5_T1P_T2P,5,P,P,7,12,6,5,17,truck,Did you see the truck?,0.12,0.016,JPG\,binoculars01b,speaker04,sandal,envelope03a,plate01b,comb02a,boxtruck,chain01,measuringcup01,key01,medal02b,stapler05,tennisball01b,pizza,cigarette,sunglasses04,blankImage,boxtruck,,,,,,,,,,,,0,30,30,166,,,,,,,,,,,,,,,,,,,,,,,,,,,,,,,,,,,426.97407699993346,427.9870539000258,427.97035239997786,428.5571659000125,428.5571659000125,None,430.5062623999547,None,left,4.081838299985975,430.5062623999547,None,434.6100663000252,None,right,0.38587410002946854,434.6100663000252,None,,,,,,,,,,,,,,,,,,,,,,,PPT42,001,2022-07-07_14h52.56.649,ABstudy,2022.1.4,59.964980422126,
AB,Lag5_T1P_T2P,5,P,P,7,12,6,5,17,flower,Did you see the flower?,0.12,0.016,JPG\,leaf02a,pear01,measuringcup01,cigarette,fan,lemon02,lily,tableknife02,ring01,pencil01,cellphone,stapler01,carrot01,binoculars01b,sock01a,book01b,blankImage,lily,,,,,,,,,,,,0,31,31,134,,,,,,,,,,,,,,,,,,,,,,,,,,,,,,,,,,,435.0293808999704,436.04484849993605,436.01143969991244,436.5808252999559,436.5808252999559,None,438.56027609994635,None,right,1.2120078000007197,438.56027609994635,None,439.799211799982,None,right,0.17308099998626858,439.799211799982,None,,,,,,,,,,,,,,,,,,,,,,,PPT42,001,2022-07-07_14h52.56.649,ABstudy,2022.1.4,59.964980422126,
AB,Lag5_T1P_T2P,5,P,P,6,11,5,4,15,boxing glove,Did you see the boxing glove?,0.12,0.016,JPG\,button01,celery,birthdaycandle,apple07,avocado01,boxingglove01,dice05a,teabag,clock01a,feather03a,stapler06,scarf,orange,battery02b,thermometer02b,blankImage,blankImage,boxingglove01,,,,,,,,,,,,0,32,32,165,,,,,,,,,,,,,,,,,,,,,,,,,,,,,,,,,,,440.006202199962,441.0167151999194,440.9999349999707,441.5872629999649,441.5872629999649,None,443.425761600025,None,left,0.7064556999830529,443.425761600025,None,444.15297649998683,None,right,0.6512583000585437,444.15297649998683,None,,,,,,,,,,,,,,,,,,,,,,,PPT42,001,2022-07-07_14h52.56.649,ABstudy,2022.1.4,59.964980422126,
AB,Lag1_T1P_T2P,1,P,P,8,9,7,3,12,zebra,Did you see the zebra?,0.12,0.016,JPG\,apple07,toiletpaper01a,pizza,dandelion,greenolive,eraser,microscope,zebra,stapler03b,lipstick02a,balloon01b,sandal,blankImage,blankImage,blankImage,blankImage,blankImage,zebra,,,,,,,,,,,,0,33,33,28,,,,,,,,,,,,,,,,,,,,,,,,,,,,,,,,,,,444.88227419997565,445.8876865999773,445.8720181999961,446.4648915999569,446.4648915999569,None,447.9232761999592,None,left,0.7685658000409603,447.9232761999592,None,448.7244429999264,None,right,0.8952933000400662,448.7244429999264,None,,,,,,,,,,,,,,,,,,,,,,,PPT42,001,2022-07-07_14h52.56.649,ABstudy,2022.1.4,59.964980422126,
AB,Lag5_T1A_T2A,5,A,A,5,10,4,5,15,window,Did you see the window?,0.12,0.016,JPG\,leaf02a,apple07,cd,pineapple01a,envelope03a,paintbrush01,pig,canoftennisballs,rice,feather03a,lemon02,balloon01b,avocado01,calculator01,watermelon01,blankImage,blankImage,saxophone,,,,,,,,,,,,0,34,34,301,,,,,,,,,,,,,,,,,,,,,,,,,,,,,,,,,,,449.6467481999425,450.65965439996216,450.64308349997737,451.2211284999503,451.2211284999503,None,453.07301109994296,None,right,0.8749345000833273,453.07301109994296,None,453.9623047999339,None,right,0.19486779998987913,453.9623047999339,None,,,,,,,,,,,,,,,,,,,,,,,PPT42,001,2022-07-07_14h52.56.649,ABstudy,2022.1.4,59.964980422126,
AB,Lag5_T1P_T2A,5,P,A,8,13,7,4,17,Tarantula,Did you see the Tarantula?,0.12,0.016,JPG\,binoculars01b,speaker04,sandal,envelope03a,plate01b,comb02a,battery02b,tarantula,measuringcup01,key01,medal02b,lamp04a,tennisball01b,pizza,cigarette,sunglasses04,blankImage,tarantula,,,,,,,,,,,,0,35,35,201,,,,,,,,,,,,,,,,,,,,,,,,,,,,,,,,,,,454.189011999988,455.1974237000104,455.1805877999868,455.7716284999624,455.7716284999624,None,457.730440299958,None,left,0.6254392999690026,457.730440299958,None,458.3864604999544,None,right,0.8330573999555781,458.3864604999544,None,,,,,,,,,,,,,,,,,,,,,,,PPT42,001,2022-07-07_14h52.56.649,ABstudy,2022.1.4,59.964980422126,
AB,Lag1_T1A_T2P,1,A,P,5,6,4,4,10,Bull,Did you see the Bull?,0.12,0.016,JPG\,celery,pencil01,fan,foosballtable,iron01b,stapler01,potato02b,fork03c,button01,pineapple01a,blankImage,blankImage,blankImage,blankImage,blankImage,blankImage,blankImage,spiderweb,,,,,,,,,,,,0,36,36,244,,,,,,,,,,,,,,,,,,,,,,,,,,,,,,,,,,,459.2621265000198,460.26896659994964,460.2523431999143,460.83656379999593,460.83656379999593,None,462.10440419998486,None,right,1.3715437999926507,462.10440419998486,None,463.5058436000254,None,right,0.21810179995372891,463.5058436000254,None,,,,,,,,,,,,,,,,,,,,,,,PPT42,001,2022-07-07_14h52.56.649,ABstudy,2022.1.4,59.964980422126,
AB,Lag5_T1P_T2P,5,P,P,6,11,5,4,15,punching bag,Did you see the punching bag?,0.12,0.016,JPG\,foosballtable,cigarette,pen04b,birthdaycandle,hammer01,punchingbag,binoculars01b,chain01,potato02b,cauliflower01,stapler04b,ashtray01,scarf,cellphone,calculator01,blankImage,blankImage,punchingbag,,,,,,,,,,,,0,37,37,156,,,,,,,,,,,,,,,,,,,,,,,,,,,,,,,,,,,463.76269549992867,464.7736658999929,464.7570871999487,465.2583384999307,465.2583384999307,None,467.2136659999378,None,left,0.8302384000271559,467.2136659999378,None,468.0767820000183,None,right,0.39997239992953837,468.0767820000183,None,,,,,,,,,,,,,,,,,,,,,,,PPT42,001,2022-07-07_14h52.56.649,ABstudy,2022.1.4,59.964980422126,
AB,Lag5_T1P_T2P,5,P,P,7,12,6,5,17,flamingo,Did you see the flamingo?,0.12,0.016,JPG\,pig,belt02a,rice,screwdriver04b,candle01,apple07,flamingo,pear01,feather03a,match,thermometer02b,stapler06,lemon02,violin,medal02b,pineapple01a,blankImage,flamingo,,,,,,,,,,,,0,38,38,153,,,,,,,,,,,,,,,,,,,,,,,,,,,,,,,,,,,468.50055609992705,469.51191160001326,469.4950009000022,469.99680620001163,469.99680620001163,None,472.01890549995005,None,left,1.752960600075312,472.01890549995005,None,473.79907790001016,None,right,0.5407986000645906,473.79907790001016,None,,,,,,,,,,,,,,,,,,,,,,,PPT42,001,2022-07-07_14h52.56.649,ABstudy,2022.1.4,59.964980422126,
AB,Lag1_T1P_T2P,1,P,P,6,7,5,3,10,spider web,Did you see the spider web?,0.12,0.016,JPG\,toaster01,chain01,sponge01,baseball01a,carrot01,spiderweb,stapler03b,iron01b,grape01,brick,blankImage,blankImage,blankImage,blankImage,blankImage,blankImage,blankImage,spiderweb,,,,,,,,,,,,0,39,39,72,,,,,,,,,,,,,,,,,,,,,,,,,,,,,,,,,,,474.3699385999935,475.38402449991554,475.36728150001727,476.01655910001136,475.93566989991814,None,477.1779150000075,None,left,2.6901394999586046,477.1779150000075,None,479.8913595000049,None,right,0.4418062000768259,479.8913595000049,None,,,,,,,,,,,,,,,,,,,,,,,PPT42,001,2022-07-07_14h52.56.649,ABstudy,2022.1.4,59.964980422126,
AB,Lag1_T1P_T2P,1,P,P,6,7,5,3,10,fortune cookie,Did you see the fortune cookie?,0.12,0.016,JPG\,scissors01,grape01,mushroom01,toiletpaper01a,greenolive,fortunecookie,stapler03b,ashtray01,carrot01,pineapple01a,blankImage,blankImage,blankImage,blankImage,blankImage,blankImage,blankImage,fortunecookie,,,,,,,,,,,,0,40,40,42,,,,,,,,,,,,,,,,,,,,,,,,,,,,,,,,,,,480.37038520001806,481.37311609997414,481.339794499916,481.91268720000517,481.91268720000517,None,483.13660889992025,None,right,3.060793700045906,483.13660889992025,None,486.23074849997647,None,left,0.49302570009604096,486.23074849997647,None,,,,,,,,,,,,,,,,,,,,,,,PPT42,001,2022-07-07_14h52.56.649,ABstudy,2022.1.4,59.964980422126,
AB,Lag1_T1P_T2P,1,P,P,5,6,4,5,11,golf ball,Did you see the golf ball?,0.12,0.016,JPG\,foosballtable,cigarette,pen04b,birthdaycandle,golfball,stapler05,binoculars01b,chain01,potato02b,cauliflower01,paintbrush01,blankImage,blankImage,blankImage,blankImage,blankImage,blankImage,golfball,,,,,,,,,,,,0,41,41,13,,,,,,,,,,,,,,,,,,,,,,,,,,,,,,,,,,,486.75545820000116,487.763654600014,487.74810520000756,488.26606209995225,488.24969430000056,None,489.6851264999714,None,right,1.4623818000545725,489.6851264999714,None,491.1669624999631,None,left,1.5248591999989003,491.1669624999631,None,,,,,,,,,,,,,,,,,,,,,,,PPT42,001,2022-07-07_14h52.56.649,ABstudy,2022.1.4,59.964980422126,
AB,Lag1_T1P_T2P,1,P,P,7,8,6,3,11,trampoline,Did you see the trampoline?,0.12,0.016,JPG\,dice05a,watch02a,pig,lighter01,button01,strawberry,trampoline,stapler03a,plate01b,pen04b,feather03a,blankImage,blankImage,blankImage,blankImage,blankImage,blankImage,trampoline,,,,,,,,,,,,0,42,42,73,,,,,,,,,,,,,,,,,,,,,,,,,,,,,,,,,,,492.7237692999188,493.73598409991246,493.71929079992697,494.2908161999658,494.2908161999658,None,495.6572423999896,None,right,6.874144100002013,495.6572423999896,None,502.5613762999419,None,right,0.17809820000547916,502.5613762999419,None,,,,,,,,,,,,,,,,,,,,,,,PPT42,001,2022-07-07_14h52.56.649,ABstudy,2022.1.4,59.964980422126,
AB,Lag1_T1A_T2A,1,A,A,8,9,7,4,13,sword fish,Did you see the sword fish?,0.12,0.016,JPG\,pizza,strawberry,potato02b,speaker04,battery02b,iron01b,dice05a,cellphone,globe,banana01,medal02b,baseball01a,toaster01,blankImage,blankImage,blankImage,blankImage,ear,,,,,,,,,,,,0,43,43,295,,,,,,,,,,,,,,,,,,,,,,,,,,,,,,,,,,,502.8147091999417,503.829203799949,503.8124402000103,504.42352059995756,504.42352059995756,None,505.90804519993253,None,right,1.2074770999606699,505.90804519993253,None,507.1324375999393,None,right,0.8070548999821767,507.1324375999393,None,,,,,,,,,,,,,,,,,,,,,,,PPT42,001,2022-07-07_14h52.56.649,ABstudy,2022.1.4,59.964980422126,
AB,Lag1_T1P_T2A,1,P,A,8,9,7,5,14,Fridge,Did you see the Fridge?,0.12,0.016,JPG\,cherry01,cymbal,envelope03a,foosballtable,shirt02,cellphone,sewingmachine01a,fridge,battery02b,apple07,pencil01,screwdriver04b,strawberry,sunglasses04,blankImage,blankImage,blankImage,fridge,,,,,,,,,,,,0,44,44,173,,,,,,,,,,,,,,,,,,,,,,,,,,,,,,,,,,,507.96996399993077,508.98415049992036,508.9507348999614,509.5269864000147,509.5269864000147,None,511.2701075000223,None,left,1.621208700002171,511.2701075000223,None,512.9216766000027,None,right,0.8499885000055656,512.9216766000027,None,,,,,,,,,,,,,,,,,,,,,,,PPT42,001,2022-07-07_14h52.56.649,ABstudy,2022.1.4,59.964980422126,
AB,Lag5_T1A_T2P,5,A,P,8,13,7,4,17,wrench,Did you see the wrench?,0.12,0.016,JPG\,clock01a,grape01,plate01b,key01,screwdriver04b,feather03a,pineapple01a,iron01b,toothbrush03b,comb02a,broom01,toaster01,stapler05,garlic01a,match,ashtray01,blankImage,seal,,,,,,,,,,,,0,45,45,272,,,,,,,,,,,,,,,,,,,,,,,,,,,,,,,,,,,513.7946221999591,514.8070099999895,514.7900951999472,515.3706730999984,515.3706730999984,None,517.3508963999338,None,right,0.716340700048022,517.3508963999338,None,518.0932162000099,None,right,0.19099849998019636,518.0932162000099,None,,,,,,,,,,,,,,,,,,,,,,,PPT42,001,2022-07-07_14h52.56.649,ABstudy,2022.1.4,59.964980422126,
AB,Lag5_T1A_T2P,5,A,P,5,10,4,3,13,License Plate,Did you see the License Plate?,0.12,0.016,JPG\,tomato01,pen04b,shirt02,carrot01,lamp04a,key01,pizza,avocado01,sewingmachine01a,stapler06,iron01b,book01b,chain01,blankImage,blankImage,blankImage,blankImage,porcupine,,,,,,,,,,,,0,46,46,270,,,,,,,,,,,,,,,,,,,,,,,,,,,,,,,,,,,518.3141820000019,519.3278259999352,519.3111544999992,519.8971714000218,519.8971714000218,None,521.5489072999917,None,right,3.518603799981065,521.5489072999917,None,525.1002313999925,None,right,0.1520704000722617,525.1002313999925,None,,,,,,,,,,,,,,,,,,,,,,,PPT42,001,2022-07-07_14h52.56.649,ABstudy,2022.1.4,59.964980422126,
AB,Lag5_T1A_T2P,5,A,P,7,12,6,5,17,Rollerblade,Did you see the Rollerblade?,0.12,0.016,JPG\,binoculars01b,cymbal,pizza,candy,paintbrush01,sponge01,grape01,thermometer02b,speaker04,lemon02,lipstick02a,stapler03b,candle01,8ball,plate01b,pen04b,blankImage,lion,,,,,,,,,,,,0,47,47,266,,,,,,,,,,,,,,,,,,,,,,,,,,,,,,,,,,,525.2873355000047,526.3014183000196,526.284744399949,526.8748938000062,526.8748938000062,None,528.8004108999157,None,right,1.0671752999769524,528.8004108999157,None,529.8884064999875,None,left,0.28356849995907396,529.8884064999875,None,,,,,,,,,,,,,,,,,,,,,,,PPT42,001,2022-07-07_14h52.56.649,ABstudy,2022.1.4,59.964980422126,
AB,Lag5_T1P_T2P,5,P,P,7,12,6,3,15,marble,Did you see the marble?,0.12,0.016,JPG\,cigarette,ashtray01,envelope03a,sandal,chain01,cucumber,marble,tomato01,dandelion,candle01,lemon02,stapler03b,potato02b,cymbal,clock01a,blankImage,blankImage,marble,,,,,,,,,,,,0,48,48,146,,,,,,,,,,,,,,,,,,,,,,,,,,,,,,,,,,,530.1927077999571,531.2065007999772,531.1897270999616,531.7653934999835,531.7653934999835,None,533.622598499991,None,left,0.8932161999400705,533.622598499991,None,534.5433054999448,None,left,0.3332335000159219,534.5433054999448,None,,,,,,,,,,,,,,,,,,,,,,,PPT42,001,2022-07-07_14h52.56.649,ABstudy,2022.1.4,59.964980422126,
AB,Lag1_T1P_T2P,1,P,P,7,8,6,4,12,Dog House,Did you see the Dog House?,0.12,0.016,JPG\,pineapple01a,leaf02a,grape01,toiletpaper01a,match,tennisball01b,doghouse,stapler03b,pig,measuringcup01,ring01,lemon02,blankImage,blankImage,blankImage,blankImage,blankImage,doghouse,,,,,,,,,,,,0,49,49,44,,,,,,,,,,,,,,,,,,,,,,,,,,,,,,,,,,,534.902636499959,535.9111853999784,535.8944410999538,536.4831193999853,536.4831193999853,None,537.9778774000006,None,left,2.62542910000775,537.9778774000006,None,540.632697999943,None,right,0.31635790003929287,540.632697999943,None,,,,,,,,,,,,,,,,,,,,,,,PPT42,001,2022-07-07_14h52.56.649,ABstudy,2022.1.4,59.964980422126,
AB,Lag1_T1P_T2P,1,P,P,7,8,6,5,13,disco ball,Did you see the disco ball?,0.12,0.016,JPG\,candle01,paintbrush01,scissors01,fan,microscope,toothbrush03b,discoball,stapler03b,teabag,pencil01,lemon02,ashtray01,shirt02,blankImage,blankImage,blankImage,blankImage,discoball,,,,,,,,,,,,0,50,50,60,,,,,,,,,,,,,,,,,,,,,,,,,,,,,,,,,,,541.0191127000144,542.0342809999129,542.0171802999685,542.603487299988,542.603487299988,None,544.1114027999574,None,left,1.6365958000533283,544.1114027999574,None,545.7737812999403,None,right,0.5253744999645278,545.7737812999403,None,,,,,,,,,,,,,,,,,,,,,,,PPT42,001,2022-07-07_14h52.56.649,ABstudy,2022.1.4,59.964980422126,
AB,Lag5_T1P_T2P,5,P,P,8,13,7,5,18,popcorn,Did you see the popcorn?,0.12,0.016,JPG\,toaster01,garlic01a,hairclip03,fan,comb02a,apple07,orange,popcorn,onion,blueberry01,toiletpaper01a,fork03c,stapler06,pineapple01a,scarf,eraser,blankImage,popcorn,,,,,,,,,,,,0,51,51,155,,,,,,,,,,,,,,,,,,,,,,,,,,,,,,,,,,,546.3240527999587,547.3390234999824,547.3056547999149,547.8924712999724,547.8924712999724,None,549.9312696999405,None,left,0.48894269997254014,549.9312696999405,None,550.4448584999191,None,left,0.3346306999446824,550.4448584999191,None,,,,,,,,,,,,,,,,,,,,,,,PPT42,001,2022-07-07_14h52.56.649,ABstudy,2022.1.4,59.964980422126,
AB,Lag1_T1P_T2A,1,P,A,8,9,7,5,14,Ceiling fan,Did you see the Ceiling fan?,0.12,0.016,JPG\,cucumber,sponge01,alligator,pear01,ashtray01,hammer01,clock04,ceilingfan01,fork03c,binoculars01b,mushroom01,broccoli01a,leaf02a,acorn,blankImage,blankImage,blankImage,ceilingfan01,,,,,,,,,,,,0,52,52,183,,,,,,,,,,,,,,,,,,,,,,,,,,,,,,,,,,,550.815362000023,551.8272974999854,551.8107804999454,552.3867754000239,552.3867754000239,None,554.0008032999467,None,right,1.2198734000558034,554.0008032999467,None,555.2468580999412,None,right,1.2369119999930263,555.2468580999412,None,,,,,,,,,,,,,,,,,,,,,,,PPT42,001,2022-07-07_14h52.56.649,ABstudy,2022.1.4,59.964980422126,
AB,Lag1_T1P_T2P,1,P,P,7,8,6,5,13,school bus,Did you see the school bus?,0.12,0.016,JPG\,aceofdiamond,banana01,scissors01,pig,shirt02,leaf02a,schoolbus,stapler05,fork03c,tableknife02,balloon01b,match,toothbrush03b,blankImage,blankImage,blankImage,blankImage,schoolbus,,,,,,,,,,,,0,53,53,24,,,,,,,,,,,,,,,,,,,,,,,,,,,,,,,,,,,556.550594799919,557.5658781999955,557.5491989000002,558.139316799934,558.139316799934,None,559.6792947999202,None,left,2.03677400003653,559.6792947999202,None,561.7370233000256,None,right,0.4753468999406323,561.7370233000256,None,,,,,,,,,,,,,,,,,,,,,,,PPT42,001,2022-07-07_14h52.56.649,ABstudy,2022.1.4,59.964980422126,
AB,Lag1_T1P_T2P,1,P,P,7,8,6,3,11,tree,Did you see the tree?,0.12,0.016,JPG\,pear01,clock01a,cymbal,match,ashtray01,globe,tree,stapler03b,lemon02,pen04b,dice05a,blankImage,blankImage,blankImage,blankImage,blankImage,blankImage,tree,,,,,,,,,,,,0,54,54,51,,,,,,,,,,,,,,,,,,,,,,,,,,,,,,,,,,,562.240883099963,563.2551094000228,563.22174920002,563.7931470000185,563.7931470000185,None,565.1948192999698,None,left,3.0802967000054196,565.1948192999698,None,568.2935922999168,None,left,0.1974645999725908,568.2935922999168,None,,,,,,,,,,,,,,,,,,,,,,,PPT42,001,2022-07-07_14h52.56.649,ABstudy,2022.1.4,59.964980422126,
AB,Lag5_T1P_T2A,5,P,A,6,11,5,4,15,Spear,Did you see the Spear?,0.12,0.016,JPG\,belt02a,measuringcup01,spoon01,chain01,greenolive,spear02,computerkeyboard02,onion,fan,strawberry,candle01,broom01,binoculars01b,ashtray01,pingpongpaddle01c,blankImage,blankImage,spear02,,,,,,,,,,,,0,55,55,227,,,,,,,,,,,,,,,,,,,,,,,,,,,,,,,,,,,568.5144729999593,569.5277357000159,569.5110478999559,570.1224625000032,570.1224625000032,None,571.8956081999931,None,right,1.5401125999633223,571.8956081999931,None,573.4676784999901,None,right,0.18507600005250424,573.4676784999901,None,,,,,,,,,,,,,,,,,,,,,,,PPT42,001,2022-07-07_14h52.56.649,ABstudy,2022.1.4,59.964980422126,
AB,Lag5_T1P_T2P,5,P,P,5,10,4,5,15,Bee,Did you see the Bee?,0.12,0.016,JPG\,fork03c,dandelion,dice05a,belt02a,honeybee,watch02a,key01,globe,eraser,stapler03a,greenolive,shirt02,candle08b,cigarette,garlic01a,blankImage,blankImage,honeybee,,,,,,,,,,,,0,56,56,149,,,,,,,,,,,,,,,,,,,,,,,,,,,,,,,,,,,573.6925675999373,574.6993379999185,574.6827088999562,575.2489823999349,575.2489823999349,None,577.1402204999467,None,left,0.7032573000760749,577.1402204999467,None,577.8702292999951,None,right,0.40485459996853024,577.8702292999951,None,,,,,,,,,,,,,,,,,,,,,,,PPT42,001,2022-07-07_14h52.56.649,ABstudy,2022.1.4,59.964980422126,
AB,Lag5_T1A_T2A,5,A,A,5,10,4,4,14,music sheet,Did you see the music sheet?,0.12,0.016,JPG\,celery,pencil01,fan,foosballtable,iron01b,shirt02,potato02b,fork03c,button01,pineapple01a,baseball01a,printer02,cauliflower01,dandelion,blankImage,blankImage,blankImage,licenseplate,,,,,,,,,,,,0,57,57,304,,,,,,,,,,,,,,,,,,,,,,,,,,,,,,,,,,,578.3087205999764,579.3210780000081,579.3045310999732,579.8769443000201,579.8769443000201,None,581.4979923999636,None,left,3.9381865999894217,581.4979923999636,None,585.4602560999338,None,left,0.199814899940975,585.4602560999338,None,,,,,,,,,,,,,,,,,,,,,,,PPT42,001,2022-07-07_14h52.56.649,ABstudy,2022.1.4,59.964980422126,
AB,Lag5_T1P_T2P,5,P,P,5,10,4,5,15,penguin,Did you see the penguin?,0.12,0.016,JPG\,watermelon01,cigarette,pintofbeer,cymbal,penguin,feather03a,cherry01,broom01,battery02b,stapler05,baseball01a,iron01b,garlic01a,computerkeyboard02,pig,blankImage,blankImage,penguin,,,,,,,,,,,,0,58,58,137,,,,,,,,,,,,,,,,,,,,,,,,,,,,,,,,,,,585.6798517999705,586.6948309999425,586.6615142999217,587.2929408999626,587.2929408999626,None,588.9864962999709,None,left,1.3687195000238717,588.9864962999709,None,590.3822343000211,None,right,1.269647599896416,590.3822343000211,None,,,,,,,,,,,,,,,,,,,,,,,PPT42,001,2022-07-07_14h52.56.649,ABstudy,2022.1.4,59.964980422126,
AB,Lag1_T1A_T2P,1,A,P,7,8,6,5,13,Ant,Did you see the Ant?,0.12,0.016,JPG\,rice,watermelon01,tableknife02,scarf,computerkeyboard02,cauliflower01,battery02b,stapler03b,book01b,sandal,sponge01,microscope,tomato01,blankImage,blankImage,blankImage,blankImage,sandcastle,,,,,,,,,,,,0,59,59,242,,,,,,,,,,,,,,,,,,,,,,,,,,,,,,,,,,,591.6869530000258,592.7009937999537,592.6842771000229,593.2962677999167,593.2962677999167,None,594.8417933000019,None,right,2.0331350999185815,594.8417933000019,None,596.9050236999756,None,left,0.6980716000543907,596.9050236999756,None,,,,,,,,,,,,,,,,,,,,,,,PPT42,001,2022-07-07_14h52.56.649,ABstudy,2022.1.4,59.964980422126,
AB,Lag1_T1P_T2A,1,P,A,5,6,4,5,11,Moon,Did you see the Moon?,0.12,0.016,JPG\,lamp04a,broccoli01a,alligator,garlic01a,moon,brownsugar,avocado01,ring01,leaf02a,cellphone,medal02b,blankImage,blankImage,blankImage,blankImage,blankImage,blankImage,moon,,,,,,,,,,,,0,60,60,190,,,,,,,,,,,,,,,,,,,,,,,,,,,,,,,,,,,597.6733160999138,598.6736734999577,598.6570083999541,599.2514177999692,599.2514177999692,None,600.5612272999715,None,right,1.1945150999817997,600.5612272999715,None,601.777144499938,None,right,0.19446700008120388,601.777144499938,None,,,,,,,,,,,,,,,,,,,,,,,PPT42,001,2022-07-07_14h52.56.649,ABstudy,2022.1.4,59.964980422126,
AB,Lag5_T1P_T2A,5,P,A,7,12,6,5,17,corn,Did you see the corn?,0.12,0.016,JPG\,avocado01,pingpongpaddle01c,match,cauliflower01,paintbrush01,clock01a,corn02,cd,balloon01b,cellphone,watch02a,pear01,toaster01,sponge01,orange,blueberry01,blankImage,corn02,,,,,,,,,,,,0,61,61,210,,,,,,,,,,,,,,,,,,,,,,,,,,,,,,,,,,,601.9987957000267,603.0113709999714,602.9947303999215,603.5756095999386,603.5756095999386,None,605.5612912999932,None,left,1.7389479000121355,605.5612912999932,None,607.3322921999497,None,right,0.31901890004519373,607.3322921999497,None,,,,,,,,,,,,,,,,,,,,,,,PPT42,001,2022-07-07_14h52.56.649,ABstudy,2022.1.4,59.964980422126,
AB,Lag5_T1P_T2P,5,P,P,7,12,6,5,17,Pigeon,Did you see the Pigeon?,0.12,0.016,JPG\,strawberry,leaf02a,clock04,candle01,avocado01,paintbrush01,pigeon,brownsugar,ring01,lemon02,fork03c,stapler01,cauliflower01,tableknife02,tennisball01b,thermometer02b,blankImage,pigeon,,,,,,,,,,,,0,62,62,151,,,,,,,,,,,,,,,,,,,,,,,,,,,,,,,,,,,607.6874937999528,608.7002385000233,608.6835928999353,609.2851080999244,609.2851080999244,None,611.2154416999547,None,left,8.747374700033106,611.2154416999547,None,619.9949305999326,None,right,0.5851572999963537,619.9949305999326,None,,,,,,,,,,,,,,,,,,,,,,,PPT42,001,2022-07-07_14h52.56.649,ABstudy,2022.1.4,59.964980422126,
AB,Lag1_T1A_T2P,1,A,P,5,6,4,3,9,barrel,Did you see the barrel?,0.12,0.016,JPG\,clock01a,cellphone,toaster01,toothbrush03b,cauliflower01,stapler01,comb02a,paintbrush01,scarf,blankImage,blankImage,blankImage,blankImage,blankImage,blankImage,blankImage,blankImage,sheep,,,,,,,,,,,,0,63,63,243,,,,,,,,,,,,,,,,,,,,,,,,,,,,,,,,,,,620.6152579999762,621.629873399972,621.6131353999954,622.2022907999344,622.2022907999344,None,623.3681526000146,None,right,1.347232999978587,623.3681526000146,None,624.733154400019,None,right,0.29460109991487116,624.733154400019,None,,,,,,,,,,,,,,,,,,,,,,,PPT42,001,2022-07-07_14h52.56.649,ABstudy,2022.1.4,59.964980422126,
AB,Lag5_T1P_T2P,5,P,P,7,12,6,5,17,Badminton Racket,Did you see the Badminton Racket?,0.12,0.016,JPG\,paintbrush01,dice05a,watermelon01,broccoli01a,hammer01,leaf02a,badmintonracket,tennisball01b,lemon02,fan,lipstick02a,stapler04b,envelope03a,sponge01,foosballtable,orange,blankImage,badmintonracket,,,,,,,,,,,,0,64,64,163,,,,,,,,,,,,,,,,,,,,,,,,,,,,,,,,,,,625.0583707999904,626.0680113999406,626.0524648999562,626.64436809998,626.64436809998,None,628.6039819999132,None,left,1.1682952999835834,628.6039819999132,None,629.8045014999807,None,left,0.39875779999420047,629.8045014999807,None,,,,,,,,,,,,,,,,,,,,,,,PPT42,001,2022-07-07_14h52.56.649,ABstudy,2022.1.4,59.964980422126,
AB,Lag5_T1A_T2P,5,A,P,7,12,6,4,16,flower,Did you see the flower?,0.12,0.016,JPG\,printer02,envelope03a,potato02b,calculator01,tableknife02,cigarette,ashtray01,pig,broom01,greenolive,candle08b,stapler03a,strawberry,candle01,foosballtable,tennisball01b,blankImage,calendar,,,,,,,,,,,,0,65,65,282,,,,,,,,,,,,,,,,,,,,,,,,,,,,,,,,,,,630.2237768999767,631.2392395000206,631.2058710999554,631.8358385999454,631.8358385999454,None,633.7752923999215,None,right,1.2522469999967143,633.7752923999215,None,635.0599273999687,None,left,0.35106759995687753,635.0599273999687,None,,,,,,,,,,,,,,,,,,,,,,,PPT42,001,2022-07-07_14h52.56.649,ABstudy,2022.1.4,59.964980422126,
AB,Lag1_T1A_T2P,1,A,P,6,7,5,5,12,Treadmill,Did you see the Treadmill?,0.12,0.016,JPG\,pencil01,broccoli01a,button01,sponge01,watermelon01,lipstick02a,stapler04b,fan,lighter01,sock01a,spoon01,blueberry01,blankImage,blankImage,blankImage,blankImage,blankImage,magneticcompass,,,,,,,,,,,,0,66,66,238,,,,,,,,,,,,,,,,,,,,,,,,,,,,,,,,,,,635.4482710999437,636.4612701999722,636.4445945000043,637.0302819999633,637.0302819999633,None,638.4624895999441,None,right,1.357299100025557,638.4624895999441,None,639.8482741999906,None,right,0.18737980001606047,639.8482741999906,None,,,,,,,,,,,,,,,,,,,,,,,PPT42,001,2022-07-07_14h52.56.649,ABstudy,2022.1.4,59.964980422126,
AB,Lag1_T1P_T2A,1,P,A,7,8,6,3,11,walkie talkie,Did you see the walkie talkie?,0.12,0.016,JPG\,teabag,envelope03a,cellphone,apple07,cauliflower01,orange,walkietalkie,book01b,hammer01,feather03a,toaster01,blankImage,blankImage,blankImage,blankImage,blankImage,blankImage,walkietalkie,,,,,,,,,,,,0,67,67,197,,,,,,,,,,,,,,,,,,,,,,,,,,,,,,,,,,,640.1264648999786,641.1330294000218,641.11763350002,641.7071317000082,641.7071317000082,None,643.0647793000098,None,left,1.7158179000252858,643.0647793000098,None,644.8055762000149,None,right,0.573373100021854,644.8055762000149,None,,,,,,,,,,,,,,,,,,,,,,,PPT42,001,2022-07-07_14h52.56.649,ABstudy,2022.1.4,59.964980422126,
AB,Lag1_T1P_T2P,1,P,P,7,8,6,4,12,rooster,Did you see the rooster?,0.12,0.016,JPG\,pizza,strawberry,potato02b,speaker04,battery02b,iron01b,rooster,stapler03b,globe,banana01,medal02b,baseball01a,blankImage,blankImage,blankImage,blankImage,blankImage,rooster,,,,,,,,,,,,0,68,68,69,,,,,,,,,,,,,,,,,,,,,,,,,,,,,,,,,,,645.4128591999179,646.4209987999639,646.4042776999995,646.9969293000177,646.9969293000177,None,648.5030217999592,None,left,2.491853200015612,648.5030217999592,None,651.028102900018,None,left,0.1276316000148654,651.028102900018,None,,,,,,,,,,,,,,,,,,,,,,,PPT42,001,2022-07-07_14h52.56.649,ABstudy,2022.1.4,59.964980422126,
AB,Lag5_T1P_T2A,5,P,A,8,13,7,4,17,Drum set,Did you see the Drum set?,0.12,0.016,JPG\,pencil01,microscope,banana01,computerkeyboard02,celery,cellphone,scissors01,drumset,book01b,onion,dice05a,binoculars01b,baseball01a,iron01b,screw02,fork03c,blankImage,drumset,,,,,,,,,,,,0,69,69,212,,,,,,,,,,,,,,,,,,,,,,,,,,,,,,,,,,,651.1862906999886,652.19395659992,652.178385599982,652.8590855000075,652.8590855000075,None,654.6667369999923,None,left,1.6484167999587953,654.6667369999923,None,656.3477963999612,None,right,0.6152342000277713,656.3477963999612,None,,,,,,,,,,,,,,,,,,,,,,,PPT42,001,2022-07-07_14h52.56.649,ABstudy,2022.1.4,59.964980422126,
AB,Lag1_T1A_T2P,1,A,P,5,6,4,3,9,Spider,Did you see the Spider?,0.12,0.016,JPG\,pen04b,speaker04,lighter01,cherry01,8ball,stapler04b,sock01a,toothbrush03b,broom01,blankImage,blankImage,blankImage,blankImage,blankImage,blankImage,blankImage,blankImage,bridge,,,,,,,,,,,,0,70,70,250,,,,,,,,,,,,,,,,,,,,,,,,,,,,,,,,,,,656.9869139000075,657.9995066999691,657.9827303999336,658.5531623999123,658.5531623999123,None,659.6978267999366,None,right,1.6896380999824032,659.6978267999366,None,661.4195407999214,None,right,0.37693369993939996,661.4195407999214,None,,,,,,,,,,,,,,,,,,,,,,,PPT42,001,2022-07-07_14h52.56.649,ABstudy,2022.1.4,59.964980422126,
AB,Lag5_T1P_T2P,5,P,P,8,13,7,5,18,Kiwi,Did you see the Kiwi?,0.12,0.016,JPG\,violin,pizza,toothbrush03b,pineapple01a,banana01,ashtray01,candy,kiwi03,clock04,sock01a,microscope,speaker04,stapler04b,sunglasses04,lipstick02a,blueberry01,blankImage,kiwi03,,,,,,,,,,,,0,71,71,111,,,,,,,,,,,,,,,,,,,,,,,,,,,,,,,,,,,661.8291467999807,662.8373647999251,662.8206432999577,663.4144027999137,663.4144027999137,None,665.333946299972,None,left,13.500942599959671,665.333946299972,None,678.8538733000169,None,right,0.6050077999243513,678.8538733000169,None,,,,,,,,,,,,,,,,,,,,,,,PPT42,001,2022-07-07_14h52.56.649,ABstudy,2022.1.4,59.964980422126,
AB,Lag1_T1P_T2P,1,P,P,6,7,5,5,12,snowman,Did you see the snowman?,0.12,0.016,JPG\,comb02a,watch02a,scissors01,dice05a,tableknife02,snowman,stapler03a,printer02,dandelion,spoon01,ashtray01,battery02b,blankImage,blankImage,blankImage,blankImage,blankImage,snowman,,,,,,,,,,,,0,72,72,4,,,,,,,,,,,,,,,,,,,,,,,,,,,,,,,,,,,679.4933810000075,680.5050414999714,680.4883827000158,681.0837561999215,681.0837561999215,None,682.5552661999827,None,left,2.9516207999549806,682.5552661999827,None,685.5271052999888,None,right,0.6440026999916881,685.5271052999888,None,,,,,,,,,,,,,,,,,,,,,,,PPT42,001,2022-07-07_14h52.56.649,ABstudy,2022.1.4,59.964980422126,
AB,Lag5_T1P_T2A,5,P,A,7,12,6,3,15,Toy soldier,Did you see the Toy soldier?,0.12,0.016,JPG\,binoculars01b,cymbal,pizza,candy,paintbrush01,sponge01,toysoldier01b,thermometer02b,speaker04,lemon02,lipstick02a,strawberry,candle01,acorn,plate01b,blankImage,blankImage,toysoldier01b,,,,,,,,,,,,0,73,73,203,,,,,,,,,,,,,,,,,,,,,,,,,,,,,,,,,,,686.19991570001,687.2118647999596,687.1951551999664,687.7688463999657,687.7688463999657,None,689.5982498999219,None,right,4.62101099989377,689.5982498999219,None,694.2519538999768,None,right,0.2631269000703469,694.2519538999768,None,,,,,,,,,,,,,,,,,,,,,,,PPT42,001,2022-07-07_14h52.56.649,ABstudy,2022.1.4,59.964980422126,
AB,Lag5_T1P_T2P,5,P,P,5,10,4,5,15,baseball bat,Did you see the baseball bat?,0.12,0.016,JPG\,pizza,printer02,medal02b,spoon01,baseballbat,lighter01,belt02a,watermelon01,celery,stapler04b,screw02,comb02a,cauliflower01,lipstick02a,potato02b,blankImage,blankImage,baseballbat,,,,,,,,,,,,0,74,74,123,,,,,,,,,,,,,,,,,,,,,,,,,,,,,,,,,,,694.5378787999507,695.5532382000238,695.5199035999831,696.1089901999803,696.1089901999803,None,698.0160424999194,None,left,0.99539050005842,698.0160424999194,None,699.0403929000022,None,right,0.507115799933672,699.0403929000022,None,,,,,,,,,,,,,,,,,,,,,,,PPT42,001,2022-07-07_14h52.56.649,ABstudy,2022.1.4,59.964980422126,
AB,Lag5_T1P_T2P,5,P,P,6,11,5,5,16,motorcycle,Did you see the motorcycle?,0.12,0.016,JPG\,cucumber,ring01,lipstick02a,microscope,violin,motorcycle,celery,lighter01,cherry01,sewingmachine01a,stapler04b,key01,binoculars01b,medal02b,watermelon01,dice05a,blankImage,motorcycle,,,,,,,,,,,,0,75,75,93,,,,,,,,,,,,,,,,,,,,,,,,,,,,,,,,,,,699.5787094999105,700.5919063999318,700.5751510999398,701.1380405999953,701.1380405999953,None,703.1159844999202,None,left,1.2072788999648765,703.1159844999202,None,704.3482767000096,None,right,0.4793669000500813,704.3482767000096,None,,,,,,,,,,,,,,,,,,,,,,,PPT42,001,2022-07-07_14h52.56.649,ABstudy,2022.1.4,59.964980422126,
AB,Lag5_T1P_T2A,5,P,A,6,11,5,3,14,toy truck,Did you see the toy truck?,0.12,0.016,JPG\,globe,belt02a,sponge01,violin,fork03c,bluecheese,clock01a,microscope,balloon01b,scarf,teabag,pen04b,brick,brownsugar,blankImage,blankImage,blankImage,bluecheese,,,,,,,,,,,,0,76,76,204,,,,,,,,,,,,,,,,,,,,,,,,,,,,,,,,,,,704.8579126999248,705.863334499998,705.8467044999124,706.505785599933,706.505785599933,None,708.0385092999786,None,right,9.940304200048558,708.0385092999786,None,718.0091686999658,None,right,0.14583829999901354,718.0091686999658,None,,,,,,,,,,,,,,,,,,,,,,,PPT42,001,2022-07-07_14h52.56.649,ABstudy,2022.1.4,59.964980422126,
AB,Lag5_T1P_T2P,5,P,P,6,11,5,4,15,saxophone,Did you see the saxophone?,0.12,0.016,JPG\,pizza,strawberry,potato02b,speaker04,battery02b,saxophone,dice05a,cellphone,globe,banana01,stapler03b,baseball01a,toaster01,broom01,ring01,blankImage,blankImage,saxophone,,,,,,,,,,,,0,77,77,117,,,,,,,,,,,,,,,,,,,,,,,,,,,,,,,,,,,718.1829166000243,719.1938026999123,719.177068799967,719.774578499957,719.774578499957,None,721.5841647000052,None,left,0.6112540999893099,721.5841647000052,None,722.2131070999894,None,left,0.15733970003202558,722.2131070999894,None,,,,,,,,,,,,,,,,,,,,,,,PPT42,001,2022-07-07_14h52.56.649,ABstudy,2022.1.4,59.964980422126,
AB,Lag1_T1P_T2A,1,P,A,5,6,4,4,10,flower,Did you see the flower?,0.12,0.016,JPG\,broom01,globe,cellphone,tableknife02,daffodil,scissors01,ring01,alligator,rice,toaster01,blankImage,blankImage,blankImage,blankImage,blankImage,blankImage,blankImage,daffodil,,,,,,,,,,,,0,78,78,184,,,,,,,,,,,,,,,,,,,,,,,,,,,,,,,,,,,722.3988707999233,723.4143396000145,723.3809768999927,723.974089599913,723.974089599913,None,725.2298577999463,None,left,1.1976119000464678,725.2298577999463,None,726.4518299999181,None,right,0.1987061999971047,726.4518299999181,None,,,,,,,,,,,,,,,,,,,,,,,PPT42,001,2022-07-07_14h52.56.649,ABstudy,2022.1.4,59.964980422126,
AB,Lag5_T1P_T2P,5,P,P,8,13,7,5,18,bed,Did you see the bed?,0.12,0.016,JPG\,pencil01,broccoli01a,button01,sponge01,watermelon01,lipstick02a,comb02a,bed,lighter01,sock01a,spoon01,blueberry01,stapler04b,onion,grape01,avocado01,blankImage,bed,,,,,,,,,,,,0,79,79,124,,,,,,,,,,,,,,,,,,,,,,,,,,,,,,,,,,,726.6729734999826,727.6854808999924,727.6688535999274,728.2583905999782,728.2583905999782,None,730.1682087000227,None,left,2.5076289999997243,730.1682087000227,None,732.7072481999639,None,right,0.3130038999952376,732.7072481999639,None,,,,,,,,,,,,,,,,,,,,,,,PPT42,001,2022-07-07_14h52.56.649,ABstudy,2022.1.4,59.964980422126,
AB,Lag1_T1A_T2A,1,A,A,8,9,7,3,12,popcorn,Did you see the popcorn?,0.12,0.016,JPG\,brownsugar,candle01,match,printer02,broom01,balloon01b,belt02a,potato02b,computerkeyboard02,feather03a,rice,mushroom01,blankImage,blankImage,blankImage,blankImage,blankImage,banjo,,,,,,,,,,,,0,80,80,290,,,,,,,,,,,,,,,,,,,,,,,,,,,,,,,,,,,733.0431778000202,734.0585905999178,734.0251074999105,734.5256791999564,734.5256791999564,None,736.1142164999619,None,right,1.0246779000153765,736.1142164999619,None,737.1623032999923,None,right,0.4566327999345958,737.1623032999923,None,,,,,,,,,,,,,,,,,,,,,,,PPT42,001,2022-07-07_14h52.56.649,ABstudy,2022.1.4,59.964980422126,
AB,Lag5_T1P_T2P,5,P,P,6,11,5,3,14,ladder,Did you see the ladder?,0.12,0.016,JPG\,celery,orange,scissors01,balloon01b,avocado01,stepladder,mushroom01,sewingmachine01a,lighter01,dice05a,stapler01,fan,cd,sock01a,blankImage,blankImage,blankImage,stepladder,,,,,,,,,,,,0,81,81,119,,,,,,,,,,,,,,,,,,,,,,,,,,,,,,,,,,,737.6507190000266,738.6626910999184,738.6459183999104,739.218012999976,739.218012999976,None,740.9955723999301,None,left,3.1273494999622926,740.9955723999301,None,744.1515670999652,None,left,0.16342610004357994,744.1515670999652,None,,,,,,,,,,,,,,,,,,,,,,,PPT42,001,2022-07-07_14h52.56.649,ABstudy,2022.1.4,59.964980422126,
AB,Lag1_T1P_T2P,1,P,P,8,9,7,3,12,bridge,Did you see the bridge?,0.12,0.016,JPG\,speaker04,sewingmachine01a,eraser,violin,globe,belt02a,sunglasses04,bridge,stapler01,greenolive,alligator,pear01,blankImage,blankImage,blankImage,blankImage,blankImage,bridge,,,,,,,,,,,,0,82,82,78,,,,,,,,,,,,,,,,,,,,,,,,,,,,,,,,,,,744.337319699931,745.3527884000214,745.3193927999819,745.9011016999139,745.9011016999139,None,747.3891367999604,None,left,0.9098878999939188,747.3891367999604,None,748.3226528000087,None,right,0.2963639999506995,748.3226528000087,None,,,,,,,,,,,,,,,,,,,,,,,PPT42,001,2022-07-07_14h52.56.649,ABstudy,2022.1.4,59.964980422126,
AB,Lag5_T1A_T2A,5,A,A,6,11,5,3,14,mirror,Did you see the mirror?,0.12,0.016,JPG\,foosballtable,candy,envelope03a,microscope,pencil01,leaf02a,scissors01,watermelon01,grape01,dandelion,pineapple01a,hammer01,celery,thermometer02b,blankImage,blankImage,blankImage,shower,,,,,,,,,,,,0,83,83,305,,,,,,,,,,,,,,,,,,,,,,,,,,,,,,,,,,,748.6435233999509,749.6572957999306,749.6405199000146,750.141876699985,750.141876699985,None,751.891758600017,None,right,0.8866215000161901,751.891758600017,None,752.8104819,None,right,0.15263889997731894,752.8104819,None,,,,,,,,,,,,,,,,,,,,,,,PPT42,001,2022-07-07_14h52.56.649,ABstudy,2022.1.4,59.964980422126,
AB,Lag5_T1P_T2P,5,P,P,7,12,6,4,16,window,Did you see the window?,0.12,0.016,JPG\,cigarette,pig,banana01,strawberry,clock01a,plate01b,dormer,blueberry01,battery02b,pineapple01a,chain01,stapler01,candy,pen04b,teabag,birthdaycandle,blankImage,dormer,,,,,,,,,,,,0,84,84,170,,,,,,,,,,,,,,,,,,,,,,,,,,,,,,,,,,,752.9992910999572,754.0112435999326,753.9945695999777,754.5634257999482,754.5634257999482,None,756.4349580999697,None,right,1.1675634999992326,756.4349580999697,None,757.6316313999705,None,right,0.1639087999938056,757.6316313999705,None,,,,,,,,,,,,,,,,,,,,,,,PPT42,001,2022-07-07_14h52.56.649,ABstudy,2022.1.4,59.964980422126,
AB,Lag5_T1P_T2P,5,P,P,6,11,5,5,16,scooter,Did you see the scooter?,0.12,0.016,JPG\,thermometer02b,candle08b,comb02a,toothbrush03b,brick,scooter,key01,pineapple01a,candy,birthdaycandle,stapler04b,canoftennisballs,teabag,medal02b,balloon01b,banana01,blankImage,scooter,,,,,,,,,,,,0,85,85,118,,,,,,,,,,,,,,,,,,,,,,,,,,,,,,,,,,,757.8175010000123,758.832908899989,758.7995316999732,759.4183077999623,759.4183077999623,None,761.4129094999516,None,right,0.9664475000463426,761.4129094999516,None,762.4034874999197,None,left,0.351645200047642,762.4034874999197,None,,,,,,,,,,,,,,,,,,,,,,,PPT42,001,2022-07-07_14h52.56.649,ABstudy,2022.1.4,59.964980422126,
AB,Lag1_T1P_T2P,1,P,P,8,9,7,3,12,apron,Did you see the apron?,0.12,0.016,JPG\,avocado01,tambourine02,match,cauliflower01,paintbrush01,clock01a,pig,apron,stapler03a,cellphone,watch02a,pear01,blankImage,blankImage,blankImage,blankImage,blankImage,apron,,,,,,,,,,,,0,86,86,32,,,,,,,,,,,,,,,,,,,,,,,,,,,,,,,,,,,762.7925638000015,763.8046827999642,763.7879776000045,764.4479225999676,764.4479225999676,None,765.846400899929,None,left,2.028832699987106,765.846400899929,None,767.8923246000195,None,right,0.24683570000343025,767.8923246000195,None,,,,,,,,,,,,,,,,,,,,,,,PPT42,001,2022-07-07_14h52.56.649,ABstudy,2022.1.4,59.964980422126,
AB,Lag1_T1A_T2A,1,A,A,7,8,6,5,13,Poker chips,Did you see the Poker chips?,0.12,0.016,JPG\,violin,pizza,toothbrush03b,pineapple01a,banana01,ashtray01,candy,dandelion,clock04,sock01a,microscope,speaker04,calculator01,blankImage,blankImage,blankImage,blankImage,cigar,,,,,,,,,,,,0,87,87,289,,,,,,,,,,,,,,,,,,,,,,,,,,,,,,,,,,,768.1656056999927,769.1767840000102,769.1601575999521,769.7396979000187,769.7396979000187,None,771.3058956000023,None,right,1.1365694999694824,771.3058956000023,None,772.4635064000031,None,right,0.218830700032413,772.4635064000031,None,,,,,,,,,,,,,,,,,,,,,,,PPT42,001,2022-07-07_14h52.56.649,ABstudy,2022.1.4,59.964980422126,
AB,Lag1_T1P_T2P,1,P,P,5,6,4,4,10,skateboard,Did you see the skateboard?,0.12,0.016,JPG\,binoculars01b,cymbal,pizza,candy,skateboard,stapler05,grape01,thermometer02b,speaker04,lemon02,blankImage,blankImage,blankImage,blankImage,blankImage,blankImage,blankImage,skateboard,,,,,,,,,,,,0,88,88,25,,,,,,,,,,,,,,,,,,,,,,,,,,,,,,,,,,,772.7184979999438,773.7312623999314,773.7145113999723,774.3328252999345,774.3328252999345,None,775.4893075999571,None,left,2.529385400004685,775.4893075999571,None,778.0357221999438,None,right,0.7431932000909001,778.0357221999438,None,,,,,,,,,,,,,,,,,,,,,,,PPT42,001,2022-07-07_14h52.56.649,ABstudy,2022.1.4,59.964980422126,
AB,Lag5_T1A_T2P,5,A,P,5,10,4,5,15,parachute,Did you see the parachute?,0.12,0.016,JPG\,binoculars01b,speaker04,sandal,envelope03a,plate01b,comb02a,battery02b,chain01,measuringcup01,stapler03b,medal02b,lamp04a,tennisball01b,pizza,cigarette,blankImage,blankImage,knee,,,,,,,,,,,,0,89,89,264,,,,,,,,,,,,,,,,,,,,,,,,,,,,,,,,,,,778.8078580999281,779.8206825000234,779.8040819999296,780.4248860999942,780.4248860999942,None,782.2440559000243,None,right,1.6068793999729678,782.2440559000243,None,783.8742899999488,None,right,0.20149110001511872,783.8742899999488,None,,,,,,,,,,,,,,,,,,,,,,,PPT42,001,2022-07-07_14h52.56.649,ABstudy,2022.1.4,59.964980422126,
AB,Lag1_T1P_T2A,1,P,A,6,7,5,5,12,Tombstone,Did you see the Tombstone?,0.12,0.016,JPG\,cigarette,ashtray01,envelope03a,sandal,chain01,tombstone,broccoli01a,tomato01,dandelion,candle01,lemon02,button01,blankImage,blankImage,blankImage,blankImage,blankImage,tombstone,,,,,,,,,,,,0,90,90,196,,,,,,,,,,,,,,,,,,,,,,,,,,,,,,,,,,,784.1101465999382,785.1255745999515,785.0921536999522,785.6641479999525,785.6641479999525,None,787.1609594000038,None,left,1.1379600999644026,787.1609594000038,None,788.3293868999463,None,right,0.44171769998501986,788.3293868999463,None,,,,,,,,,,,,,,,,,,,,,,,PPT42,001,2022-07-07_14h52.56.649,ABstudy,2022.1.4,59.964980422126,
AB,Lag5_T1P_T2P,5,P,P,7,12,6,5,17,statue,Did you see the statue?,0.12,0.016,JPG\,pear01,clock01a,cymbal,match,ashtray01,globe,statue,button01,lemon02,pen04b,dice05a,stapler06,toothbrush03b,screwdriver04b,feather03a,key01,blankImage,statue,,,,,,,,,,,,0,91,91,100,,,,,,,,,,,,,,,,,,,,,,,,,,,,,,,,,,,788.8014377999352,789.8135685999878,789.7968278999906,790.372075399966,790.372075399966,None,792.3428833999205,None,left,0.7393740999978036,792.3428833999205,None,793.1000635999953,None,left,0.2781847999431193,793.1000635999953,None,,,,,,,,,,,,,,,,,,,,,,,PPT42,001,2022-07-07_14h52.56.649,ABstudy,2022.1.4,59.964980422126,
AB,Lag1_T1P_T2P,1,P,P,5,6,4,3,9,dolphin,Did you see the dolphin?,0.12,0.016,JPG\,pig,belt02a,rice,screwdriver04b,dolphin01,stapler05,candle08b,pear01,feather03a,blankImage,blankImage,blankImage,blankImage,blankImage,blankImage,blankImage,blankImage,dolphin01,,,,,,,,,,,,0,92,92,10,,,,,,,,,,,,,,,,,,,,,,,,,,,,,,,,,,,793.4069483999629,794.4184433999471,794.4017958999611,794.9040893999627,794.9040893999627,None,796.0685746999225,None,left,1.1018244000151753,796.0685746999225,None,797.1881076999707,None,left,0.1904167999746278,797.1881076999707,None,,,,,,,,,,,,,,,,,,,,,,,PPT42,001,2022-07-07_14h52.56.649,ABstudy,2022.1.4,59.964980422126,
AB,Lag1_T1P_T2A,1,P,A,6,7,5,4,11,bird,Did you see the bird?,0.12,0.016,JPG\,foosballtable,candy,envelope03a,microscope,pencil01,cedarwaxwing,scissors01,watermelon01,grape01,dandelion,pineapple01a,blankImage,blankImage,blankImage,blankImage,blankImage,blankImage,cedarwaxwing,,,,,,,,,,,,0,93,93,182,,,,,,,,,,,,,,,,,,,,,,,,,,,,,,,,,,,797.4078498999588,798.4224571000086,798.3890153999673,798.8903846999165,798.8903846999165,None,800.3395594999893,None,left,1.5027355999918655,800.3395594999893,None,801.8593880999833,None,right,0.2957510999403894,801.8593880999833,None,,,,,,,,,,,,,,,,,,,,,,,PPT42,001,2022-07-07_14h52.56.649,ABstudy,2022.1.4,59.964980422126,
AB,Lag1_T1A_T2A,1,A,A,6,7,5,5,12,flamingo,Did you see the flamingo?,0.12,0.016,JPG\,chain01,pen04b,birthdaycandle,watermelon01,broom01,scissors01,measuringcup01,candle01,hammer01,calculator01,ashtray01,feather03a,blankImage,blankImage,blankImage,blankImage,blankImage,witchhat,,,,,,,,,,,,0,94,94,288,,,,,,,,,,,,,,,,,,,,,,,,,,,,,,,,,,,802.1825369999278,803.1940940999193,803.1773585999617,803.7410743000219,803.7410743000219,None,805.2094968999736,None,right,4.770264299935661,805.2094968999736,None,810.0014026999706,None,right,0.37775079999119043,810.0014026999706,None,,,,,,,,,,,,,,,,,,,,,,,PPT42,001,2022-07-07_14h52.56.649,ABstudy,2022.1.4,59.964980422126,
AB,Lag5_T1P_T2P,5,P,P,5,10,4,4,14,bell,Did you see the bell?,0.12,0.016,JPG\,teabag,envelope03a,cellphone,apple07,callbell,orange,brownsugar,book01b,hammer01,stapler03b,toaster01,calculator01,globe,battery02b,blankImage,blankImage,blankImage,callbell,,,,,,,,,,,,0,95,95,147,,,,,,,,,,,,,,,,,,,,,,,,,,,,,,,,,,,810.4053354000207,811.4188701999374,811.4022409999743,811.9955046999967,811.9955046999967,None,813.6636919999728,None,left,0.5950113999424502,813.6636919999728,None,814.2884539000224,None,left,0.25118399993516505,814.2884539000224,None,,,,,,,,,,,,,,,,,,,,,,,PPT42,001,2022-07-07_14h52.56.649,ABstudy,2022.1.4,59.964980422126,
AB,Lag5_T1P_T2P,5,P,P,6,11,5,3,14,wrench,Did you see the wrench?,0.12,0.016,JPG\,cherry01,cymbal,envelope03a,foosballtable,shirt02,stubbywrench01a,sewingmachine01a,candle08b,battery02b,apple07,stapler03b,screwdriver04b,strawberry,sunglasses04,blankImage,blankImage,blankImage,stubbywrench01a,,,,,,,,,,,,0,96,96,122,,,,,,,,,,,,,,,,,,,,,,,,,,,,,,,,,,,814.5771118999692,815.5895753999939,815.5728380000219,816.1675301999785,816.1675301999785,None,817.8680913000135,None,right,1.358872199896723,817.8680913000135,None,819.2596854999429,None,right,0.19130139995831996,819.2596854999429,None,,,,,,,,,,,,,,,,,,,,,,,PPT42,001,2022-07-07_14h52.56.649,ABstudy,2022.1.4,59.964980422126,
AB,Lag1_T1P_T2A,1,P,A,6,7,5,5,12,foot,Did you see the foot?,0.12,0.016,JPG\,watermelon01,cigarette,weight04a,cymbal,cauliflower01,foot,cherry01,broom01,battery02b,key01,baseball01a,iron01b,blankImage,blankImage,blankImage,blankImage,blankImage,foot,,,,,,,,,,,,0,97,97,188,,,,,,,,,,,,,,,,,,,,,,,,,,,,,,,,,,,819.5230919999303,820.527869499987,820.5110788999591,821.108785099932,821.108785099932,None,822.4935636000009,None,left,1.3413884999463335,822.4935636000009,None,823.8647943999385,None,right,0.5141395999817178,823.8647943999385,None,,,,,,,,,,,,,,,,,,,,,,,PPT42,001,2022-07-07_14h52.56.649,ABstudy,2022.1.4,59.964980422126,
AB,Lag1_T1P_T2P,1,P,P,6,7,5,3,10,handcuffs,Did you see the handcuffs?,0.12,0.016,JPG\,sewingmachine01a,scarf,carrot01,book01b,eraser,handcuffs,stapler05,lipstick02a,printer02,garlic01a,blankImage,blankImage,blankImage,blankImage,blankImage,blankImage,blankImage,handcuffs,,,,,,,,,,,,0,98,98,2,,,,,,,,,,,,,,,,,,,,,,,,,,,,,,,,,,,824.4036305999616,825.4160739999497,825.3994287999813,825.9897880000062,825.9897880000062,None,827.2604285000125,None,left,3.638463099952787,827.2604285000125,None,830.9218293000013,None,right,0.409828900010325,830.9218293000013,None,,,,,,,,,,,,,,,,,,,,,,,PPT42,001,2022-07-07_14h52.56.649,ABstudy,2022.1.4,59.964980422126,
AB,Lag5_T1P_T2P,5,P,P,5,10,4,5,15,funnel,Did you see the funnel?,0.12,0.016,JPG\,pineapple01a,tennisball01b,computerkeyboard02,feather03a,funnel,acorn,violin,blueberry01,medal02b,stapler01,greenolive,screwdriver04b,potato02b,fork03c,cymbal,blankImage,blankImage,funnel,,,,,,,,,,,,0,99,99,109,,,,,,,,,,,,,,,,,,,,,,,,,,,,,,,,,,,831.3600488000084,832.3733490000013,832.3563867999474,832.9551589000039,832.9551589000039,None,834.67991419998,None,right,1.4982560999924317,834.67991419998,None,836.2101930999197,None,right,0.19328250002581626,836.2101930999197,None,,,,,,,,,,,,,,,,,,,,,,,PPT42,001,2022-07-07_14h52.56.649,ABstudy,2022.1.4,59.964980422126,
AB,Lag5_T1P_T2A,5,P,A,6,11,5,5,16,World map,Did you see the World map?,0.12,0.016,JPG\,cigarette,pig,banana01,strawberry,clock01a,worldmap,spoon01,blueberry01,battery02b,pineapple01a,chain01,paintbrush01,candy,pen04b,teabag,birthdaycandle,blankImage,worldmap,,,,,,,,,,,,0,100,100,205,,,,,,,,,,,,,,,,,,,,,,,,,,,,,,,,,,,836.4331198999425,837.4451140000019,837.4297005999833,838.0202561999904,838.0202561999904,None,839.8692644999828,None,left,0.9892779999645427,839.8692644999828,None,840.8815779999131,None,right,0.29709340003319085,840.8815779999131,None,,,,,,,,,,,,,,,,,,,,,,,PPT42,001,2022-07-07_14h52.56.649,ABstudy,2022.1.4,59.964980422126,
AB,Lag1_T1A_T2P,1,A,P,8,9,7,3,12,seal,Did you see the seal?,0.12,0.016,JPG\,dice05a,watch02a,pig,lighter01,button01,strawberry,paintbrush01,microscope,stapler03a,pen04b,feather03a,8ball,blankImage,blankImage,blankImage,blankImage,blankImage,hockeystick,,,,,,,,,,,,0,101,101,235,,,,,,,,,,,,,,,,,,,,,,,,,,,,,,,,,,,841.2017203000141,842.2161618999671,842.182868200005,842.7613308000145,842.7613308000145,None,844.2210479999194,None,right,4.82961889996659,844.2210479999194,None,849.072642599931,None,right,0.2100324999773875,849.072642599931,None,,,,,,,,,,,,,,,,,,,,,,,PPT42,001,2022-07-07_14h52.56.649,ABstudy,2022.1.4,59.964980422126,
AB,Lag5_T1A_T2P,5,A,P,6,11,5,4,15,fish,Did you see the fish?,0.12,0.016,JPG\,pingpongpaddle01c,banana01,scissors01,pig,shirt02,leaf02a,pear01,sponge01,fork03c,tableknife02,stapler03a,match,toothbrush03b,birthdaycandle,candle01,blankImage,blankImage,lighthouse,,,,,,,,,,,,0,102,102,265,,,,,,,,,,,,,,,,,,,,,,,,,,,,,,,,,,,849.3073487000074,850.3075384999393,850.2909090999747,850.8774985999335,850.8774985999335,None,852.6827261999715,None,right,1.2719795999582857,852.6827261999715,None,853.9779944999609,None,right,0.18466110003646463,853.9779944999609,None,,,,,,,,,,,,,,,,,,,,,,,PPT42,001,2022-07-07_14h52.56.649,ABstudy,2022.1.4,59.964980422126,
AB,Lag5_T1P_T2P,5,P,P,6,11,5,3,14,fish,Did you see the fish?,0.12,0.016,JPG\,broom01,globe,cellphone,tableknife02,cauliflower01,holdfast,ring01,alligator,rice,toaster01,stapler03b,grape01,microscope,cucumber,blankImage,blankImage,blankImage,holdfast,,,,,,,,,,,,0,103,103,133,,,,,,,,,,,,,,,,,,,,,,,,,,,,,,,,,,,854.196337500005,855.1956873999443,855.1789235000033,855.758030399913,855.758030399913,None,857.4464820999419,None,left,1.06783950002864,857.4464820999419,None,858.5326356999576,None,right,0.9338910999940708,858.5326356999576,None,,,,,,,,,,,,,,,,,,,,,,,PPT42,001,2022-07-07_14h52.56.649,ABstudy,2022.1.4,59.964980422126,
AB,Lag1_T1P_T2P,1,P,P,8,9,7,4,13,peacock,Did you see the peacock?,0.12,0.016,JPG\,hammer01,sponge01,toaster01,cherry01,feather03a,mushroom01,measuringcup01,peacock,stapler03a,brick,clock04,medal02b,teabag,blankImage,blankImage,blankImage,blankImage,peacock,,,,,,,,,,,,0,104,104,68,,,,,,,,,,,,,,,,,,,,,,,,,,,,,,,,,,,859.4883819000097,860.5009669999126,860.4842448999407,861.0658817000221,861.0658817000221,None,862.6093813999323,None,left,1.4328205999918282,862.6093813999323,None,864.0710595999844,None,right,0.2761823000619188,864.0710595999844,None,,,,,,,,,,,,,,,,,,,,,,,PPT42,001,2022-07-07_14h52.56.649,ABstudy,2022.1.4,59.964980422126,
AB,Lag1_T1A_T2P,1,A,P,8,9,7,3,12,porcupine,Did you see the porcupine?,0.12,0.016,JPG\,celery,orange,scissors01,balloon01b,avocado01,printer02,mushroom01,sewingmachine01a,stapler01,dice05a,ashtray01,fan,blankImage,blankImage,blankImage,blankImage,blankImage,drumstick,,,,,,,,,,,,0,105,105,233,,,,,,,,,,,,,,,,,,,,,,,,,,,,,,,,,,,864.3754152000183,865.3889963999391,865.3723076999886,866.0265228999779,865.9392730999971,None,867.3917908999138,None,right,1.0662958999164402,867.3917908999138,None,868.4764295999194,None,right,0.1737235999898985,868.4764295999194,None,,,,,,,,,,,,,,,,,,,,,,,PPT42,001,2022-07-07_14h52.56.649,ABstudy,2022.1.4,59.964980422126,
AB,Lag1_T1P_T2P,1,P,P,8,9,7,3,12,Fire hydrant,Did you see the Fire hydrant?,0.12,0.016,JPG\,foosballtable,candy,envelope03a,microscope,pencil01,leaf02a,scissors01,firehydrant,stapler01,dandelion,pineapple01a,hammer01,blankImage,blankImage,blankImage,blankImage,blankImage,firehydrant,,,,,,,,,,,,0,106,106,83,,,,,,,,,,,,,,,,,,,,,,,,,,,,,,,,,,,868.6840542999562,869.693508700002,869.6769649999915,870.1793148999568,870.1793148999568,None,871.7132798000239,None,left,0.7209242999088019,871.7132798000239,None,872.463036299916,None,right,0.38771039992570877,872.463036299916,None,,,,,,,,,,,,,,,,,,,,,,,PPT42,001,2022-07-07_14h52.56.649,ABstudy,2022.1.4,59.964980422126,
AB,Lag1_T1A_T2A,1,A,A,6,7,5,5,12,Safe,Did you see the Safe?,0.12,0.016,JPG\,hammer01,sponge01,toaster01,cherry01,feather03a,mushroom01,measuringcup01,pencil01,tennisball01b,brick,clock04,medal02b,blankImage,blankImage,blankImage,blankImage,blankImage,downhillski,,,,,,,,,,,,0,107,107,294,,,,,,,,,,,,,,,,,,,,,,,,,,,,,,,,,,,872.884946599952,873.8975112999324,873.881028899923,874.4417643999914,874.4417643999914,None,875.9648085000226,None,left,0.9510824999306351,875.9648085000226,None,876.9342018999159,None,right,0.27660549990832806,876.9342018999159,None,,,,,,,,,,,,,,,,,,,,,,,PPT42,001,2022-07-07_14h52.56.649,ABstudy,2022.1.4,59.964980422126,
AB,Lag1_T1P_T2P,1,P,P,8,9,7,4,13,mattress,Did you see the mattress?,0.12,0.016,JPG\,button01,celery,birthdaycandle,apple07,avocado01,tennisball01b,dice05a,mattress,stapler01,feather03a,tomato01,scarf,orange,blankImage,blankImage,blankImage,blankImage,mattress,,,,,,,,,,,,0,108,108,22,,,,,,,,,,,,,,,,,,,,,,,,,,,,,,,,,,,877.2378870999673,878.2519281000132,878.2352221999317,878.9012788999826,878.8131740000099,None,880.4285873000044,None,right,1.5902639999985695,880.4285873000044,None,882.039451199933,None,left,0.42821709997951984,882.039451199933,None,,,,,,,,,,,,,,,,,,,,,,,PPT42,001,2022-07-07_14h52.56.649,ABstudy,2022.1.4,59.964980422126,
AB,Lag1_T1A_T2P,1,A,P,5,6,4,3,9,Crown,Did you see the Crown?,0.12,0.016,JPG\,leaf02a,pear01,measuringcup01,cigarette,fan,stapler04b,teabag,tableknife02,ring01,blankImage,blankImage,blankImage,blankImage,blankImage,blankImage,blankImage,blankImage,arrow02,,,,,,,,,,,,0,109,109,248,,,,,,,,,,,,,,,,,,,,,,,,,,,,,,,,,,,882.4920277999481,883.5073009999469,883.4734165999107,884.0939827000257,884.0939827000257,None,885.1938321000198,None,right,1.2725778999738395,885.1938321000198,None,886.493705599918,None,right,0.18094180000480264,886.493705599918,None,,,,,,,,,,,,,,,,,,,,,,,PPT42,001,2022-07-07_14h52.56.649,ABstudy,2022.1.4,59.964980422126,
AB,Lag1_T1A_T2P,1,A,P,8,9,7,4,13,Rabbit,Did you see the Rabbit?,0.12,0.016,JPG\,lamp04a,broccoli01a,alligator,garlic01a,dandelion,brownsugar,avocado01,ring01,stapler06,cellphone,medal02b,cd,calculator01,blankImage,blankImage,blankImage,blankImage,escalator,,,,,,,,,,,,0,110,110,254,,,,,,,,,,,,,,,,,,,,,,,,,,,,,,,,,,,886.6992295000236,887.71138959995,887.6946940999478,888.2796297000023,888.2796297000023,None,889.8195430999622,None,right,1.3986318000825122,889.8195430999622,None,891.248520999914,None,right,0.1695956001058221,891.248520999914,None,,,,,,,,,,,,,,,,,,,,,,,PPT42,001,2022-07-07_14h52.56.649,ABstudy,2022.1.4,59.964980422126,
AB,Lag1_T1P_T2A,1,P,A,5,6,4,4,10,bird,Did you see the bird?,0.12,0.016,JPG\,toaster01,scarf,toiletpaper01a,calculator01,swallow,sewingmachine01a,fan,teabag,strawberry,balloon01b,blankImage,blankImage,blankImage,blankImage,blankImage,blankImage,blankImage,swallow,,,,,,,,,,,,0,111,111,195,,,,,,,,,,,,,,,,,,,,,,,,,,,,,,,,,,,891.4523066999391,892.4657779999543,892.4490827999543,893.028113599983,893.028113599983,None,894.2638018999714,None,left,0.579335100017488,894.2638018999714,None,894.8682477999246,None,right,0.550686499918811,894.8682477999246,None,,,,,,,,,,,,,,,,,,,,,,,PPT42,001,2022-07-07_14h52.56.649,ABstudy,2022.1.4,59.964980422126,
AB,Lag1_T1P_T2A,1,P,A,7,8,6,3,11,fish,Did you see the fish?,0.12,0.016,JPG\,rice,watermelon01,tableknife02,scarf,computerkeyboard02,cauliflower01,salmon,binoculars01b,book01b,sandal,sponge01,blankImage,blankImage,blankImage,blankImage,blankImage,blankImage,salmon,,,,,,,,,,,,0,112,112,179,,,,,,,,,,,,,,,,,,,,,,,,,,,,,,,,,,,895.4392572999932,896.4535815999843,896.4200351999607,897.0980314000044,897.0980314000044,None,898.4460088999476,None,left,0.572032600059174,898.4460088999476,None,899.0402113000164,None,right,0.5145457000471652,899.0402113000164,None,,,,,,,,,,,,,,,,,,,,,,,PPT42,001,2022-07-07_14h52.56.649,ABstudy,2022.1.4,59.964980422126,
AB,Lag1_T1P_T2A,1,P,A,5,6,4,4,10,paper airplane,Did you see the paper airplane?,0.12,0.016,JPG\,thermometer02b,avocado01,scissors01,tennisball01b,paperairplane,banana01,strawberry,cigarette,potato02b,pineapple01a,blankImage,blankImage,blankImage,blankImage,blankImage,blankImage,blankImage,paperairplane,,,,,,,,,,,,0,113,113,191,,,,,,,,,,,,,,,,,,,,,,,,,,,,,,,,,,,899.5875549999764,900.5917576999636,900.5590234999545,901.2119537999388,901.1387738999911,None,902.4164149999851,None,left,0.41939289995934814,902.4164149999851,None,902.8599637999432,None,right,0.3671936000464484,902.8599637999432,None,,,,,,,,,,,,,,,,,,,,,,,PPT42,001,2022-07-07_14h52.56.649,ABstudy,2022.1.4,59.964980422126,
AB,Lag5_T1P_T2A,5,P,A,6,11,5,3,14,Balcony,Did you see the Balcony?,0.12,0.016,JPG\,tomato01,pen04b,shirt02,carrot01,lamp04a,balcony02,pizza,avocado01,sewingmachine01a,apple07,iron01b,book01b,chain01,sock01a,blankImage,blankImage,blankImage,balcony02,,,,,,,,,,,,0,114,114,207,,,,,,,,,,,,,,,,,,,,,,,,,,,,,,,,,,,903.2515158000169,904.2613371999469,904.2444403999252,904.8337320999708,904.8337320999708,None,906.5633726000087,None,right,2.071578699979,906.5633726000087,None,908.6656530000037,None,right,2.104530500015244,908.6656530000037,None,,,,,,,,,,,,,,,,,,,,,,,PPT42,001,2022-07-07_14h52.56.649,ABstudy,2022.1.4,59.964980422126,
AB,Lag5_T1P_T2P,5,P,P,6,11,5,3,14,Poker chips,Did you see the Poker chips?,0.12,0.016,JPG\,iron01b,brick,broccoli01a,balloon01b,tomato01,pokerchips,sandal,teabag,scissors01,pineapple01a,stapler04b,measuringcup01,sock01a,book01b,blankImage,blankImage,blankImage,pokerchips,,,,,,,,,,,,0,115,115,154,,,,,,,,,,,,,,,,,,,,,,,,,,,,,,,,,,,910.8067668000003,911.8187574999174,911.8020009999163,912.3883612999925,912.3883612999925,None,914.1335037000244,None,left,0.6125956999603659,914.1335037000244,None,914.771837499924,None,left,0.18210330000147223,914.771837499924,None,,,,,,,,,,,,,,,,,,,,,,,PPT42,001,2022-07-07_14h52.56.649,ABstudy,2022.1.4,59.964980422126,
AB,Lag5_T1A_T2P,5,A,P,8,13,7,5,18,lollipop,Did you see the lollipop?,0.12,0.016,JPG\,watermelon01,banana01,ring01,pencil01,tomato01,speaker04,cucumber,thermometer02b,key01,foosballtable,violin,spoon01,stapler04b,dice05a,pen04b,mushroom01,blankImage,jeans01,,,,,,,,,,,,0,116,116,262,,,,,,,,,,,,,,,,,,,,,,,,,,,,,,,,,,,914.9781364999944,915.9897005999228,915.9728163999971,916.5734028000152,916.5734028000152,None,918.5257371999323,None,right,1.3646529000252485,918.5257371999323,None,919.911498399917,None,right,0.15476619999390095,919.911498399917,None,,,,,,,,,,,,,,,,,,,,,,,PPT42,001,2022-07-07_14h52.56.649,ABstudy,2022.1.4,59.964980422126,
AB,Lag1_T1P_T2A,1,P,A,5,6,4,5,11,Sailboat,Did you see the Sailboat?,0.12,0.016,JPG\,chain01,speaker04,avocado01,watermelon01,sailboat,comb02a,lamp04a,fork03c,toaster01,slipper03b,scissors01,blankImage,blankImage,blankImage,blankImage,blankImage,blankImage,sailboat,,,,,,,,,,,,0,117,117,193,,,,,,,,,,,,,,,,,,,,,,,,,,,,,,,,,,,920.1010872999905,921.1113660999108,921.0947790999198,921.6600461999187,921.6600461999187,None,923.0529716999736,None,left,0.5891502000158653,923.0529716999736,None,923.6667502999771,None,right,0.32739880005829036,923.6667502999771,None,,,,,,,,,,,,,,,,,,,,,,,PPT42,001,2022-07-07_14h52.56.649,ABstudy,2022.1.4,59.964980422126,
AB,Lag5_T1P_T2P,5,P,P,8,13,7,5,18,Ping pong Table,Did you see the Ping pong Table?,0.12,0.016,JPG\,shirt02,match,screw02,foosballtable,blueberry01,pineapple01a,sewingmachine01a,pingpongtable,button01,comb02a,dice05a,measuringcup01,stapler04b,printer02,carrot01,watermelon01,blankImage,pingpongtable,,,,,,,,,,,,0,118,118,152,,,,,,,,,,,,,,,,,,,,,,,,,,,,,,,,,,,924.0285605000099,925.0314851999283,924.9981433999492,925.574450599961,925.574450599961,None,927.5762260999763,None,left,0.5218713999493048,927.5762260999763,None,928.118280799943,None,left,0.16369970003142953,928.118280799943,None,,,,,,,,,,,,,,,,,,,,,,,PPT42,001,2022-07-07_14h52.56.649,ABstudy,2022.1.4,59.964980422126,
AB,Lag1_T1P_T2P,1,P,P,5,6,4,5,11,candy cane,Did you see the candy cane?,0.12,0.016,JPG\,shirt02,match,screw02,foosballtable,candycane01a,stapler04b,sewingmachine01a,watch02a,button01,comb02a,dice05a,blankImage,blankImage,blankImage,blankImage,blankImage,blankImage,candycane01a,,,,,,,,,,,,0,119,119,9,,,,,,,,,,,,,,,,,,,,,,,,,,,,,,,,,,,928.309002499911,929.3195071999216,929.3028188999742,929.9010478999699,929.9010478999699,None,931.2552558999741,None,left,0.6434966999804601,931.2552558999741,None,931.9218117999844,None,right,0.32052539999131113,931.9218117999844,None,,,,,,,,,,,,,,,,,,,,,,,PPT42,001,2022-07-07_14h52.56.649,ABstudy,2022.1.4,59.964980422126,
AB,Lag1_T1P_T2P,1,P,P,7,8,6,5,13,tiger,Did you see the tiger?,0.12,0.016,JPG\,globe,broccoli01a,binoculars01b,iron01b,avocado01,dandelion,tiger02,stapler03b,fan,pizza,celery,blueberry01,sewingmachine01a,blankImage,blankImage,blankImage,blankImage,tiger02,,,,,,,,,,,,0,120,120,50,,,,,,,,,,,,,,,,,,,,,,,,,,,,,,,,,,,932.3302674000151,933.340153099969,933.3234002999961,933.9231345999287,933.9231345999287,None,935.4263550000032,None,left,1.0160640999674797,935.4263550000032,None,936.4624424999347,None,right,0.35593039996456355,936.4624424999347,None,,,,,,,,,,,,,,,,,,,,,,,PPT42,001,2022-07-07_14h52.56.649,ABstudy,2022.1.4,59.964980422126,
AB,Lag5_T1P_T2P,5,P,P,8,13,7,4,17,trumpet,Did you see the trumpet?,0.12,0.016,JPG\,toaster01,scarf,toiletpaper01a,calculator01,violin,sewingmachine01a,fan,trumpet,strawberry,balloon01b,brownsugar,eraser,stapler01,rice,ring01,shirt02,blankImage,trumpet,,,,,,,,,,,,0,121,121,145,,,,,,,,,,,,,,,,,,,,,,,,,,,,,,,,,,,936.8470767999534,937.8611361000221,937.8277883999981,938.4131023000227,938.4131023000227,None,940.3925544000231,None,left,1.9374044999713078,940.3925544000231,None,942.3489801000105,None,right,0.38092519994825125,942.3489801000105,None,,,,,,,,,,,,,,,,,,,,,,,PPT42,001,2022-07-07_14h52.56.649,ABstudy,2022.1.4,59.964980422126,
AB,Lag5_T1P_T2A,5,P,A,5,10,4,3,13,pin,Did you see the pin?,0.12,0.016,JPG\,candle01,fork03c,plate01b,violin,pin,candy,calculator01,paintbrush01,cherry01,sock01a,teabag,banana01,cd,blankImage,blankImage,blankImage,blankImage,pin,,,,,,,,,,,,0,122,122,215,,,,,,,,,,,,,,,,,,,,,,,,,,,,,,,,,,,942.7520540999249,943.7670114999637,943.7336526999716,944.3386840999592,944.3386840999592,None,945.8887755000032,None,right,1.6969392999308184,945.8887755000032,None,947.60414760001,None,right,1.1829666000558063,947.60414760001,None,,,,,,,,,,,,,,,,,,,,,,,PPT42,001,2022-07-07_14h52.56.649,ABstudy,2022.1.4,59.964980422126,
AB,Lag1_T1P_T2P,1,P,P,6,7,5,3,10,jelly beans,Did you see the jelly beans?,0.12,0.016,JPG\,lipstick02a,cucumber,candle08b,printer02,grape01,jellybean,stapler01,lighter01,belt02a,balloon01b,blankImage,blankImage,blankImage,blankImage,blankImage,blankImage,blankImage,jellybean,,,,,,,,,,,,0,123,123,15,,,,,,,,,,,,,,,,,,,,,,,,,,,,,,,,,,,948.8133798999479,949.823132499936,949.8063745999243,950.3778447000077,950.3778447000077,None,951.628595200018,None,left,1.1412583999335766,951.628595200018,None,952.7930529000005,None,right,0.8019594999495894,952.7930529000005,None,,,,,,,,,,,,,,,,,,,,,,,PPT42,001,2022-07-07_14h52.56.649,ABstudy,2022.1.4,59.964980422126,
AB,Lag5_T1P_T2P,5,P,P,8,13,7,3,16,banjo,Did you see the banjo?,0.12,0.016,JPG\,celery,brownsugar,key01,sunglasses04,leaf02a,toothbrush03b,dice05a,banjo,scarf,globe,paintbrush01,scissors01,stapler03a,battery02b,feather03a,cymbal,blankImage,banjo,,,,,,,,,,,,0,124,124,102,,,,,,,,,,,,,,,,,,,,,,,,,,,,,,,,,,,953.6321194999618,954.6447001999477,954.6279751999537,955.2158567999722,955.2158567999722,None,957.0690198999364,None,right,5.326390300062485,957.0690198999364,None,962.4196426999988,None,right,0.16778909997083247,962.4196426999988,None,,,,,,,,,,,,,,,,,,,,,,,PPT42,001,2022-07-07_14h52.56.649,ABstudy,2022.1.4,59.964980422126,
AB,Lag1_T1A_T2P,1,A,P,7,8,6,3,11,lion,Did you see the lion?,0.12,0.016,JPG\,sock01a,spoon01,alligator,comb02a,printer02,medal02b,lamp04a,stapler01,greenolive,computerkeyboard02,cauliflower01,blankImage,blankImage,blankImage,blankImage,blankImage,blankImage,bullet,,,,,,,,,,,,0,125,125,229,,,,,,,,,,,,,,,,,,,,,,,,,,,,,,,,,,,962.6232702999841,963.6371272000251,963.6204097999725,964.2265085999388,964.2265085999388,None,965.5586683999281,None,right,0.9248660000739619,965.5586683999281,None,966.5073829999892,None,right,0.3761322000063956,966.5073829999892,None,,,,,,,,,,,,,,,,,,,,,,,PPT42,001,2022-07-07_14h52.56.649,ABstudy,2022.1.4,59.964980422126,
AB,Lag5_T1P_T2P,5,P,P,5,10,4,3,13,Jellyfish,Did you see the Jellyfish?,0.12,0.016,JPG\,printer02,envelope03a,potato02b,calculator01,jellyfish,cigarette,ashtray01,pig,broom01,stapler06,candle08b,battery02b,strawberry,blankImage,blankImage,blankImage,blankImage,jellyfish,,,,,,,,,,,,0,126,126,91,,,,,,,,,,,,,,,,,,,,,,,,,,,,,,,,,,,966.915230399929,967.9249978999142,967.9094518999336,968.5178329999326,968.5178329999326,None,970.1054418999702,None,left,0.5606420999392867,970.1054418999702,None,970.6949200999225,None,right,1.7872479000361636,970.6949200999225,None,,,,,,,,,,,,,,,,,,,,,,,PPT42,001,2022-07-07_14h52.56.649,ABstudy,2022.1.4,59.964980422126,
AB,Lag5_T1A_T2P,5,A,P,5,10,4,5,15,Eye patch,Did you see the Eye patch?,0.12,0.016,JPG\,scissors01,balloon01b,eraser,feather03a,banana01,candle01,measuringcup01,calculator01,thermometer02b,stapler03b,pear01,carrot01,globe,baseball01a,leaf02a,blankImage,blankImage,cross01,,,,,,,,,,,,0,127,127,258,,,,,,,,,,,,,,,,,,,,,,,,,,,,,,,,,,,972.5632576999487,973.5638574999757,973.5470240999712,974.1271470999345,974.1271470999345,None,975.942727799993,None,right,1.027298399945721,975.942727799993,None,977.00000609993,None,right,0.16188009991310537,977.00000609993,None,,,,,,,,,,,,,,,,,,,,,,,PPT42,001,2022-07-07_14h52.56.649,ABstudy,2022.1.4,59.964980422126,
AB,Lag5_T1P_T2P,5,P,P,7,12,6,5,17,tie,Did you see the tie?,0.12,0.016,JPG\,iron01b,orange,birthdaycandle,potato02b,cauliflower01,pencil01,tie02,candle08b,celery,tableknife02,pen04b,stapler06,ring01,rice,lemon02,tomato01,blankImage,tie02,,,,,,,,,,,,0,128,128,161,,,,,,,,,,,,,,,,,,,,,,,,,,,,,,,,,,,977.1858690999215,978.201258599991,978.1679277999792,978.759257699945,978.759257699945,None,980.749458199949,None,left,0.5963880000635982,980.749458199949,None,981.3708404999925,None,right,0.86287720000837,981.3708404999925,None,,,,,,,,,,,,,,,,,,,,,,,PPT42,001,2022-07-07_14h52.56.649,ABstudy,2022.1.4,59.964980422126,
AB,Lag5_T1P_T2P,5,P,P,6,11,5,4,15,Bumper car,Did you see the Bumper car?,0.12,0.016,JPG\,eraser,measuringcup01,chain01,birthdaycandle,ring01,bumpercar,weight04a,pig,cauliflower01,celery,stapler01,sunglasses04,greenolive,candy,strawberry,blankImage,blankImage,bumpercar,,,,,,,,,,,,0,129,129,104,,,,,,,,,,,,,,,,,,,,,,,,,,,,,,,,,,,982.2626808999339,983.2733512999257,983.2566761999624,983.8450760999694,983.8450760999694,None,985.6525256999303,None,right,0.9810981000773609,985.6525256999303,None,986.6609253999777,None,right,0.16558379994239658,986.6609253999777,None,,,,,,,,,,,,,,,,,,,,,,,PPT42,001,2022-07-07_14h52.56.649,ABstudy,2022.1.4,59.964980422126,
AB,Lag5_T1P_T2A,5,P,A,5,10,4,3,13,fan,Did you see the fan?,0.12,0.016,JPG\,scissors01,grape01,mushroom01,toiletpaper01a,fanheater,pizza,cigarette,ashtray01,carrot01,pineapple01a,foosballtable,lipstick02a,teabag,blankImage,blankImage,blankImage,blankImage,fanheater,,,,,,,,,,,,0,130,130,220,,,,,,,,,,,,,,,,,,,,,,,,,,,,,,,,,,,986.8499801999424,987.8612518999726,987.8445257999701,988.4092878999654,988.4092878999654,None,990.0512224999256,None,left,0.48738250008318573,990.0512224999256,None,990.5639454999473,None,right,0.7352435000939295,990.5639454999473,None,,,,,,,,,,,,,,,,,,,,,,,PPT42,001,2022-07-07_14h52.56.649,ABstudy,2022.1.4,59.964980422126,
AB,Lag1_T1P_T2P,1,P,P,8,9,7,3,12,mail box,Did you see the mail box?,0.12,0.016,JPG\,paintbrush01,dice05a,watermelon01,broccoli01a,hammer01,leaf02a,match,mailbox01,stapler05,fan,lipstick02a,grape01,blankImage,blankImage,blankImage,blankImage,blankImage,mailbox01,,,,,,,,,,,,0,131,131,20,,,,,,,,,,,,,,,,,,,,,,,,,,,,,,,,,,,991.3369207999203,992.3490280999104,992.332326099975,992.915992599912,992.915992599912,None,994.3989127000095,None,left,0.5555027999216691,994.3989127000095,None,994.9849115000106,None,right,0.34490269992966205,994.9849115000106,None,,,,,,,,,,,,,,,,,,,,,,,PPT42,001,2022-07-07_14h52.56.649,ABstudy,2022.1.4,59.964980422126,
AB,Lag1_T1P_T2P,1,P,P,8,9,7,4,13,crab,Did you see the crab?,0.12,0.016,JPG\,candle01,fork03c,plate01b,violin,computerkeyboard02,candy,calculator01,crab01,stapler04b,sock01a,teabag,banana01,cd,blankImage,blankImage,blankImage,blankImage,crab01,,,,,,,,,,,,0,132,132,37,,,,,,,,,,,,,,,,,,,,,,,,,,,,,,,,,,,995.353913799976,996.3693544999696,996.336003699922,996.9093544000061,996.9093544000061,None,998.5242480000015,None,left,0.9017962999641895,998.5242480000015,None,999.4556433999678,None,right,0.29038810008205473,999.4556433999678,None,,,,,,,,,,,,,,,,,,,,,,,PPT42,001,2022-07-07_14h52.56.649,ABstudy,2022.1.4,59.964980422126,
AB,Lag5_T1P_T2P,5,P,P,6,11,5,5,16,microwave,Did you see the microwave?,0.12,0.016,JPG\,pen04b,speaker04,lighter01,cherry01,weight04a,microwave,sock01a,toothbrush03b,broom01,sewingmachine01a,stapler06,iron01b,clock01a,sandal,cd,blueberry01,blankImage,microwave,,,,,,,,,,,,0,133,133,136,,,,,,,,,,,,,,,,,,,,,,,,,,,,,,,,,,,999.7750511999475,1000.7904783999547,1000.7571126000257,1001.3385910999496,1001.3385910999496,None,1003.299332399969,None,left,0.47921859996858984,1003.299332399969,None,1003.8101082999492,None,left,0.16752589994575828,1003.8101082999492,None,,,,,,,,,,,,,,,,,,,,,,,PPT42,001,2022-07-07_14h52.56.649,ABstudy,2022.1.4,59.964980422126,
AB,Lag1_T1A_T2P,1,A,P,6,7,5,5,12,Ostrich,Did you see the Ostrich?,0.12,0.016,JPG\,thermometer02b,candle08b,comb02a,toothbrush03b,brick,computerkeyboard02,stapler05,pineapple01a,candy,birthdaycandle,clock04,hairclip03,blankImage,blankImage,blankImage,blankImage,blankImage,discoball,,,,,,,,,,,,0,134,134,232,,,,,,,,,,,,,,,,,,,,,,,,,,,,,,,,,,,1004.0154552999884,1005.0282643999672,1005.0115382999647,1005.5780442999676,1005.5780442999676,None,1007.0713620999595,None,right,1.0422267999965698,1007.0713620999595,None,1008.1309985999251,None,right,1.1033279999392107,1008.1309985999251,None,,,,,,,,,,,,,,,,,,,,,,,PPT42,001,2022-07-07_14h52.56.649,ABstudy,2022.1.4,59.964980422126,
AB,Lag1_T1P_T2P,1,P,P,5,6,4,5,11,football,Did you see the football?,0.12,0.016,JPG\,globe,belt02a,sponge01,violin,soccerball,stapler01,clock01a,microscope,balloon01b,scarf,teabag,blankImage,blankImage,blankImage,blankImage,blankImage,blankImage,soccerball,,,,,,,,,,,,0,135,135,26,,,,,,,,,,,,,,,,,,,,,,,,,,,,,,,,,,,1009.2677263999358,1010.2831872999668,1010.249824599945,1010.836586899939,1010.836586899939,None,1012.2018801999511,None,left,1.5206742000300437,1012.2018801999511,None,1013.7533587999642,None,right,0.5683409000048414,1013.7533587999642,None,,,,,,,,,,,,,,,,,,,,,,,PPT42,001,2022-07-07_14h52.56.649,ABstudy,2022.1.4,59.964980422126,
AB,Lag5_T1P_T2P,5,P,P,7,12,6,5,17,American football helmet,Did you see the American football helmet?,0.12,0.016,JPG\,alligator,banana01,apple07,tomato01,button01,spoon01,footballhelmet,fork03c,slipper03b,potato02b,grape01,stapler03b,teabag,screwdriver04b,hammer01,tennisball01b,blankImage,footballhelmet,,,,,,,,,,,,0,136,136,148,,,,,,,,,,,,,,,,,,,,,,,,,,,,,,,,,,,1014.3578705999535,1015.3718488999875,1015.35509680002,1015.8575762999244,1015.8575762999244,None,1017.9013678999618,None,left,1.6449065000051633,1017.9013678999618,None,1019.5760477000149,None,right,0.28239329997450113,1019.5760477000149,None,,,,,,,,,,,,,,,,,,,,,,,PPT42,001,2022-07-07_14h52.56.649,ABstudy,2022.1.4,59.964980422126,
AB,Lag5_T1P_T2A,5,P,A,7,12,6,4,16,Bear,Did you see the Bear?,0.12,0.016,JPG\,comb02a,key01,medal02b,battery02b,lighter01,microscope,grizzly,sandal,pig,cellphone,computerkeyboard02,calculator01,cymbal,clock04,cucumber,avocado01,blankImage,grizzly,,,,,,,,,,,,0,137,137,213,,,,,,,,,,,,,,,,,,,,,,,,,,,,,,,,,,,1019.8815073999576,1020.8944268999621,1020.8790282999398,1021.4679823999759,1021.4679823999759,None,1023.4847192999441,None,left,1.4540091999806464,1023.4847192999441,None,1024.9675365999574,None,right,0.29052819998469204,1024.9675365999574,None,,,,,,,,,,,,,,,,,,,,,,,PPT42,001,2022-07-07_14h52.56.649,ABstudy,2022.1.4,59.964980422126,
