TrialType,CondType,Lag,T1_PA,T2_PA,T1Loc,T2Loc,PreDistractor,PostDistractor,TotalImg,cueWord,T1cue,StimLength,isi,PicFolder,Img1,Img2,Img3,Img4,Img5,Img6,Img7,Img8,Img9,Img10,Img11,Img12,Img13,Img14,Img15,Img16,Img17,T1_Identity,ImageType,T1PA,T2PA,Picture,Image,FullPathName,FilePath,Practice_Trials.thisRepN,Practice_Trials.thisTrialN,Practice_Trials.thisN,Practice_Trials.thisIndex,trials.thisRepN,trials.thisTrialN,trials.thisN,trials.thisIndex,trials_2.thisRepN,trials_2.thisTrialN,trials_2.thisN,trials_2.thisIndex,Practice_Ins.started,Practice_Ins.stopped,End_Prac_Ins.keys,End_Prac_Ins.rt,End_Prac_Ins.started,End_Prac_Ins.stopped,text_2.started,text_2.stopped,Fixation_Cross_2.started,Fixation_Cross_2.stopped,Rapid_Image_Present_2.started,Rapid_Image_Present_2.stopped,key_resp.keys,key_resp.rt,key_resp.started,key_resp.stopped,T1Response_2.started,T1Response_2.stopped,T2Response_2.started,T2Response_2.stopped,key_resp_4.keys,key_resp_4.rt,key_resp_4.started,key_resp_4.stopped,text.started,text.stopped,End_Instructions.keys,End_Instructions.rt,End_Instructions.started,End_Instructions.stopped,text_5.started,text_5.stopped,FC.started,FC.stopped,Rapid_Image_Present.started,Rapid_Image_Present.stopped,T1Response.started,T1Response.stopped,key_resp_2.keys,key_resp_2.rt,key_resp_2.started,key_resp_2.stopped,T2Response.started,T2Response.stopped,key_resp_3.keys,key_resp_3.rt,key_resp_3.started,key_resp_3.stopped,text_6.started,text_6.stopped,Fin_ins.keys,Fin_ins.rt,Fin_ins.started,Fin_ins.stopped,MemTest.started,MemTest.stopped,MemResponse.keys,MemResponse.rt,MemResponse.started,MemResponse.stopped,Display.started,Display.stopped,text_7.started,text_7.stopped,endOfExperiment.started,endOfExperiment.stopped,key_resp_5.keys,key_resp_5.rt,key_resp_5.started,key_resp_5.stopped,participant,session,date,expName,psychopyVersion,frameRate,
,,,,,,,,,,,,,,,,,,,,,,,,,,,,,,,,,,,,,,,,,,,,,,,,,,,,18.952300200005993,None,space,23.866523299948312,18.952300200005993,None,,,,,,,,,,,,,,,,,,,,,,,,,,,,,,,,,,,,,,,,,,,,,,,,,,,,,,,,,,,,,,,,,PPT44,001,2022-07-08_10h33.44.667,ABstudy,2022.1.4,59.96656262742534,
AB_Prac,Lag5_T1P_T2P,5,P,P,5,10,4,5,15,Vulture,Did you see the Vulture?,0.5,0.016,JPG\,shorts01,toast,ramekin01,bib,vulture,cracker02,date,glasses01a,hat03b,stapler01,measuringtape01,nail,pill,drum01,starfish01,blankImage,blankImage,vulture,,,,,,,,0,0,0,3,,,,,,,,,,,,,,,42.90062500000931,43.91061600006651,43.89392579998821,44.5381747999927,44.5381747999927,None,left,0.9211883000098169,52.06565270002466,None,52.06565270002466,None,53.00353280000854,None,left,1.295496299979277,53.00353280000854,None,,,,,,,,,,,,,,,,,,,,,,,,,,,,,,,,,,,,,,,,,,,,,,,PPT44,001,2022-07-08_10h33.44.667,ABstudy,2022.1.4,59.96656262742534,
AB_Prac,Lag1_T1P_T2A,1,P,A,5,6,4,5,11,Webcam,Did you see the Webcam?,0.5,0.016,JPG\,pictureframe04,binder03b,straw,adjustablewrench01b,webcam,cane,hairdryer02a,icepack,kitchenscale01a,lifejacket,piggybank,blankImage,blankImage,blankImage,blankImage,blankImage,blankImage,webcam,,,,,,,,0,1,1,6,,,,,,,,,,,,,,,54.331597200012766,55.33884930005297,55.32217449997552,55.913239300018176,55.913239300018176,None,left,1.0589243000140414,61.40826699999161,None,61.40826699999161,None,62.495968500035815,None,right,2.0431897999951616,62.495968500035815,None,,,,,,,,,,,,,,,,,,,,,,,,,,,,,,,,,,,,,,,,,,,,,,,PPT44,001,2022-07-08_10h33.44.667,ABstudy,2022.1.4,59.96656262742534,
AB_Prac,Lag1_T1A_T2A,1,A,A,8,9,7,3,12,Moose,Did you see the Moose?,0.5,0.016,JPG\,clothespin03b,corkscrew03a,drillbit03a,fusilli03a,needlenosepliers01,perfume01a,pistachio,scrubbingbrush05b,spatula03,toothpastetube,hinge,toydinosaur,blankImage,blankImage,blankImage,blankImage,blankImage,None,,,,,,,,0,2,2,10,,,,,,,,,,,,,,,64.57280760002322,65.5825019000331,65.56575149996206,66.13537240005098,66.13537240005098,None,left,1.0205643000081182,72.20606210001279,None,72.20606210001279,None,73.2567247999832,None,right,2.4179417000850663,73.2567247999832,None,,,,,,,,,,,,,,,,,,,,,,,,,,,,,,,,,,,,,,,,,,,,,,,PPT44,001,2022-07-08_10h33.44.667,ABstudy,2022.1.4,59.96656262742534,
AB_Prac,Lag5_T1P_T2A,5,P,A,6,11,5,5,16,Wheat,Did you see the Wheat?,0.5,0.016,JPG\,bottleopener01,dentalfloss03b,cooler01,icecreamcone01a,paperclip01b,wheat,pencilsharpener02a,plasticbasket01a,toycar04,apricot,hairclip02,rock01a,honeydewmelon,antenna,blackberry,cardboardbox,blankImage,wheat,,,,,,,,0,3,3,7,,,,,,,,,,,,,,,75.69505980005488,76.71015239995904,76.67671130003873,77.25716429995373,77.25716429995373,None,left,2.3235312999458984,85.34320350002963,None,85.34320350002963,None,87.68775260006078,None,left,0.8433232000097632,87.68775260006078,None,,,,,,,,,,,,,,,,,,,,,,,,,,,,,,,,,,,,,,,,,,,,,,,PPT44,001,2022-07-08_10h33.44.667,ABstudy,2022.1.4,59.96656262742534,
AB_Prac,Lag1_T1P_T2P,1,P,P,6,7,5,5,12,triangle,Did you see the triangle?,0.5,0.016,JPG\,ginger,mousetrap,plum01,slipper01b,dropper01,triangle,stapler04b,pants,raspberry01,rope03,scale01a,vase01,blankImage,blankImage,blankImage,blankImage,blankImage,triangle,,,,,,,,0,4,4,1,,,,,,,,,,,,,,,88.56421169999521,89.57258400006685,89.55593619996216,90.12953989999369,90.12953989999369,None,left,0.6731856000842527,96.16193129995372,None,96.16193129995372,None,96.86353109998163,None,left,0.48289670003578067,96.86353109998163,None,,,,,,,,,,,,,,,,,,,,,,,,,,,,,,,,,,,,,,,,,,,,,,,PPT44,001,2022-07-08_10h33.44.667,ABstudy,2022.1.4,59.96656262742534,
AB_Prac,Lag5_T1P_T2P,5,P,P,5,10,4,5,15,washing machine,Did you see the washing machine?,0.5,0.016,JPG\,waterbottle03,wheel01,flashlight02b,zucchini01,washingmachine,headphones02b,nutcracker01,paintroller01,paperclip03,stapler06,ribbon04,electricrazor,bottleofredwine01,pitabread,pot02a,blankImage,blankImage,washingmachine,,,,,,,,0,5,5,4,,,,,,,,,,,,,,,97.37116390001029,98.3817863999866,98.365040600067,98.9497057000408,98.9497057000408,None,left,0.7822428999934345,106.57337710005231,None,106.57337710005231,None,107.37540090002585,None,left,0.8198500000871718,107.37540090002585,None,,,,,,,,,,,,,,,,,,,,,,,,,,,,,,,,,,,,,,,,,,,,,,,PPT44,001,2022-07-08_10h33.44.667,ABstudy,2022.1.4,59.96656262742534,
AB_Prac,Lag5_T1P_T2A,5,P,A,6,11,5,5,16,bread,Did you see the bread?,0.5,0.016,JPG\,cleaver01,clipboard,dustpan,hikingshoe01,notebook03a,baguette01,playingcard,pliers02b,styrofoamcup,rollingpin01a,swimgoggles,wineglass01,fryingpan02a,safetypin,syringe01,thimble,blankImage,baguette01,,,,,,,,0,6,6,8,,,,,,,,,,,,,,,108.23337839997839,109.24217310000677,109.22546960006002,109.79187479999382,109.79187479999382,None,left,1.387698799953796,117.83134290005546,None,117.83134290005546,None,119.23582659999374,None,right,2.495748699991964,119.23582659999374,None,,,,,,,,,,,,,,,,,,,,,,,,,,,,,,,,,,,,,,,,,,,,,,,PPT44,001,2022-07-08_10h33.44.667,ABstudy,2022.1.4,59.96656262742534,
AB_Prac,Lag5_T1P_T2P,5,P,P,7,12,6,3,15,vacuum,Did you see the vacuum?,0.5,0.016,JPG\,fork07b,lightbulb01,manshoe,saw02b,shoelace,soap03a,vacuumcleaner01,floortile01,necklace,doll,cabbage,stapler03a,hanger02a,laptop01a,nailpolish03b,blankImage,blankImage,vacuumcleaner01,,,,,,,,0,7,7,2,,,,,,,,,,,,,,,121.76595679996535,122.77248379995581,122.75582019996364,123.32710480003152,123.32710480003152,None,left,0.744435100001283,130.90669249999337,None,130.90669249999337,None,131.6830830000108,None,left,2.0958100999705493,131.6830830000108,None,,,,,,,,,,,,,,,,,,,,,,,,,,,,,,,,,,,,,,,,,,,,,,,PPT44,001,2022-07-08_10h33.44.667,ABstudy,2022.1.4,59.96656262742534,
AB_Prac,Lag1_T1P_T2A,1,P,A,8,9,7,5,14,flower,Did you see the flower?,0.5,0.016,JPG\,razor01,axe01,binder03b,bowl01,kettle01,lettuce,lime,plasticflower01b,mitten04,pencilcase01,plunger02,strawbasket01,toothpick02,wallet02a,blankImage,blankImage,blankImage,plasticflower01b,,,,,,,,0,8,8,5,,,,,,,,,,,,,,,133.80883210001048,134.81809189997148,134.80127639998682,135.3691026000306,135.3691026000306,None,right,1.1263367000501603,142.42036059999373,None,142.42036059999373,None,143.5764988999581,None,right,1.4503684000810608,143.5764988999581,None,,,,,,,,,,,,,,,,,,,,,,,,,,,,,,,,,,,,,,,,,,,,,,,PPT44,001,2022-07-08_10h33.44.667,ABstudy,2022.1.4,59.96656262742534,
AB_Prac,Lag5_T1A_T2A,5,A,A,6,11,5,5,16,castle,Did you see the castle?,0.5,0.016,JPG\,tape02a,englishmuffin,flask,ladle02a,monitor,peach01,keychain,squeegee01b,telephone01b,whisk,walkman,syringe02,baguette01,coaster,box01a,coffeepot03a,blankImage,None,,,,,,,,0,9,9,11,,,,,,,,,,,,,,,145.04697090003174,146.06251540000085,146.0289621000411,146.61701639997773,146.61701639997773,None,right,1.314092900021933,154.65622480004095,None,154.65622480004095,None,155.98898460005876,None,right,0.6787870000116527,155.98898460005876,None,,,,,,,,,,,,,,,,,,,,,,,,,,,,,,,,,,,,,,,,,,,,,,,PPT44,001,2022-07-08_10h33.44.667,ABstudy,2022.1.4,59.96656262742534,
AB_Prac,Lag5_T1A_T2P,5,A,P,6,11,5,3,14,dog,Did you see the dog?,0.5,0.016,JPG\,bucket01a,doorlock,cookiecutter,fireextinguisher01,gluestick,highlighter02b,sportbag,spraybottle01,suitcase,thread02,stapler05,walnut01c,icecubetray01a,vikingmask01b,blankImage,blankImage,blankImage,None,,,,,,,,0,10,10,9,,,,,,,,,,,,,,,156.69316909997724,157.70757940004114,157.67423620005138,158.2583701000549,158.2583701000549,None,right,0.9713492000009865,165.31109129998367,None,165.31109129998367,None,166.29927950003184,None,left,0.6876031999709085,166.29927950003184,None,,,,,,,,,,,,,,,,,,,,,,,,,,,,,,,,,,,,,,,,,,,,,,,PPT44,001,2022-07-08_10h33.44.667,ABstudy,2022.1.4,59.96656262742534,
AB_Prac,Lag1_T1P_T2P,1,P,P,8,9,7,5,14,Tennis racket,Did you see the Tennis racket?,0.5,0.016,JPG\,coconut,computermouse06,croissant01,deodorant02a,pillow01a,peanut01,boot02b,tennisracket,stapler03b,crayon,eggplant,marker01a,plant01,radish01,blankImage,blankImage,blankImage,tennisracket,,,,,,,,0,11,11,0,,,,,,,,,,,,,,,167.02779049996752,168.0344092999585,168.01772830006666,168.6297890000278,168.6297890000278,None,left,1.1459345000330359,175.66443020000588,None,175.66443020000588,None,176.8429707000032,None,left,1.5520089000929147,176.8429707000032,None,,,,,,,,,,,,,,,,,,,,,,,,,,,,,,,,,,,,,,,,,,,,,,,PPT44,001,2022-07-08_10h33.44.667,ABstudy,2022.1.4,59.96656262742534,
,,,,,,,,,,,,,,,,,,,,,,,,,,,,,,,,,,,,,,,,,,,,,,,,,,,,,,,,,,,,,,,,,,,,,,,,,,,,178.4277433999814,None,space,10.246865299995989,178.4277433999814,None,,,,,,,,,,,,,,,,,,,,,,,,,,,,,,,,,,,,,,,,,PPT44,001,2022-07-08_10h33.44.667,ABstudy,2022.1.4,59.96656262742534,
AB,Lag5_T1A_T2P,5,A,P,7,12,6,3,15,hockey puck,Did you see the hockey puck?,0.12,0.016,JPG\,toiletpaper01a,lipstick02a,potato02b,speaker04,globe,strawberry,carrot01,plate01b,sock01a,candle08b,pen04b,stapler04b,foosballtable,brick,pear01,blankImage,blankImage,frisbee,,,,,,,,,,,,0,0,0,260,,,,,,,,,,,,,,,,,,,,,,,,,,,,,,,,,,,189.3867704999866,190.38976409996394,190.37389789998997,190.98327940003946,190.98327940003946,None,192.78085250000004,None,right,1.285971299977973,192.78085250000004,None,194.0964128000196,None,left,1.7779158001067117,194.0964128000196,None,,,,,,,,,,,,,,,,,,,,,,,PPT44,001,2022-07-08_10h33.44.667,ABstudy,2022.1.4,59.96656262742534,
AB,Lag1_T1A_T2P,1,A,P,7,8,6,3,11,lion,Did you see the lion?,0.12,0.016,JPG\,sock01a,spoon01,alligator,comb02a,printer02,medal02b,lamp04a,stapler01,greenolive,computerkeyboard02,cauliflower01,blankImage,blankImage,blankImage,blankImage,blankImage,blankImage,bullet,,,,,,,,,,,,0,1,1,229,,,,,,,,,,,,,,,,,,,,,,,,,,,,,,,,,,,195.90593320003245,196.91273720003664,196.89619969995692,197.4614656000631,197.4614656000631,None,198.8584656000603,None,right,1.1525899999542162,198.8584656000603,None,200.0329232000513,None,left,0.7371319000376388,200.0329232000513,None,,,,,,,,,,,,,,,,,,,,,,,PPT44,001,2022-07-08_10h33.44.667,ABstudy,2022.1.4,59.96656262742534,
AB,Lag1_T1P_T2A,1,P,A,8,9,7,4,13,boat,Did you see the boat?,0.12,0.016,JPG\,fork03c,dandelion,dice05a,belt02a,onion,watch02a,key01,boat,eraser,medal02b,greenolive,shirt02,candle08b,blankImage,blankImage,blankImage,blankImage,boat,,,,,,,,,,,,0,2,2,199,,,,,,,,,,,,,,,,,,,,,,,,,,,,,,,,,,,200.80293760006316,201.81798870000057,201.78464249998797,202.37902720004786,202.37902720004786,None,203.96108889998868,None,left,1.6733246999792755,203.96108889998868,None,205.65510249999352,None,right,1.0671469999942929,205.65510249999352,None,,,,,,,,,,,,,,,,,,,,,,,PPT44,001,2022-07-08_10h33.44.667,ABstudy,2022.1.4,59.96656262742534,
AB,Lag1_T1P_T2P,1,P,P,8,9,7,3,12,Eiffel tower,Did you see the Eiffel tower?,0.12,0.016,JPG\,celery,tennisball01b,calculator01,pear01,screw02,orange,button01,eiffeltower,stapler03b,apple07,iron01b,brownsugar,blankImage,blankImage,blankImage,blankImage,blankImage,eiffeltower,,,,,,,,,,,,0,3,3,40,,,,,,,,,,,,,,,,,,,,,,,,,,,,,,,,,,,206.75057320005726,207.75727619999088,207.74031909997575,208.31526469998062,208.31526469998062,None,209.69387459999416,None,left,0.9656198000302538,209.69387459999416,None,210.67668330005836,None,left,0.5897338000359014,210.67668330005836,None,,,,,,,,,,,,,,,,,,,,,,,PPT44,001,2022-07-08_10h33.44.667,ABstudy,2022.1.4,59.96656262742534,
AB,Lag5_T1P_T2P,5,P,P,7,12,6,4,16,Fireplace,Did you see the Fireplace?,0.12,0.016,JPG\,printer02,leaf02a,cauliflower01,sock01a,brownsugar,paintbrush01,fireplace,orange,belt02a,shirt02,key01,stapler01,cigarette,scissors01,envelope03a,blueberry01,blankImage,fireplace,,,,,,,,,,,,0,4,4,88,,,,,,,,,,,,,,,,,,,,,,,,,,,,,,,,,,,211.29880550003145,212.31187900004443,212.2951430999674,212.8756265999982,212.8756265999982,None,214.84698919998482,None,left,0.6750673999777064,214.84698919998482,None,215.5490438999841,None,left,0.49446570000145584,215.5490438999841,None,,,,,,,,,,,,,,,,,,,,,,,PPT44,001,2022-07-08_10h33.44.667,ABstudy,2022.1.4,59.96656262742534,
AB,Lag1_T1P_T2P,1,P,P,7,8,6,4,12,rooster,Did you see the rooster?,0.12,0.016,JPG\,pizza,strawberry,potato02b,speaker04,battery02b,iron01b,rooster,stapler03b,globe,banana01,medal02b,baseball01a,blankImage,blankImage,blankImage,blankImage,blankImage,rooster,,,,,,,,,,,,0,5,5,69,,,,,,,,,,,,,,,,,,,,,,,,,,,,,,,,,,,216.08042450004723,217.08300890005194,217.04967239999678,217.63612260005902,217.63612260005902,None,219.13941970001906,None,left,0.9753158000530675,219.13941970001906,None,220.13630100002047,None,left,0.9295748999575153,220.13630100002047,None,,,,,,,,,,,,,,,,,,,,,,,PPT44,001,2022-07-08_10h33.44.667,ABstudy,2022.1.4,59.96656262742534,
AB,Lag5_T1P_T2A,5,P,A,8,13,7,4,17,fountain,Did you see the fountain?,0.12,0.016,JPG\,printer02,envelope03a,potato02b,calculator01,tableknife02,cigarette,ashtray01,parkfountain,broom01,greenolive,candle08b,battery02b,strawberry,candle01,foosballtable,tennisball01b,blankImage,parkfountain,,,,,,,,,,,,0,6,6,219,,,,,,,,,,,,,,,,,,,,,,,,,,,,,,,,,,,221.0937547000358,222.10487929999363,222.08800079999492,222.66403600003105,222.66403600003105,None,224.67564509995282,None,left,0.638968100072816,224.67564509995282,None,225.34138910006732,None,right,0.7332890999969095,225.34138910006732,None,,,,,,,,,,,,,,,,,,,,,,,PPT44,001,2022-07-08_10h33.44.667,ABstudy,2022.1.4,59.96656262742534,
AB,Lag1_T1P_T2A,1,P,A,6,7,5,4,11,Road,Did you see the Road?,0.12,0.016,JPG\,pizza,printer02,medal02b,spoon01,grape01,road02,belt02a,watermelon01,celery,battery02b,screw02,blankImage,blankImage,blankImage,blankImage,blankImage,blankImage,road02,,,,,,,,,,,,0,7,7,174,,,,,,,,,,,,,,,,,,,,,,,,,,,,,,,,,,,226.1008077999577,227.10968140000477,227.0930491000181,227.7165766999824,227.7165766999824,None,229.01907889998984,None,left,0.9035986000671983,229.01907889998984,None,229.9460165000055,None,right,0.6405406000558287,229.9460165000055,None,,,,,,,,,,,,,,,,,,,,,,,PPT44,001,2022-07-08_10h33.44.667,ABstudy,2022.1.4,59.96656262742534,
AB,Lag1_T1A_T2A,1,A,A,8,9,7,4,13,Recycling bin,Did you see the Recycling bin?,0.12,0.016,JPG\,brick,plate01b,pen04b,toaster01,screwdriver04b,candle01,envelope03a,feather03a,pig,ring01,orange,clock01a,lighter01,blankImage,blankImage,blankImage,blankImage,bumpercar,,,,,,,,,,,,0,8,8,292,,,,,,,,,,,,,,,,,,,,,,,,,,,,,,,,,,,230.61894049996044,231.63100419996772,231.61436869995669,232.1964875999838,232.1964875999838,None,233.7773338999832,None,right,1.3530989000573754,233.7773338999832,None,235.1510153999552,None,right,1.4274154999293387,235.1510153999552,None,,,,,,,,,,,,,,,,,,,,,,,PPT44,001,2022-07-08_10h33.44.667,ABstudy,2022.1.4,59.96656262742534,
AB,Lag5_T1P_T2P,5,P,P,6,11,5,4,15,fish,Did you see the fish?,0.12,0.016,JPG\,sock01a,spoon01,alligator,comb02a,printer02,rockbass,lamp04a,cymbal,greenolive,computerkeyboard02,stapler03a,scarf,teabag,watermelon01,battery02b,blankImage,blankImage,rockbass,,,,,,,,,,,,0,9,9,115,,,,,,,,,,,,,,,,,,,,,,,,,,,,,,,,,,,236.60502670006827,237.62071799999103,237.58733909996226,238.21177589998115,238.21177589998115,None,240.02334369998425,None,left,0.7230866000754759,240.02334369998425,None,240.77469920006115,None,left,4.388891999959014,240.77469920006115,None,,,,,,,,,,,,,,,,,,,,,,,PPT44,001,2022-07-08_10h33.44.667,ABstudy,2022.1.4,59.96656262742534,
AB,Lag1_T1A_T2A,1,A,A,8,9,7,3,12,popcorn,Did you see the popcorn?,0.12,0.016,JPG\,brownsugar,candle01,match,printer02,broom01,balloon01b,belt02a,potato02b,computerkeyboard02,feather03a,rice,mushroom01,blankImage,blankImage,blankImage,blankImage,blankImage,banjo,,,,,,,,,,,,0,10,10,290,,,,,,,,,,,,,,,,,,,,,,,,,,,,,,,,,,,245.24431770003866,246.24531879997812,246.22867730003782,246.72923259995878,246.72923259995878,None,248.24670270003844,None,right,1.147125400020741,248.24670270003844,None,249.41522800002713,None,right,0.7146181999705732,249.41522800002713,None,,,,,,,,,,,,,,,,,,,,,,,PPT44,001,2022-07-08_10h33.44.667,ABstudy,2022.1.4,59.96656262742534,
AB,Lag5_T1A_T2P,5,A,P,6,11,5,3,14,saxophone,Did you see the saxophone?,0.12,0.016,JPG\,globe,belt02a,sponge01,violin,fork03c,tomato01,clock01a,microscope,balloon01b,scarf,stapler03b,pen04b,brick,brownsugar,blankImage,blankImage,blankImage,microphone01,,,,,,,,,,,,0,11,11,267,,,,,,,,,,,,,,,,,,,,,,,,,,,,,,,,,,,250.15479770000093,251.1669458000688,251.15025509998668,251.74689039995428,251.74689039995428,None,253.3801880000392,None,right,1.1509482999099419,253.3801880000392,None,254.55384529998992,None,left,0.9362902999855578,254.55384529998992,None,,,,,,,,,,,,,,,,,,,,,,,PPT44,001,2022-07-08_10h33.44.667,ABstudy,2022.1.4,59.96656262742534,
AB,Lag1_T1P_T2P,1,P,P,8,9,7,4,13,kite,Did you see the kite?,0.12,0.016,JPG\,scissors01,balloon01b,eraser,feather03a,banana01,candle01,measuringcup01,kite,stapler04b,strawberry,pear01,carrot01,globe,blankImage,blankImage,blankImage,blankImage,kite,,,,,,,,,,,,0,12,12,17,,,,,,,,,,,,,,,,,,,,,,,,,,,,,,,,,,,255.52625380002428,256.5393974999897,256.52252360002603,257.10569400002714,257.10569400002714,None,258.7126576000592,None,left,0.777279399917461,258.7126576000592,None,259.50953080004547,None,left,0.5169901999179274,259.50953080004547,None,,,,,,,,,,,,,,,,,,,,,,,PPT44,001,2022-07-08_10h33.44.667,ABstudy,2022.1.4,59.96656262742534,
AB,Lag1_T1A_T2P,1,A,P,8,9,7,5,14,clock,Did you see the clock?,0.12,0.016,JPG\,speaker04,sewingmachine01a,eraser,violin,globe,belt02a,sunglasses04,cymbal,stapler01,greenolive,alligator,pear01,watch02a,screwdriver04b,blankImage,blankImage,blankImage,peacock,,,,,,,,,,,,0,13,13,240,,,,,,,,,,,,,,,,,,,,,,,,,,,,,,,,,,,260.06142489996273,261.07687029999215,261.04349459998775,261.62502110004425,261.62502110004425,None,263.3044403999811,None,right,0.6979641000507399,263.3044403999811,None,264.029839899973,None,left,0.6846581998979673,264.029839899973,None,,,,,,,,,,,,,,,,,,,,,,,PPT44,001,2022-07-08_10h33.44.667,ABstudy,2022.1.4,59.96656262742534,
AB,Lag5_T1P_T2P,5,P,P,7,12,6,3,15,Eye patch,Did you see the Eye patch?,0.12,0.016,JPG\,candle01,paintbrush01,scissors01,fan,microscope,toothbrush03b,eyepatch,watermelon01,teabag,pencil01,lemon02,stapler05,shirt02,cauliflower01,cd,blankImage,blankImage,eyepatch,,,,,,,,,,,,0,14,14,108,,,,,,,,,,,,,,,,,,,,,,,,,,,,,,,,,,,264.7508987999754,265.76524510001764,265.748148499988,266.3345152999973,266.3345152999973,None,268.13380299997516,None,right,1.0841354000149295,268.13380299997516,None,269.23511720006354,None,left,0.8233727000188082,269.23511720006354,None,,,,,,,,,,,,,,,,,,,,,,,PPT44,001,2022-07-08_10h33.44.667,ABstudy,2022.1.4,59.96656262742534,
AB,Lag5_T1P_T2A,5,P,A,5,10,4,3,13,cork,Did you see the cork?,0.12,0.016,JPG\,clock01a,grape01,plate01b,key01,cork02,feather03a,pineapple01a,iron01b,toothbrush03b,comb02a,broom01,toaster01,pizza,blankImage,blankImage,blankImage,blankImage,cork02,,,,,,,,,,,,0,15,15,209,,,,,,,,,,,,,,,,,,,,,,,,,,,,,,,,,,,270.0911998000229,271.103518399992,271.08733989996836,271.6744644000428,271.6744644000428,None,273.2546265999554,None,left,1.0198902001138777,273.2546265999554,None,274.30676439998206,None,right,0.5995165999047458,274.30676439998206,None,,,,,,,,,,,,,,,,,,,,,,,PPT44,001,2022-07-08_10h33.44.667,ABstudy,2022.1.4,59.96656262742534,
AB,Lag1_T1P_T2P,1,P,P,5,6,4,5,11,Light switch,Did you see the Light switch?,0.12,0.016,JPG\,iron01b,orange,birthdaycandle,potato02b,lightswitch01,stapler03b,key01,candle08b,celery,tableknife02,pen04b,blankImage,blankImage,blankImage,blankImage,blankImage,blankImage,lightswitch01,,,,,,,,,,,,0,16,16,18,,,,,,,,,,,,,,,,,,,,,,,,,,,,,,,,,,,274.9314769000048,275.9416553999763,275.9249663000228,276.5110124000348,276.5110124000348,None,277.8310980000533,None,left,0.8508627999108285,277.8310980000533,None,278.7113599999575,None,left,0.48291660007089376,278.7113599999575,None,,,,,,,,,,,,,,,,,,,,,,,PPT44,001,2022-07-08_10h33.44.667,ABstudy,2022.1.4,59.96656262742534,
AB,Lag1_T1A_T2P,1,A,P,8,9,7,4,13,nose,Did you see the nose?,0.12,0.016,JPG\,pizza,strawberry,potato02b,speaker04,battery02b,iron01b,dice05a,cellphone,stapler06,banana01,medal02b,baseball01a,toaster01,blankImage,blankImage,blankImage,blankImage,cow,,,,,,,,,,,,0,17,17,231,,,,,,,,,,,,,,,,,,,,,,,,,,,,,,,,,,,279.26245809998363,280.2632579000201,280.2464723000303,280.8592413000297,280.8592413000297,None,282.37709660001565,None,right,1.025384800042957,282.37709660001565,None,283.4324540999951,None,left,0.5452352000866085,283.4324540999951,None,,,,,,,,,,,,,,,,,,,,,,,PPT44,001,2022-07-08_10h33.44.667,ABstudy,2022.1.4,59.96656262742534,
AB,Lag1_T1P_T2P,1,P,P,5,6,4,3,9,Escalator,Did you see the Escalator?,0.12,0.016,JPG\,celery,pencil01,fan,foosballtable,escalator,stapler05,potato02b,fork03c,button01,blankImage,blankImage,blankImage,blankImage,blankImage,blankImage,blankImage,blankImage,escalator,,,,,,,,,,,,0,18,18,82,,,,,,,,,,,,,,,,,,,,,,,,,,,,,,,,,,,284.0022120999638,285.0173672999954,284.9840204999782,285.56748109997716,285.56748109997716,None,286.71572199999355,None,left,0.854424300021492,286.71572199999355,None,287.588297600043,None,right,0.4543048999039456,287.588297600043,None,,,,,,,,,,,,,,,,,,,,,,,PPT44,001,2022-07-08_10h33.44.667,ABstudy,2022.1.4,59.96656262742534,
AB,Lag5_T1P_T2P,5,P,P,6,11,5,3,14,shower head,Did you see the shower head?,0.12,0.016,JPG\,belt02a,measuringcup01,spoon01,chain01,greenolive,showerhead01,computerkeyboard02,onion,fan,strawberry,stapler01,broom01,binoculars01b,ashtray01,blankImage,blankImage,blankImage,showerhead01,,,,,,,,,,,,0,19,19,98,,,,,,,,,,,,,,,,,,,,,,,,,,,,,,,,,,,288.0816114000045,289.0881121000275,289.07134390005376,289.6513904000167,289.6513904000167,None,291.3486217999598,None,left,0.4291114000370726,291.3486217999598,None,291.80807949998416,None,left,0.44189010001719,291.80807949998416,None,,,,,,,,,,,,,,,,,,,,,,,PPT44,001,2022-07-08_10h33.44.667,ABstudy,2022.1.4,59.96656262742534,
AB,Lag5_T1P_T2A,5,P,A,6,11,5,5,16,World map,Did you see the World map?,0.12,0.016,JPG\,cigarette,pig,banana01,strawberry,clock01a,worldmap,spoon01,blueberry01,battery02b,pineapple01a,chain01,paintbrush01,candy,pen04b,teabag,birthdaycandle,blankImage,worldmap,,,,,,,,,,,,0,20,20,205,,,,,,,,,,,,,,,,,,,,,,,,,,,,,,,,,,,292.2871763999574,293.292826400022,293.276190900011,293.8747125000227,293.8747125000227,None,295.7115444999654,None,left,1.0103948999894783,295.7115444999654,None,296.7456828999566,None,right,0.912664599949494,296.7456828999566,None,,,,,,,,,,,,,,,,,,,,,,,PPT44,001,2022-07-08_10h33.44.667,ABstudy,2022.1.4,59.96656262742534,
AB,Lag5_T1P_T2A,5,P,A,7,12,6,3,15,Toy soldier,Did you see the Toy soldier?,0.12,0.016,JPG\,binoculars01b,cymbal,pizza,candy,paintbrush01,sponge01,toysoldier01b,thermometer02b,speaker04,lemon02,lipstick02a,strawberry,candle01,acorn,plate01b,blankImage,blankImage,toysoldier01b,,,,,,,,,,,,0,21,21,203,,,,,,,,,,,,,,,,,,,,,,,,,,,,,,,,,,,297.6842723999871,298.6977758000139,298.68116879998706,299.2707861000672,299.2707861000672,None,301.0634053000249,None,right,1.8431002999423072,301.0634053000249,None,302.9351121999789,None,right,0.8361971999984235,302.9351121999789,None,,,,,,,,,,,,,,,,,,,,,,,PPT44,001,2022-07-08_10h33.44.667,ABstudy,2022.1.4,59.96656262742534,
AB,Lag1_T1P_T2A,1,P,A,7,8,6,4,12,Steering wheel,Did you see the Steering wheel?,0.12,0.016,JPG\,alligator,banana01,apple07,tomato01,button01,spoon01,steeringwheel,fork03c,canoftennisballs,potato02b,grape01,leaf02a,blankImage,blankImage,blankImage,blankImage,blankImage,steeringwheel,,,,,,,,,,,,0,22,22,198,,,,,,,,,,,,,,,,,,,,,,,,,,,,,,,,,,,303.84165189997293,304.8543312000111,304.83760690002237,305.3389454999706,305.3389454999706,None,306.84160809998866,None,right,4.576280100038275,306.84160809998866,None,311.4438042000402,None,left,0.4698249999200925,311.4438042000402,None,,,,,,,,,,,,,,,,,,,,,,,PPT44,001,2022-07-08_10h33.44.667,ABstudy,2022.1.4,59.96656262742534,
AB,Lag5_T1P_T2A,5,P,A,8,13,7,4,17,Tarantula,Did you see the Tarantula?,0.12,0.016,JPG\,binoculars01b,speaker04,sandal,envelope03a,plate01b,comb02a,battery02b,tarantula,measuringcup01,key01,medal02b,lamp04a,tennisball01b,pizza,cigarette,sunglasses04,blankImage,tarantula,,,,,,,,,,,,0,23,23,201,,,,,,,,,,,,,,,,,,,,,,,,,,,,,,,,,,,311.9482534000417,312.96204630006105,312.9454240000341,313.5318487000186,313.5318487000186,None,315.49488100002054,None,left,0.5950159999774769,315.49488100002054,None,316.1151805999689,None,left,1.0632466999813914,316.1151805999689,None,,,,,,,,,,,,,,,,,,,,,,,PPT44,001,2022-07-08_10h33.44.667,ABstudy,2022.1.4,59.96656262742534,
AB,Lag1_T1P_T2A,1,P,A,8,9,7,5,14,Ceiling fan,Did you see the Ceiling fan?,0.12,0.016,JPG\,cucumber,sponge01,alligator,pear01,ashtray01,hammer01,clock04,ceilingfan01,fork03c,binoculars01b,mushroom01,broccoli01a,leaf02a,acorn,blankImage,blankImage,blankImage,ceilingfan01,,,,,,,,,,,,0,24,24,183,,,,,,,,,,,,,,,,,,,,,,,,,,,,,,,,,,,317.2118691999931,318.2171284999931,318.18389119999483,318.7494302999694,318.7494302999694,None,320.38621020002756,None,right,1.0796757999341935,320.38621020002756,None,321.48705350002274,None,right,0.4670844000065699,321.48705350002274,None,,,,,,,,,,,,,,,,,,,,,,,PPT44,001,2022-07-08_10h33.44.667,ABstudy,2022.1.4,59.96656262742534,
AB,Lag1_T1P_T2P,1,P,P,8,9,7,5,14,giraffe,Did you see the giraffe?,0.12,0.016,JPG\,pencil01,foosballtable,banana01,lipstick02a,toaster01,grape01,key01,giraffe,stapler03b,pineapple01a,strawberry,teabag,dandelion,paintbrush01,blankImage,blankImage,blankImage,giraffe,,,,,,,,,,,,0,25,25,0,,,,,,,,,,,,,,,,,,,,,,,,,,,,,,,,,,,321.9746601000661,322.98850800003856,322.97181989997625,323.59566960006487,323.52636670006905,None,325.24003300000913,None,right,0.8579422000329942,325.24003300000913,None,326.12493260006886,None,left,0.8368390999967232,326.12493260006886,None,,,,,,,,,,,,,,,,,,,,,,,PPT44,001,2022-07-08_10h33.44.667,ABstudy,2022.1.4,59.96656262742534,
AB,Lag5_T1P_T2P,5,P,P,5,10,4,4,14,Christmas lights,Did you see the Christmas lights?,0.12,0.016,JPG\,binoculars01b,cymbal,pizza,candy,christmaslights,sponge01,grape01,thermometer02b,speaker04,stapler03a,lipstick02a,strawberry,candle01,tambourine02,blankImage,blankImage,blankImage,christmaslights,,,,,,,,,,,,0,26,26,168,,,,,,,,,,,,,,,,,,,,,,,,,,,,,,,,,,,326.9965308000101,328.0107224000385,327.99404919997323,328.59492920001503,328.59492920001503,None,330.3319013,None,left,0.3656666000606492,330.3319013,None,330.7305101000238,None,left,0.5116893999511376,330.7305101000238,None,,,,,,,,,,,,,,,,,,,,,,,PPT44,001,2022-07-08_10h33.44.667,ABstudy,2022.1.4,59.96656262742534,
AB,Lag1_T1P_T2P,1,P,P,6,7,5,3,10,elephant,Did you see the elephant?,0.12,0.016,JPG\,clock01a,grape01,plate01b,key01,screwdriver04b,africanelephant,stapler03b,iron01b,toothbrush03b,comb02a,blankImage,blankImage,blankImage,blankImage,blankImage,blankImage,blankImage,africanelephant,,,,,,,,,,,,0,27,27,31,,,,,,,,,,,,,,,,,,,,,,,,,,,,,,,,,,,331.2668695000466,332.2810881000478,332.24773549998645,332.8297226000577,332.8297226000577,None,334.08793040004093,None,left,0.45811449992470443,334.08793040004093,None,334.5670624000486,None,left,0.37044079997576773,334.5670624000486,None,,,,,,,,,,,,,,,,,,,,,,,PPT44,001,2022-07-08_10h33.44.667,ABstudy,2022.1.4,59.96656262742534,
AB,Lag5_T1A_T2A,5,A,A,5,10,4,5,15,window,Did you see the window?,0.12,0.016,JPG\,leaf02a,apple07,cd,pineapple01a,envelope03a,paintbrush01,pig,canoftennisballs,rice,feather03a,lemon02,balloon01b,avocado01,calculator01,watermelon01,blankImage,blankImage,saxophone,,,,,,,,,,,,0,28,28,301,,,,,,,,,,,,,,,,,,,,,,,,,,,,,,,,,,,334.96956280001905,335.9850902999751,335.9510095999576,336.53767270001117,336.53767270001117,None,338.4189168000594,None,right,1.2705966999055818,338.4189168000594,None,339.72203030006494,None,left,0.5195566999027506,339.72203030006494,None,,,,,,,,,,,,,,,,,,,,,,,PPT44,001,2022-07-08_10h33.44.667,ABstudy,2022.1.4,59.96656262742534,
AB,Lag5_T1P_T2P,5,P,P,7,12,6,5,17,tie,Did you see the tie?,0.12,0.016,JPG\,iron01b,orange,birthdaycandle,potato02b,cauliflower01,pencil01,tie02,candle08b,celery,tableknife02,pen04b,stapler06,ring01,rice,lemon02,tomato01,blankImage,tie02,,,,,,,,,,,,0,29,29,161,,,,,,,,,,,,,,,,,,,,,,,,,,,,,,,,,,,340.2755099000642,341.29036380001344,341.25683359999675,341.8399362000637,341.8399362000637,None,343.8311181999743,None,left,0.3391501000151038,343.8311181999743,None,344.1941113000503,None,left,0.36779719998594373,344.1941113000503,None,,,,,,,,,,,,,,,,,,,,,,,PPT44,001,2022-07-08_10h33.44.667,ABstudy,2022.1.4,59.96656262742534,
AB,Lag5_T1P_T2A,5,P,A,8,13,7,3,16,leaf blower,Did you see the leaf blower?,0.12,0.016,JPG\,printer02,leaf02a,cauliflower01,sock01a,brownsugar,paintbrush01,pig,leafblower01,belt02a,shirt02,key01,match,cigarette,scissors01,envelope03a,blueberry01,blankImage,leafblower01,,,,,,,,,,,,0,30,30,216,,,,,,,,,,,,,,,,,,,,,,,,,,,,,,,,,,,344.5989087000489,345.61101210000925,345.59433720004745,346.18096550006885,346.18096550006885,None,348.12445909995586,None,right,1.6051741000264883,348.12445909995586,None,349.7486746000359,None,right,0.5502511999802664,349.7486746000359,None,,,,,,,,,,,,,,,,,,,,,,,PPT44,001,2022-07-08_10h33.44.667,ABstudy,2022.1.4,59.96656262742534,
AB,Lag1_T1P_T2P,1,P,P,6,7,5,4,11,Bow,Did you see the Bow?,0.12,0.016,JPG\,broom01,plate01b,scissors01,garlic01a,paintbrush01,bow,stapler03a,shirt02,speaker04,celery,sandal,blankImage,blankImage,blankImage,blankImage,blankImage,blankImage,bow,,,,,,,,,,,,0,31,31,53,,,,,,,,,,,,,,,,,,,,,,,,,,,,,,,,,,,350.32497489999514,351.33354490005877,351.3167436000658,351.88427959999535,351.88427959999535,None,353.3121561000589,None,right,0.7377899999264628,353.3121561000589,None,354.0695796000073,None,left,0.5083207000279799,354.0695796000073,None,,,,,,,,,,,,,,,,,,,,,,,PPT44,001,2022-07-08_10h33.44.667,ABstudy,2022.1.4,59.96656262742534,
AB,Lag5_T1P_T2P,5,P,P,7,12,6,5,17,flamingo,Did you see the flamingo?,0.12,0.016,JPG\,pig,belt02a,rice,screwdriver04b,candle01,apple07,flamingo,pear01,feather03a,match,thermometer02b,stapler06,lemon02,violin,medal02b,pineapple01a,blankImage,flamingo,,,,,,,,,,,,0,32,32,153,,,,,,,,,,,,,,,,,,,,,,,,,,,,,,,,,,,354.60855929995887,355.6211470999988,355.6044388000155,356.1048807000043,356.1048807000043,None,358.12060410005506,None,left,0.3768520000157878,358.12060410005506,None,358.5240897999611,None,left,0.49383880000095814,358.5240897999611,None,,,,,,,,,,,,,,,,,,,,,,,PPT44,001,2022-07-08_10h33.44.667,ABstudy,2022.1.4,59.96656262742534,
AB,Lag5_T1P_T2P,5,P,P,5,10,4,5,15,funnel,Did you see the funnel?,0.12,0.016,JPG\,pineapple01a,tennisball01b,computerkeyboard02,feather03a,funnel,acorn,violin,blueberry01,medal02b,stapler01,greenolive,screwdriver04b,potato02b,fork03c,cymbal,blankImage,blankImage,funnel,,,,,,,,,,,,0,33,33,109,,,,,,,,,,,,,,,,,,,,,,,,,,,,,,,,,,,359.0476908000419,360.0588791000191,360.04227029997855,360.6289924000157,360.6289924000157,None,362.3611441999674,None,left,0.45672020001802593,362.3611441999674,None,362.84473360003904,None,left,0.4208913999609649,362.84473360003904,None,,,,,,,,,,,,,,,,,,,,,,,PPT44,001,2022-07-08_10h33.44.667,ABstudy,2022.1.4,59.96656262742534,
AB,Lag5_T1P_T2P,5,P,P,6,11,5,3,14,Poker chips,Did you see the Poker chips?,0.12,0.016,JPG\,iron01b,brick,broccoli01a,balloon01b,tomato01,pokerchips,sandal,teabag,scissors01,pineapple01a,stapler04b,measuringcup01,sock01a,book01b,blankImage,blankImage,blankImage,pokerchips,,,,,,,,,,,,0,34,34,154,,,,,,,,,,,,,,,,,,,,,,,,,,,,,,,,,,,363.3064110999694,364.3131763000274,364.29631110001355,364.9228834999958,364.9228834999958,None,366.6817757000681,None,left,0.32933680003043264,366.6817757000681,None,367.0323105000425,None,left,0.3058316999813542,367.0323105000425,None,,,,,,,,,,,,,,,,,,,,,,,PPT44,001,2022-07-08_10h33.44.667,ABstudy,2022.1.4,59.96656262742534,
AB,Lag1_T1P_T2P,1,P,P,5,6,4,5,11,Guitar case,Did you see the Guitar case?,0.12,0.016,JPG\,broccoli01a,scissors01,toothbrush03b,foosballtable,guitarcase,stapler05,hammer01,toiletpaper01a,cd,garlic01a,carrot01,blankImage,blankImage,blankImage,blankImage,blankImage,blankImage,guitarcase,,,,,,,,,,,,0,35,35,14,,,,,,,,,,,,,,,,,,,,,,,,,,,,,,,,,,,367.37205330003053,368.3839150000131,368.36709109996445,368.96120949997567,368.96120949997567,None,370.25486210000236,None,left,1.2909562999848276,370.25486210000236,None,371.5703836999601,None,left,0.4232896000612527,371.5703836999601,None,,,,,,,,,,,,,,,,,,,,,,,PPT44,001,2022-07-08_10h33.44.667,ABstudy,2022.1.4,59.96656262742534,
AB,Lag1_T1P_T2P,1,P,P,7,8,6,5,13,tiger,Did you see the tiger?,0.12,0.016,JPG\,globe,broccoli01a,binoculars01b,iron01b,avocado01,dandelion,tiger02,stapler03b,fan,pizza,celery,blueberry01,sewingmachine01a,blankImage,blankImage,blankImage,blankImage,tiger02,,,,,,,,,,,,0,36,36,50,,,,,,,,,,,,,,,,,,,,,,,,,,,,,,,,,,,372.02450820000377,373.03843109996524,373.0217770000454,373.6750131000299,373.5907658999786,None,375.1897388000507,None,left,0.48449339997023344,375.1897388000507,None,375.69192230002955,None,left,0.40553440002258867,375.69192230002955,None,,,,,,,,,,,,,,,,,,,,,,,PPT44,001,2022-07-08_10h33.44.667,ABstudy,2022.1.4,59.96656262742534,
AB,Lag1_T1P_T2P,1,P,P,7,8,6,4,12,skunk,Did you see the skunk?,0.12,0.016,JPG\,fan,tomato01,candy,screwdriver04b,alligator,cd,skunk,stapler03b,button01,plate01b,brownsugar,lighter01,blankImage,blankImage,blankImage,blankImage,blankImage,skunk,,,,,,,,,,,,0,37,37,48,,,,,,,,,,,,,,,,,,,,,,,,,,,,,,,,,,,376.12979150004685,377.1425985000096,377.12592380004935,377.73848970001563,377.73848970001563,None,379.17087879998144,None,left,0.32723579998128116,379.17087879998144,None,379.5280778000597,None,left,0.2175404999870807,379.5280778000597,None,,,,,,,,,,,,,,,,,,,,,,,PPT44,001,2022-07-08_10h33.44.667,ABstudy,2022.1.4,59.96656262742534,
AB,Lag5_T1P_T2P,5,P,P,5,10,4,5,15,sword fish,Did you see the sword fish?,0.12,0.016,JPG\,scissors01,balloon01b,eraser,feather03a,swordfish,candle01,measuringcup01,calculator01,thermometer02b,stapler04b,pear01,carrot01,globe,baseball01a,leaf02a,blankImage,blankImage,swordfish,,,,,,,,,,,,0,38,38,160,,,,,,,,,,,,,,,,,,,,,,,,,,,,,,,,,,,379.8330446999753,380.8461289999541,380.82940629997756,381.40377770003397,381.40377770003397,None,383.1683199000545,None,left,0.3461970000062138,383.1683199000545,None,383.5320642000297,None,left,0.27024840004742146,383.5320642000297,None,,,,,,,,,,,,,,,,,,,,,,,PPT44,001,2022-07-08_10h33.44.667,ABstudy,2022.1.4,59.96656262742534,
AB,Lag1_T1P_T2P,1,P,P,6,7,5,3,10,handcuffs,Did you see the handcuffs?,0.12,0.016,JPG\,sewingmachine01a,scarf,carrot01,book01b,eraser,handcuffs,stapler05,lipstick02a,printer02,garlic01a,blankImage,blankImage,blankImage,blankImage,blankImage,blankImage,blankImage,handcuffs,,,,,,,,,,,,0,39,39,2,,,,,,,,,,,,,,,,,,,,,,,,,,,,,,,,,,,383.8384421999799,384.8499344000593,384.8336167000234,385.4135939000407,385.4135939000407,None,386.7371465000324,None,left,0.38488539995159954,386.7371465000324,None,387.1525820000097,None,left,0.2647610999410972,387.1525820000097,None,,,,,,,,,,,,,,,,,,,,,,,PPT44,001,2022-07-08_10h33.44.667,ABstudy,2022.1.4,59.96656262742534,
AB,Lag1_T1P_T2A,1,P,A,5,6,4,5,11,Toaster oven,Did you see the Toaster oven?,0.12,0.016,JPG\,fork03c,toothbrush03b,cellphone,fan,toasteroven,clock01a,ring01,eraser,sunglasses04,thermometer02b,violin,blankImage,blankImage,blankImage,blankImage,blankImage,blankImage,toasteroven,,,,,,,,,,,,0,40,40,200,,,,,,,,,,,,,,,,,,,,,,,,,,,,,,,,,,,387.4434091000585,388.4541508000111,388.4376912000589,389.0246939000208,389.0246939000208,None,390.32323049998377,None,right,1.1272828000364825,390.32323049998377,None,391.47348479996435,None,right,0.4961892000865191,391.47348479996435,None,,,,,,,,,,,,,,,,,,,,,,,PPT44,001,2022-07-08_10h33.44.667,ABstudy,2022.1.4,59.96656262742534,
AB,Lag1_T1P_T2P,1,P,P,6,7,5,4,11,American football,Did you see the American football?,0.12,0.016,JPG\,toaster01,garlic01a,faucet,fan,comb02a,football,stapler06,watch02a,onion,blueberry01,toiletpaper01a,blankImage,blankImage,blankImage,blankImage,blankImage,blankImage,football,,,,,,,,,,,,0,41,41,12,,,,,,,,,,,,,,,,,,,,,,,,,,,,,,,,,,,392.00127440004144,393.0082964999601,392.9915950000286,393.58313509996515,393.58313509996515,None,395.0084270000225,None,left,0.31427510001230985,395.0084270000225,None,395.3440113000106,None,left,0.27348049997817725,395.3440113000106,None,,,,,,,,,,,,,,,,,,,,,,,PPT44,001,2022-07-08_10h33.44.667,ABstudy,2022.1.4,59.96656262742534,
AB,Lag1_T1P_T2P,1,P,P,8,9,7,3,12,Sheep,Did you see the Sheep?,0.12,0.016,JPG\,celery,orange,scissors01,balloon01b,avocado01,printer02,mushroom01,sheep,stapler03b,dice05a,ashtray01,fan,blankImage,blankImage,blankImage,blankImage,blankImage,sheep,,,,,,,,,,,,0,42,42,71,,,,,,,,,,,,,,,,,,,,,,,,,,,,,,,,,,,395.6498445000034,396.6619878000347,396.64528499997687,397.2377684999956,397.2377684999956,None,398.74420570000075,None,left,0.3300938999745995,398.74420570000075,None,399.09758419997524,None,left,0.22373480000533164,399.09758419997524,None,,,,,,,,,,,,,,,,,,,,,,,PPT44,001,2022-07-08_10h33.44.667,ABstudy,2022.1.4,59.96656262742534,
AB,Lag1_T1P_T2P,1,P,P,5,6,4,5,11,golf ball,Did you see the golf ball?,0.12,0.016,JPG\,foosballtable,cigarette,pen04b,birthdaycandle,golfball,stapler05,binoculars01b,chain01,potato02b,cauliflower01,paintbrush01,blankImage,blankImage,blankImage,blankImage,blankImage,blankImage,golfball,,,,,,,,,,,,0,43,43,13,,,,,,,,,,,,,,,,,,,,,,,,,,,,,,,,,,,399.3519254999701,400.3655468999641,400.34880669997074,400.84932390006725,400.84932390006725,None,402.29344160004985,None,left,0.36429259995929897,402.29344160004985,None,402.68499770003837,None,left,0.2363974000327289,402.68499770003837,None,,,,,,,,,,,,,,,,,,,,,,,PPT44,001,2022-07-08_10h33.44.667,ABstudy,2022.1.4,59.96656262742534,
AB,Lag5_T1A_T2P,5,A,P,7,12,6,4,16,hand,Did you see the hand?,0.12,0.016,JPG\,celery,tennisball01b,calculator01,pear01,screw02,orange,button01,cellphone,onion,apple07,iron01b,stapler05,banana01,paintbrush01,dandelion,toothbrush03b,blankImage,bull,,,,,,,,,,,,0,44,44,281,,,,,,,,,,,,,,,,,,,,,,,,,,,,,,,,,,,402.95407860004343,403.96920389996376,403.9358690000372,404.5097692999989,404.5097692999989,None,406.472436800017,None,right,1.496988800005056,406.472436800017,None,407.99005080002826,None,left,0.40364429994951934,407.99005080002826,None,,,,,,,,,,,,,,,,,,,,,,,PPT44,001,2022-07-08_10h33.44.667,ABstudy,2022.1.4,59.96656262742534,
AB,Lag5_T1A_T2P,5,A,P,7,12,6,5,17,Rollerblade,Did you see the Rollerblade?,0.12,0.016,JPG\,binoculars01b,cymbal,pizza,candy,paintbrush01,sponge01,grape01,thermometer02b,speaker04,lemon02,lipstick02a,stapler03b,candle01,8ball,plate01b,pen04b,blankImage,lion,,,,,,,,,,,,0,45,45,266,,,,,,,,,,,,,,,,,,,,,,,,,,,,,,,,,,,408.4291048999876,409.441009900067,409.42433539999183,410.00884879997466,410.00884879997466,None,411.94334350002464,None,left,0.6911110000219196,411.94334350002464,None,412.6617151000537,None,right,0.5957508999854326,412.6617151000537,None,,,,,,,,,,,,,,,,,,,,,,,PPT44,001,2022-07-08_10h33.44.667,ABstudy,2022.1.4,59.96656262742534,
AB,Lag5_T1P_T2P,5,P,P,5,10,4,4,14,License Plate,Did you see the License Plate?,0.12,0.016,JPG\,toaster01,chain01,sponge01,baseball01a,licenseplate,belt02a,book01b,iron01b,grape01,stapler06,celery,onion,mushroom01,toothbrush03b,blankImage,blankImage,blankImage,licenseplate,,,,,,,,,,,,0,46,46,120,,,,,,,,,,,,,,,,,,,,,,,,,,,,,,,,,,,413.28573720005807,414.29619390005246,414.2795582000399,414.8862829999998,414.8862829999998,None,416.5815968000097,None,left,0.3644316999707371,416.5815968000097,None,416.9656636000145,None,left,0.2925744999665767,416.9656636000145,None,,,,,,,,,,,,,,,,,,,,,,,PPT44,001,2022-07-08_10h33.44.667,ABstudy,2022.1.4,59.96656262742534,
AB,Lag5_T1P_T2P,5,P,P,7,12,6,3,15,Rollerblade,Did you see the Rollerblade?,0.12,0.016,JPG\,hammer01,sponge01,toaster01,cherry01,feather03a,mushroom01,rollerblade,pencil01,tennisball01b,brick,clock04,stapler06,teabag,garlic01a,envelope03a,blankImage,blankImage,rollerblade,,,,,,,,,,,,0,47,47,116,,,,,,,,,,,,,,,,,,,,,,,,,,,,,,,,,,,417.2882227000082,418.30024660006166,418.2835223999573,418.86251140001696,418.86251140001696,None,420.73455930000637,None,left,0.5316274999640882,420.73455930000637,None,421.28656020003837,None,left,0.4437834999989718,421.28656020003837,None,,,,,,,,,,,,,,,,,,,,,,,PPT44,001,2022-07-08_10h33.44.667,ABstudy,2022.1.4,59.96656262742534,
AB,Lag1_T1P_T2P,1,P,P,7,8,6,3,11,Sand castle,Did you see the Sand castle?,0.12,0.016,JPG\,thermometer02b,candle08b,comb02a,toothbrush03b,brick,computerkeyboard02,sandcastle,stapler06,candy,birthdaycandle,clock04,blankImage,blankImage,blankImage,blankImage,blankImage,blankImage,sandcastle,,,,,,,,,,,,0,48,48,70,,,,,,,,,,,,,,,,,,,,,,,,,,,,,,,,,,,421.7602963000536,422.7711018000264,422.75504530000035,423.3504026000155,423.3504026000155,None,424.7313457999844,None,left,0.6300823000492528,424.7313457999844,None,425.3905786999967,None,left,0.9468060000799596,425.3905786999967,None,,,,,,,,,,,,,,,,,,,,,,,PPT44,001,2022-07-08_10h33.44.667,ABstudy,2022.1.4,59.96656262742534,
AB,Lag5_T1P_T2A,5,P,A,7,12,6,5,17,corn,Did you see the corn?,0.12,0.016,JPG\,avocado01,pingpongpaddle01c,match,cauliflower01,paintbrush01,clock01a,corn02,cd,balloon01b,cellphone,watch02a,pear01,toaster01,sponge01,orange,blueberry01,blankImage,corn02,,,,,,,,,,,,0,49,49,210,,,,,,,,,,,,,,,,,,,,,,,,,,,,,,,,,,,426.36019190005027,427.37572410004213,427.3423195000505,427.9303344000364,427.9303344000364,None,429.8512861999916,None,left,0.7505079000256956,429.8512861999916,None,430.6290105000371,None,right,0.636285400018096,430.6290105000371,None,,,,,,,,,,,,,,,,,,,,,,,PPT44,001,2022-07-08_10h33.44.667,ABstudy,2022.1.4,59.96656262742534,
AB,Lag1_T1P_T2P,1,P,P,7,8,6,4,12,Christmas Tree,Did you see the Christmas Tree?,0.12,0.016,JPG\,sandal,fan,printer02,cellphone,mushroom01,candle08b,firtree,stapler03a,lamp04a,hammer01,teabag,aceofdiamond,blankImage,blankImage,blankImage,blankImage,blankImage,firtree,,,,,,,,,,,,0,50,50,6,,,,,,,,,,,,,,,,,,,,,,,,,,,,,,,,,,,431.30890070006717,432.31455879996065,432.2978409000207,432.91503390006255,432.91503390006255,None,434.40050230000634,None,left,1.6977263999870047,434.40050230000634,None,436.1179725000402,None,right,0.6993053000187501,436.1179725000402,None,,,,,,,,,,,,,,,,,,,,,,,PPT44,001,2022-07-08_10h33.44.667,ABstudy,2022.1.4,59.96656262742534,
AB,Lag5_T1P_T2P,5,P,P,7,12,6,4,16,Wolf,Did you see the Wolf?,0.12,0.016,JPG\,brick,eraser,cucumber,ashtray01,thermometer02b,binoculars01b,greywolf,screwdriver04b,grape01,brownsugar,battery02b,stapler03b,dice05a,avocado01,birthdaycandle,watch02a,blankImage,greywolf,,,,,,,,,,,,0,51,51,89,,,,,,,,,,,,,,,,,,,,,,,,,,,,,,,,,,,436.8400625999784,437.8529863000149,437.836633500061,438.4551302000182,438.4551302000182,None,440.3546739000594,None,left,3.7191036998992786,440.3546739000594,None,444.0925314000342,None,left,0.5493434999370947,444.0925314000342,None,,,,,,,,,,,,,,,,,,,,,,,PPT44,001,2022-07-08_10h33.44.667,ABstudy,2022.1.4,59.96656262742534,
AB,Lag1_T1P_T2P,1,P,P,6,7,5,3,10,cupcake,Did you see the cupcake?,0.12,0.016,JPG\,printer02,leaf02a,cauliflower01,sock01a,brownsugar,cupcake,stapler01,orange,belt02a,shirt02,blankImage,blankImage,blankImage,blankImage,blankImage,blankImage,blankImage,cupcake,,,,,,,,,,,,0,52,52,38,,,,,,,,,,,,,,,,,,,,,,,,,,,,,,,,,,,444.7025806000456,445.7123081999598,445.67788069997914,446.26905790006276,446.26905790006276,None,447.49894870002754,None,left,0.9025479999836534,447.49894870002754,None,448.4301674000453,None,left,0.30762859992682934,448.4301674000453,None,,,,,,,,,,,,,,,,,,,,,,,PPT44,001,2022-07-08_10h33.44.667,ABstudy,2022.1.4,59.96656262742534,
AB,Lag5_T1A_T2P,5,A,P,5,10,4,5,15,shower,Did you see the shower?,0.12,0.016,JPG\,sewingmachine01a,thermometer02b,sponge01,eraser,broccoli01a,fork03c,pizza,violin,belt02a,stapler04b,pineapple01a,tennisball01b,dandelion,cauliflower01,lemon02,blankImage,blankImage,redfox,,,,,,,,,,,,0,53,53,271,,,,,,,,,,,,,,,,,,,,,,,,,,,,,,,,,,,448.7676694999682,449.7815716000041,449.76499539997894,450.34466159995645,450.34466159995645,None,452.24727030005306,None,right,1.282981799915433,452.24727030005306,None,453.5531649000477,None,right,0.35304870002437383,453.5531649000477,None,,,,,,,,,,,,,,,,,,,,,,,PPT44,001,2022-07-08_10h33.44.667,ABstudy,2022.1.4,59.96656262742534,
AB,Lag1_T1P_T2A,1,P,A,6,7,5,4,11,bird,Did you see the bird?,0.12,0.016,JPG\,foosballtable,candy,envelope03a,microscope,pencil01,cedarwaxwing,scissors01,watermelon01,grape01,dandelion,pineapple01a,blankImage,blankImage,blankImage,blankImage,blankImage,blankImage,cedarwaxwing,,,,,,,,,,,,0,54,54,182,,,,,,,,,,,,,,,,,,,,,,,,,,,,,,,,,,,453.9435341999633,454.953191800043,454.9365361999953,455.4370681999717,455.4370681999717,None,456.9029029000085,None,left,0.810702700051479,456.9029029000085,None,457.73904620006215,None,right,0.6547867000335827,457.73904620006215,None,,,,,,,,,,,,,,,,,,,,,,,PPT44,001,2022-07-08_10h33.44.667,ABstudy,2022.1.4,59.96656262742534,
AB,Lag5_T1P_T2P,5,P,P,6,11,5,5,16,motorcycle,Did you see the motorcycle?,0.12,0.016,JPG\,cucumber,ring01,lipstick02a,microscope,violin,motorcycle,celery,lighter01,cherry01,sewingmachine01a,stapler04b,key01,binoculars01b,medal02b,watermelon01,dice05a,blankImage,motorcycle,,,,,,,,,,,,0,55,55,93,,,,,,,,,,,,,,,,,,,,,,,,,,,,,,,,,,,458.42747740005143,459.44123770005535,459.4245065000141,460.00403499999084,460.00403499999084,None,461.9332245000405,None,left,0.37197149998974055,461.9332245000405,None,462.32740199996624,None,left,0.7295644000405446,462.32740199996624,None,,,,,,,,,,,,,,,,,,,,,,,PPT44,001,2022-07-08_10h33.44.667,ABstudy,2022.1.4,59.96656262742534,
AB,Lag1_T1P_T2P,1,P,P,6,7,5,3,10,jelly beans,Did you see the jelly beans?,0.12,0.016,JPG\,lipstick02a,cucumber,candle08b,printer02,grape01,jellybean,stapler01,lighter01,belt02a,balloon01b,blankImage,blankImage,blankImage,blankImage,blankImage,blankImage,blankImage,jellybean,,,,,,,,,,,,0,56,56,15,,,,,,,,,,,,,,,,,,,,,,,,,,,,,,,,,,,463.09298119996674,464.0958185000345,464.06242720002774,464.62943420000374,464.62943420000374,None,465.85424460005015,None,left,0.7636901999358088,465.85424460005015,None,466.64818000001833,None,left,0.6892388000851497,466.64818000001833,None,,,,,,,,,,,,,,,,,,,,,,,PPT44,001,2022-07-08_10h33.44.667,ABstudy,2022.1.4,59.96656262742534,
AB,Lag1_T1P_T2P,1,P,P,8,9,7,5,14,Waterfall,Did you see the Waterfall?,0.12,0.016,JPG\,pizza,watch02a,greenolive,cucumber,match,violin,scissors01,waterfall,stapler03a,cherry01,ring01,cigarette,microscope,cellphone,blankImage,blankImage,blankImage,waterfall,,,,,,,,,,,,0,57,57,52,,,,,,,,,,,,,,,,,,,,,,,,,,,,,,,,,,,467.3688655999722,468.38327260001097,468.3498903999571,468.94565470004454,468.94565470004454,None,470.62771539995447,None,left,0.6461906998883933,470.62771539995447,None,471.30278669996187,None,left,0.3391624999931082,471.30278669996187,None,,,,,,,,,,,,,,,,,,,,,,,PPT44,001,2022-07-08_10h33.44.667,ABstudy,2022.1.4,59.96656262742534,
AB,Lag1_T1P_T2P,1,P,P,8,9,7,5,14,lawn mower,Did you see the lawn mower?,0.12,0.016,JPG\,battery02b,sunglasses04,pear01,tennisball01b,clock01a,speaker04,binoculars01b,lawnmower,stapler05,pineapple01a,avocado01,grape01,blueberry01,violin,blankImage,blankImage,blankImage,lawnmower,,,,,,,,,,,,0,58,58,46,,,,,,,,,,,,,,,,,,,,,,,,,,,,,,,,,,,471.6720707999775,472.68762119999155,472.6541253000032,473.2422194000101,473.2422194000101,None,474.9824721000623,None,left,0.45054370001889765,474.9824721000623,None,475.45711139997,None,left,0.664619000046514,475.45711139997,None,,,,,,,,,,,,,,,,,,,,,,,PPT44,001,2022-07-08_10h33.44.667,ABstudy,2022.1.4,59.96656262742534,
AB,Lag5_T1A_T2P,5,A,P,6,11,5,4,15,fish,Did you see the fish?,0.12,0.016,JPG\,pingpongpaddle01c,banana01,scissors01,pig,shirt02,leaf02a,pear01,sponge01,fork03c,tableknife02,stapler03a,match,toothbrush03b,birthdaycandle,candle01,blankImage,blankImage,lighthouse,,,,,,,,,,,,0,59,59,265,,,,,,,,,,,,,,,,,,,,,,,,,,,,,,,,,,,476.14539580000564,477.15881669998635,477.14211200003047,477.73703610000666,477.73703610000666,None,479.5038079000078,None,right,1.1534116000402719,479.5038079000078,None,480.67879430006724,None,left,0.6347745999228209,480.67879430006724,None,,,,,,,,,,,,,,,,,,,,,,,PPT44,001,2022-07-08_10h33.44.667,ABstudy,2022.1.4,59.96656262742534,
AB,Lag1_T1P_T2P,1,P,P,6,7,5,3,10,windmill,Did you see the windmill?,0.12,0.016,JPG\,pizza,printer02,medal02b,spoon01,grape01,windmill,stapler04b,watermelon01,celery,battery02b,blankImage,blankImage,blankImage,blankImage,blankImage,blankImage,blankImage,windmill,,,,,,,,,,,,0,60,60,75,,,,,,,,,,,,,,,,,,,,,,,,,,,,,,,,,,,481.34840949997306,482.36385009996593,482.3304365000222,482.92058000003453,482.92058000003453,None,484.1278873999836,None,left,0.473583500017412,484.1278873999836,None,484.6327761999564,None,left,0.193227699957788,484.6327761999564,None,,,,,,,,,,,,,,,,,,,,,,,PPT44,001,2022-07-08_10h33.44.667,ABstudy,2022.1.4,59.96656262742534,
AB,Lag1_T1P_T2P,1,P,P,7,8,6,5,13,disco ball,Did you see the disco ball?,0.12,0.016,JPG\,candle01,paintbrush01,scissors01,fan,microscope,toothbrush03b,discoball,stapler03b,teabag,pencil01,lemon02,ashtray01,shirt02,blankImage,blankImage,blankImage,blankImage,discoball,,,,,,,,,,,,0,61,61,60,,,,,,,,,,,,,,,,,,,,,,,,,,,,,,,,,,,484.8550380000379,485.86740830005147,485.85083610005677,486.416984600015,486.416984600015,None,488.006231599953,None,left,0.7877540000481531,488.006231599953,None,488.8204056000104,None,right,0.41299580002669245,488.8204056000104,None,,,,,,,,,,,,,,,,,,,,,,,PPT44,001,2022-07-08_10h33.44.667,ABstudy,2022.1.4,59.96656262742534,
AB,Lag5_T1P_T2A,5,P,A,8,13,7,5,18,telescope,Did you see the telescope?,0.12,0.016,JPG\,globe,broccoli01a,binoculars01b,iron01b,avocado01,dandelion,pineapple01a,handheldtelescope,fan,pizza,celery,blueberry01,sewingmachine01a,dice05a,watermelon01,candy,blankImage,handheldtelescope,,,,,,,,,,,,0,62,62,228,,,,,,,,,,,,,,,,,,,,,,,,,,,,,,,,,,,489.2601286000572,490.27180560003035,490.2551649999805,490.8359838000033,490.8359838000033,None,492.8254407000495,None,left,0.5523501000134274,492.8254407000495,None,493.4083283999935,None,left,0.8419079000595957,493.4083283999935,None,,,,,,,,,,,,,,,,,,,,,,,PPT44,001,2022-07-08_10h33.44.667,ABstudy,2022.1.4,59.96656262742534,
AB,Lag1_T1A_T2P,1,A,P,5,6,4,4,10,Bull,Did you see the Bull?,0.12,0.016,JPG\,celery,pencil01,fan,foosballtable,iron01b,stapler01,potato02b,fork03c,button01,pineapple01a,blankImage,blankImage,blankImage,blankImage,blankImage,blankImage,blankImage,spiderweb,,,,,,,,,,,,0,63,63,244,,,,,,,,,,,,,,,,,,,,,,,,,,,,,,,,,,,494.2803848000476,495.2935162000358,495.27681139996275,495.92489190003835,495.8476931999903,None,497.0597691000439,None,right,1.445880000013858,497.0597691000439,None,498.52974510006607,None,right,0.5688842999516055,498.52974510006607,None,,,,,,,,,,,,,,,,,,,,,,,PPT44,001,2022-07-08_10h33.44.667,ABstudy,2022.1.4,59.96656262742534,
AB,Lag5_T1P_T2P,5,P,P,5,10,4,3,13,Sushi,Did you see the Sushi?,0.12,0.016,JPG\,carrot01,greenolive,fork03c,chain01,makiroll,watermelon01,tableknife02,printer02,comb02a,stapler03b,orange,rice,fan,blankImage,blankImage,blankImage,blankImage,makiroll,,,,,,,,,,,,0,64,64,135,,,,,,,,,,,,,,,,,,,,,,,,,,,,,,,,,,,499.13617549999617,500.1483227000572,500.1316263000481,500.71494049998,500.71494049998,None,502.2774417999899,None,left,0.4202301000477746,502.2774417999899,None,502.71759719995316,None,left,0.6517816000850871,502.71759719995316,None,,,,,,,,,,,,,,,,,,,,,,,PPT44,001,2022-07-08_10h33.44.667,ABstudy,2022.1.4,59.96656262742534,
AB,Lag1_T1A_T2P,1,A,P,5,6,4,3,9,Spider,Did you see the Spider?,0.12,0.016,JPG\,pen04b,speaker04,lighter01,cherry01,8ball,stapler04b,sock01a,toothbrush03b,broom01,blankImage,blankImage,blankImage,blankImage,blankImage,blankImage,blankImage,blankImage,bridge,,,,,,,,,,,,0,65,65,250,,,,,,,,,,,,,,,,,,,,,,,,,,,,,,,,,,,503.40187820000574,504.402434800053,504.3857061000308,504.98288639995735,504.98288639995735,None,506.05484910006635,None,right,1.2985885998932645,506.05484910006635,None,507.3721968999598,None,left,0.9895373000763357,507.3721968999598,None,,,,,,,,,,,,,,,,,,,,,,,PPT44,001,2022-07-08_10h33.44.667,ABstudy,2022.1.4,59.96656262742534,
AB,Lag5_T1P_T2P,5,P,P,5,10,4,3,13,bathtub,Did you see the bathtub?,0.12,0.016,JPG\,belt02a,sunglasses04,computerkeyboard02,cherry01,bathtub,eraser,watch02a,dice05a,blueberry01,stapler04b,match,leaf02a,iron01b,blankImage,blankImage,blankImage,blankImage,bathtub,,,,,,,,,,,,0,66,66,103,,,,,,,,,,,,,,,,,,,,,,,,,,,,,,,,,,,508.39373170002364,509.4076040000655,509.39089809998404,509.9981601999607,509.9981601999607,None,511.5426390999928,None,left,0.3469987000571564,511.5426390999928,None,511.9095871000318,None,left,0.7237379000289366,511.9095871000318,None,,,,,,,,,,,,,,,,,,,,,,,PPT44,001,2022-07-08_10h33.44.667,ABstudy,2022.1.4,59.96656262742534,
AB,Lag5_T1P_T2P,5,P,P,5,10,4,5,15,Safe,Did you see the Safe?,0.12,0.016,JPG\,candle01,shirt02,brick,orange,safe,toothbrush03b,pizza,thermometer02b,book01b,stapler01,sewingmachine01a,toaster01,candy,cymbal,potato02b,blankImage,blankImage,safe,,,,,,,,,,,,0,67,67,159,,,,,,,,,,,,,,,,,,,,,,,,,,,,,,,,,,,512.6659401999786,513.678435400012,513.6618759999983,514.235117000062,514.235117000062,None,516.0998256000457,None,left,0.365953000029549,516.0998256000457,None,516.4978559999727,None,left,0.6793160999659449,516.4978559999727,None,,,,,,,,,,,,,,,,,,,,,,,PPT44,001,2022-07-08_10h33.44.667,ABstudy,2022.1.4,59.96656262742534,
AB,Lag1_T1P_T2P,1,P,P,7,8,6,3,11,tree,Did you see the tree?,0.12,0.016,JPG\,pear01,clock01a,cymbal,match,ashtray01,globe,tree,stapler03b,lemon02,pen04b,dice05a,blankImage,blankImage,blankImage,blankImage,blankImage,blankImage,tree,,,,,,,,,,,,0,68,68,51,,,,,,,,,,,,,,,,,,,,,,,,,,,,,,,,,,,517.2017553000478,518.2163249000441,518.1829253999749,518.7697700000135,518.7697700000135,None,520.0835382000078,None,left,1.214035699958913,520.0835382000078,None,521.3195131999673,None,right,0.7143823000369594,521.3195131999673,None,,,,,,,,,,,,,,,,,,,,,,,PPT44,001,2022-07-08_10h33.44.667,ABstudy,2022.1.4,59.96656262742534,
AB,Lag5_T1P_T2A,5,P,A,5,10,4,3,13,fan,Did you see the fan?,0.12,0.016,JPG\,scissors01,grape01,mushroom01,toiletpaper01a,fanheater,pizza,cigarette,ashtray01,carrot01,pineapple01a,foosballtable,lipstick02a,teabag,blankImage,blankImage,blankImage,blankImage,fanheater,,,,,,,,,,,,0,69,69,220,,,,,,,,,,,,,,,,,,,,,,,,,,,,,,,,,,,522.0597632999998,523.0713223000057,523.0546455000294,523.6522430999903,523.6522430999903,None,525.2388085999992,None,left,0.6905928000342101,525.2388085999992,None,525.9574249000289,None,right,1.0677199999336153,525.9574249000289,None,,,,,,,,,,,,,,,,,,,,,,,PPT44,001,2022-07-08_10h33.44.667,ABstudy,2022.1.4,59.96656262742534,
AB,Lag1_T1A_T2P,1,A,P,7,8,6,5,13,Horseshoe,Did you see the Horseshoe?,0.12,0.016,JPG\,leaf02a,apple07,cd,pineapple01a,envelope03a,paintbrush01,pig,stapler06,rice,feather03a,lemon02,balloon01b,avocado01,blankImage,blankImage,blankImage,blankImage,rooster,,,,,,,,,,,,0,70,70,241,,,,,,,,,,,,,,,,,,,,,,,,,,,,,,,,,,,527.0504325999646,528.0596100999974,528.0429114999715,528.6262575000292,528.6262575000292,None,530.1752255000174,None,right,0.9947472999338061,530.1752255000174,None,531.1953453000169,None,left,0.7015624999767169,531.1953453000169,None,,,,,,,,,,,,,,,,,,,,,,,PPT44,001,2022-07-08_10h33.44.667,ABstudy,2022.1.4,59.96656262742534,
AB,Lag5_T1A_T2P,5,A,P,8,13,7,5,18,lollipop,Did you see the lollipop?,0.12,0.016,JPG\,watermelon01,banana01,ring01,pencil01,tomato01,speaker04,cucumber,thermometer02b,key01,foosballtable,violin,spoon01,stapler04b,dice05a,pen04b,mushroom01,blankImage,jeans01,,,,,,,,,,,,0,71,71,262,,,,,,,,,,,,,,,,,,,,,,,,,,,,,,,,,,,531.9624284000602,532.9647719999775,532.9480650000041,533.5656054000137,533.5656054000137,None,535.4011332000373,None,right,0.9283586000092328,535.4011332000373,None,536.3510597000131,None,left,0.5624811999732628,536.3510597000131,None,,,,,,,,,,,,,,,,,,,,,,,PPT44,001,2022-07-08_10h33.44.667,ABstudy,2022.1.4,59.96656262742534,
AB,Lag5_T1P_T2P,5,P,P,8,13,7,3,16,Chefs hat,Did you see the Chefs hat?,0.12,0.016,JPG\,rice,watermelon01,tableknife02,scarf,computerkeyboard02,cauliflower01,battery02b,chefshat,book01b,sandal,sponge01,microscope,stapler01,fork03c,thermometer02b,apple07,blankImage,chefshat,,,,,,,,,,,,0,72,72,128,,,,,,,,,,,,,,,,,,,,,,,,,,,,,,,,,,,536.9417060000123,537.952552300063,537.9360497000162,538.5617816000013,538.5617816000013,None,540.5817891999613,None,left,0.5473992000333965,540.5817891999613,None,541.1559414999792,None,left,8.188864100025967,541.1559414999792,None,,,,,,,,,,,,,,,,,,,,,,,PPT44,001,2022-07-08_10h33.44.667,ABstudy,2022.1.4,59.96656262742534,
AB,Lag1_T1P_T2P,1,P,P,5,6,4,5,11,Basketball,Did you see the Basketball?,0.12,0.016,JPG\,pencil01,microscope,banana01,computerkeyboard02,basketball01,stapler04b,scissors01,sock01a,book01b,onion,dice05a,blankImage,blankImage,blankImage,blankImage,blankImage,blankImage,basketball01,,,,,,,,,,,,0,73,73,34,,,,,,,,,,,,,,,,,,,,,,,,,,,,,,,,,,,549.3701458000578,550.3816725000506,550.3650134999771,550.9391614999622,550.9391614999622,None,552.3145402000519,None,left,0.6785406999988481,552.3145402000519,None,553.0186171999667,None,right,0.5022313999943435,553.0186171999667,None,,,,,,,,,,,,,,,,,,,,,,,PPT44,001,2022-07-08_10h33.44.667,ABstudy,2022.1.4,59.96656262742534,
AB,Lag5_T1P_T2A,5,P,A,5,10,4,3,13,Totem Pole,Did you see the Totem Pole?,0.12,0.016,JPG\,canoftennisballs,banana01,scissors01,pig,totempole,leaf02a,pear01,sponge01,fork03c,tableknife02,balloon01b,match,toothbrush03b,blankImage,blankImage,blankImage,blankImage,totempole,,,,,,,,,,,,0,74,74,202,,,,,,,,,,,,,,,,,,,,,,,,,,,,,,,,,,,553.5637148000533,554.5693030999973,554.5525846000528,555.1198773999931,555.1198773999931,None,556.7314319000579,None,right,0.7415897001046687,556.7314319000579,None,557.5054792000446,None,left,0.431700799963437,557.5054792000446,None,,,,,,,,,,,,,,,,,,,,,,,PPT44,001,2022-07-08_10h33.44.667,ABstudy,2022.1.4,59.96656262742534,
AB,Lag5_T1P_T2P,5,P,P,7,12,6,3,15,lips,Did you see the lips?,0.12,0.016,JPG\,cigarette,fork03c,greenolive,broccoli01a,avocado01,tennisball01b,lip,leaf02a,pig,fan,clock01a,stapler03a,envelope03a,birthdaycandle,teabag,blankImage,blankImage,lip,,,,,,,,,,,,0,75,75,95,,,,,,,,,,,,,,,,,,,,,,,,,,,,,,,,,,,557.9615267000627,558.9735842000227,558.9568953999551,559.5346082999604,559.5346082999604,None,561.3706500000553,None,left,0.3104075000155717,561.3706500000553,None,561.709496299969,None,left,0.33133689989335835,561.709496299969,None,,,,,,,,,,,,,,,,,,,,,,,PPT44,001,2022-07-08_10h33.44.667,ABstudy,2022.1.4,59.96656262742534,
AB,Lag5_T1A_T2P,5,A,P,7,12,6,3,15,Car,Did you see the Car?,0.12,0.016,JPG\,lighter01,hammer01,spoon01,chain01,cymbal,sponge01,lipstick02a,alligator,pig,watermelon01,cauliflower01,stapler03b,broccoli01a,tableknife02,tennisball01b,blankImage,blankImage,wallclock,,,,,,,,,,,,0,76,76,277,,,,,,,,,,,,,,,,,,,,,,,,,,,,,,,,,,,562.1198316999944,563.1275647999719,563.1108570999932,563.7771011999575,563.6952962999931,None,565.5048373000463,None,right,0.9046526999445632,565.5048373000463,None,566.4309073999757,None,right,0.33051949995569885,566.4309073999757,None,,,,,,,,,,,,,,,,,,,,,,,PPT44,001,2022-07-08_10h33.44.667,ABstudy,2022.1.4,59.96656262742534,
AB,Lag5_T1P_T2P,5,P,P,5,10,4,5,15,baseball bat,Did you see the baseball bat?,0.12,0.016,JPG\,pizza,printer02,medal02b,spoon01,baseballbat,lighter01,belt02a,watermelon01,celery,stapler04b,screw02,comb02a,cauliflower01,lipstick02a,potato02b,blankImage,blankImage,baseballbat,,,,,,,,,,,,0,77,77,123,,,,,,,,,,,,,,,,,,,,,,,,,,,,,,,,,,,566.7835070999572,567.7989321000641,567.7655297999736,568.362586800009,568.362586800009,None,570.2847415000433,None,left,0.5968220999930054,570.2847415000433,None,570.9036439000629,None,right,2.441913100075908,570.9036439000629,None,,,,,,,,,,,,,,,,,,,,,,,PPT44,001,2022-07-08_10h33.44.667,ABstudy,2022.1.4,59.96656262742534,
AB,Lag5_T1P_T2A,5,P,A,5,10,4,3,13,martini glass,Did you see the martini glass?,0.12,0.016,JPG\,brick,eraser,cucumber,ashtray01,martiniglass01b,binoculars01b,lipstick02a,screwdriver04b,grape01,brownsugar,battery02b,iron01b,dice05a,blankImage,blankImage,blankImage,blankImage,martiniglass01b,,,,,,,,,,,,0,78,78,217,,,,,,,,,,,,,,,,,,,,,,,,,,,,,,,,,,,573.3720894999569,574.3723516999744,574.3555012999568,574.9270891000051,574.9270891000051,None,576.5213630000362,None,left,0.6159069000277668,576.5213630000362,None,577.1584019999718,None,right,0.45079310005530715,577.1584019999718,None,,,,,,,,,,,,,,,,,,,,,,,PPT44,001,2022-07-08_10h33.44.667,ABstudy,2022.1.4,59.96656262742534,
AB,Lag5_T1A_T2P,5,A,P,7,12,6,5,17,funnel,Did you see the funnel?,0.12,0.016,JPG\,iron01b,orange,birthdaycandle,potato02b,cauliflower01,pencil01,key01,candle08b,celery,tableknife02,pen04b,stapler04b,ring01,rice,lemon02,tomato01,blankImage,englishcucumber,,,,,,,,,,,,0,79,79,259,,,,,,,,,,,,,,,,,,,,,,,,,,,,,,,,,,,577.6306259999983,578.6430874000071,578.6264577000402,579.2199089999776,579.2199089999776,None,581.2432640000479,None,right,0.7341887999791652,581.2432640000479,None,581.9960427000187,None,left,0.5092857000418007,581.9960427000187,None,,,,,,,,,,,,,,,,,,,,,,,PPT44,001,2022-07-08_10h33.44.667,ABstudy,2022.1.4,59.96656262742534,
AB,Lag1_T1A_T2A,1,A,A,6,7,5,5,12,Safe,Did you see the Safe?,0.12,0.016,JPG\,hammer01,sponge01,toaster01,cherry01,feather03a,mushroom01,measuringcup01,pencil01,tennisball01b,brick,clock04,medal02b,blankImage,blankImage,blankImage,blankImage,blankImage,downhillski,,,,,,,,,,,,0,80,80,294,,,,,,,,,,,,,,,,,,,,,,,,,,,,,,,,,,,582.5328799999552,583.5478997000027,583.5144948000088,584.1143921000184,584.1143921000184,None,585.5969690000638,None,right,1.243765499908477,585.5969690000638,None,586.8678906999994,None,right,0.4127316999947652,586.8678906999994,None,,,,,,,,,,,,,,,,,,,,,,,PPT44,001,2022-07-08_10h33.44.667,ABstudy,2022.1.4,59.96656262742534,
AB,Lag5_T1P_T2A,5,P,A,5,10,4,4,14,Ship in a bottle,Did you see the Ship in a bottle?,0.12,0.016,JPG\,sewingmachine01a,thermometer02b,sponge01,eraser,shipinabottle,fork03c,pizza,violin,belt02a,medal02b,pineapple01a,tennisball01b,dandelion,cauliflower01,blankImage,blankImage,blankImage,shipinabottle,,,,,,,,,,,,0,81,81,208,,,,,,,,,,,,,,,,,,,,,,,,,,,,,,,,,,,587.3067053999985,588.3193764999742,588.3026710000122,588.9030350999674,588.9030350999674,None,590.62303779996,None,left,1.5385740000056103,590.62303779996,None,592.1898407000117,None,right,0.5166309999767691,592.1898407000117,None,,,,,,,,,,,,,,,,,,,,,,,PPT44,001,2022-07-08_10h33.44.667,ABstudy,2022.1.4,59.96656262742534,
AB,Lag5_T1P_T2P,5,P,P,6,11,5,5,16,table,Did you see the table?,0.12,0.016,JPG\,birthdaycandle,mushroom01,strawberry,match,cherry01,table01,hammer01,thermometer02b,sock01a,ring01,stapler06,banana01,toiletpaper01a,key01,sponge01,teabag,blankImage,table01,,,,,,,,,,,,0,82,82,144,,,,,,,,,,,,,,,,,,,,,,,,,,,,,,,,,,,592.7259705000324,593.7413726999657,593.7080205000238,594.2085000000661,594.2085000000661,None,596.2374392000493,None,right,0.8201207999372855,596.2374392000493,None,597.079176899977,None,left,0.5143372999737039,597.079176899977,None,,,,,,,,,,,,,,,,,,,,,,,PPT44,001,2022-07-08_10h33.44.667,ABstudy,2022.1.4,59.96656262742534,
AB,Lag5_T1P_T2P,5,P,P,6,11,5,5,16,microwave,Did you see the microwave?,0.12,0.016,JPG\,pen04b,speaker04,lighter01,cherry01,weight04a,microwave,sock01a,toothbrush03b,broom01,sewingmachine01a,stapler06,iron01b,clock01a,sandal,cd,blueberry01,blankImage,microwave,,,,,,,,,,,,0,83,83,136,,,,,,,,,,,,,,,,,,,,,,,,,,,,,,,,,,,597.6143779000267,598.6295132000232,598.596110100043,599.1800562000135,599.1800562000135,None,601.1053033999633,None,left,0.33584220008924603,601.1053033999633,None,601.4657289000461,None,left,0.47914139996282756,601.4657289000461,None,,,,,,,,,,,,,,,,,,,,,,,PPT44,001,2022-07-08_10h33.44.667,ABstudy,2022.1.4,59.96656262742534,
AB,Lag1_T1P_T2A,1,P,A,7,8,6,3,11,walkie talkie,Did you see the walkie talkie?,0.12,0.016,JPG\,teabag,envelope03a,cellphone,apple07,cauliflower01,orange,walkietalkie,book01b,hammer01,feather03a,toaster01,blankImage,blankImage,blankImage,blankImage,blankImage,blankImage,walkietalkie,,,,,,,,,,,,0,84,84,197,,,,,,,,,,,,,,,,,,,,,,,,,,,,,,,,,,,601.9733237000182,602.9838574000169,602.9671820000513,603.5388130999636,603.5388130999636,None,604.938410700066,None,left,0.9188760999822989,604.938410700066,None,605.8874886999838,None,right,0.5294221999356523,605.8874886999838,None,,,,,,,,,,,,,,,,,,,,,,,PPT44,001,2022-07-08_10h33.44.667,ABstudy,2022.1.4,59.96656262742534,
AB,Lag5_T1P_T2P,5,P,P,5,10,4,3,13,lollipop,Did you see the lollipop?,0.12,0.016,JPG\,brownsugar,candle01,match,printer02,lollipop04,balloon01b,belt02a,potato02b,computerkeyboard02,stapler03a,rice,mushroom01,pencil01,blankImage,blankImage,blankImage,blankImage,lollipop04,,,,,,,,,,,,0,85,85,112,,,,,,,,,,,,,,,,,,,,,,,,,,,,,,,,,,,606.5097466000589,607.5217862999998,607.5050639000256,608.0057991000358,608.0057991000358,None,609.6112730000168,None,left,0.3895236999960616,609.6112730000168,None,610.0243620000547,None,left,0.30437399994116277,610.0243620000547,None,,,,,,,,,,,,,,,,,,,,,,,PPT44,001,2022-07-08_10h33.44.667,ABstudy,2022.1.4,59.96656262742534,
AB,Lag5_T1P_T2P,5,P,P,8,13,7,5,18,bed,Did you see the bed?,0.12,0.016,JPG\,pencil01,broccoli01a,button01,sponge01,watermelon01,lipstick02a,comb02a,bed,lighter01,sock01a,spoon01,blueberry01,stapler04b,onion,grape01,avocado01,blankImage,bed,,,,,,,,,,,,0,86,86,124,,,,,,,,,,,,,,,,,,,,,,,,,,,,,,,,,,,610.3614746000385,611.3757989000296,611.3424505000003,611.9195139000658,611.9195139000658,None,613.9755611000583,None,left,0.19359389995224774,613.9755611000583,None,614.1952509999974,None,left,0.2780932999448851,614.1952509999974,None,,,,,,,,,,,,,,,,,,,,,,,PPT44,001,2022-07-08_10h33.44.667,ABstudy,2022.1.4,59.96656262742534,
AB,Lag5_T1P_T2P,5,P,P,7,12,6,4,16,flower,Did you see the flower?,0.12,0.016,JPG\,cucumber,sponge01,alligator,pear01,ashtray01,hammer01,hibiscusflower02,battery02b,fork03c,binoculars01b,mushroom01,stapler01,leaf02a,acorn,comb02a,screwdriver04b,blankImage,hibiscusflower02,,,,,,,,,,,,0,87,87,132,,,,,,,,,,,,,,,,,,,,,,,,,,,,,,,,,,,614.4980160000268,615.5130105999997,615.4796279000584,616.0518220000667,616.0518220000667,None,618.0374301000265,None,left,0.3959845999488607,618.0374301000265,None,618.4658846000675,None,left,0.27144249994307756,618.4658846000675,None,,,,,,,,,,,,,,,,,,,,,,,PPT44,001,2022-07-08_10h33.44.667,ABstudy,2022.1.4,59.96656262742534,
AB,Lag1_T1P_T2P,1,P,P,8,9,7,3,12,snow globe,Did you see the Snow globe?,0.12,0.016,JPG\,eraser,measuringcup01,chain01,birthdaycandle,ring01,rice,8ball,stapler04b,stapler01,celery,microscope,sunglasses04,blankImage,blankImage,blankImage,blankImage,blankImage,snowglobe,,,,,,,,,,,,0,88,88,56,,,,,,,,,,,,,,,,,,,,,,,,,,,,,,,,,,,618.7703054000158,619.784134699963,619.7508875000058,620.3502660000231,620.3502660000231,None,621.7894508000463,None,right,0.8355298999231309,621.7894508000463,None,622.6534292000579,None,left,0.40343700000084937,622.6534292000579,None,,,,,,,,,,,,,,,,,,,,,,,PPT44,001,2022-07-08_10h33.44.667,ABstudy,2022.1.4,59.96656262742534,
AB,Lag5_T1P_T2P,5,P,P,6,11,5,5,16,Car,Did you see the Car?,0.12,0.016,JPG\,leaf02a,apple07,cd,pineapple01a,envelope03a,car,pig,canoftennisballs,rice,feather03a,stapler03a,balloon01b,avocado01,calculator01,watermelon01,teabag,blankImage,car,,,,,,,,,,,,0,89,89,127,,,,,,,,,,,,,,,,,,,,,,,,,,,,,,,,,,,623.0897166000213,624.1048849000363,624.0715602999553,624.6415408999892,624.6415408999892,None,626.6006411999697,None,right,0.7119959000265226,626.6006411999697,None,627.3416638000635,None,left,0.48295769991818815,627.3416638000635,None,,,,,,,,,,,,,,,,,,,,,,,PPT44,001,2022-07-08_10h33.44.667,ABstudy,2022.1.4,59.96656262742534,
AB,Lag5_T1P_T2P,5,P,P,6,11,5,4,15,saxophone,Did you see the saxophone?,0.12,0.016,JPG\,pizza,strawberry,potato02b,speaker04,battery02b,saxophone,dice05a,cellphone,globe,banana01,stapler03b,baseball01a,toaster01,broom01,ring01,blankImage,blankImage,saxophone,,,,,,,,,,,,0,90,90,117,,,,,,,,,,,,,,,,,,,,,,,,,,,,,,,,,,,627.8984151000623,628.9097802999895,628.892689100001,629.5504967999877,629.5504967999877,None,631.229263999965,None,left,0.32386260002385825,631.229263999965,None,631.5790490000509,None,left,0.4064092000480741,631.5790490000509,None,,,,,,,,,,,,,,,,,,,,,,,PPT44,001,2022-07-08_10h33.44.667,ABstudy,2022.1.4,59.96656262742534,
AB,Lag5_T1P_T2P,5,P,P,5,10,4,5,15,scorpion,Did you see the scorpion?,0.12,0.016,JPG\,fan,tomato01,candy,screwdriver04b,scorpion,cd,thermometer02b,apple07,button01,stapler01,brownsugar,lighter01,clock01a,envelope03a,clock04,blankImage,blankImage,scorpion,,,,,,,,,,,,0,91,91,97,,,,,,,,,,,,,,,,,,,,,,,,,,,,,,,,,,,632.0211146000074,633.030492400052,633.0137685000664,633.6000115000643,633.6000115000643,None,635.5334939999739,None,left,0.12363080005161464,635.5334939999739,None,635.6831657000585,None,left,0.44569700001738966,635.6831657000585,None,,,,,,,,,,,,,,,,,,,,,,,PPT44,001,2022-07-08_10h33.44.667,ABstudy,2022.1.4,59.96656262742534,
AB,Lag1_T1P_T2P,1,P,P,5,6,4,3,9,hockey stick,Did you see the hockey stick?,0.12,0.016,JPG\,violin,pizza,toothbrush03b,pineapple01a,hockeystick,stapler03b,candy,dandelion,clock04,blankImage,blankImage,blankImage,blankImage,blankImage,blankImage,blankImage,blankImage,hockeystick,,,,,,,,,,,,0,92,92,63,,,,,,,,,,,,,,,,,,,,,,,,,,,,,,,,,,,636.1548962000525,637.1679255999625,637.1512618999695,637.7366789999651,637.7366789999651,None,638.8780665000668,None,left,0.8824581999797374,638.8780665000668,None,639.7871162999654,None,right,0.5501841999357566,639.7871162999654,None,,,,,,,,,,,,,,,,,,,,,,,PPT44,001,2022-07-08_10h33.44.667,ABstudy,2022.1.4,59.96656262742534,
AB,Lag5_T1P_T2P,5,P,P,7,12,6,3,15,marble,Did you see the marble?,0.12,0.016,JPG\,cigarette,ashtray01,envelope03a,sandal,chain01,cucumber,marble,tomato01,dandelion,candle01,lemon02,stapler03b,potato02b,cymbal,clock01a,blankImage,blankImage,marble,,,,,,,,,,,,0,93,93,146,,,,,,,,,,,,,,,,,,,,,,,,,,,,,,,,,,,640.3567034000298,641.3721293000272,641.338753900025,641.9112667000154,641.9112667000154,None,643.77857580001,None,left,0.3503340999595821,643.77857580001,None,644.1582441000501,None,left,0.34681859996635467,644.1582441000501,None,,,,,,,,,,,,,,,,,,,,,,,PPT44,001,2022-07-08_10h33.44.667,ABstudy,2022.1.4,59.96656262742534,
AB,Lag1_T1P_T2P,1,P,P,6,7,5,3,10,fortune cookie,Did you see the fortune cookie?,0.12,0.016,JPG\,scissors01,grape01,mushroom01,toiletpaper01a,greenolive,fortunecookie,stapler03b,ashtray01,carrot01,pineapple01a,blankImage,blankImage,blankImage,blankImage,blankImage,blankImage,blankImage,fortunecookie,,,,,,,,,,,,0,94,94,42,,,,,,,,,,,,,,,,,,,,,,,,,,,,,,,,,,,644.529931099969,645.5429552999558,645.5262162999716,646.1023047000635,646.1023047000635,None,647.2904268000275,None,left,1.3500943999970332,647.2904268000275,None,648.6638558000559,None,left,0.27271170006133616,648.6638558000559,None,,,,,,,,,,,,,,,,,,,,,,,PPT44,001,2022-07-08_10h33.44.667,ABstudy,2022.1.4,59.96656262742534,
AB,Lag1_T1P_T2P,1,P,P,8,9,7,3,12,Fire hydrant,Did you see the Fire hydrant?,0.12,0.016,JPG\,foosballtable,candy,envelope03a,microscope,pencil01,leaf02a,scissors01,firehydrant,stapler01,dandelion,pineapple01a,hammer01,blankImage,blankImage,blankImage,blankImage,blankImage,firehydrant,,,,,,,,,,,,0,95,95,83,,,,,,,,,,,,,,,,,,,,,,,,,,,,,,,,,,,648.9718715000199,649.9805890000425,649.9641406000592,650.4644611000549,650.4644611000549,None,651.9791753999889,None,left,0.8136704000644386,651.9791753999889,None,652.817148400005,None,right,0.6879237999673933,652.817148400005,None,,,,,,,,,,,,,,,,,,,,,,,PPT44,001,2022-07-08_10h33.44.667,ABstudy,2022.1.4,59.96656262742534,
AB,Lag1_T1P_T2P,1,P,P,7,8,6,3,11,cloud,Did you see the cloud?,0.12,0.016,JPG\,lighter01,hammer01,spoon01,chain01,cymbal,sponge01,cloud,stapler06,pig,watermelon01,cauliflower01,blankImage,blankImage,blankImage,blankImage,blankImage,blankImage,cloud,,,,,,,,,,,,0,96,96,36,,,,,,,,,,,,,,,,,,,,,,,,,,,,,,,,,,,653.5396712999791,654.5517072000075,654.535111800069,655.1144357000012,655.1144357000012,None,656.4753431000281,None,left,0.6778400000184774,656.4753431000281,None,657.1713882000186,None,right,0.4135311000281945,657.1713882000186,None,,,,,,,,,,,,,,,,,,,,,,,PPT44,001,2022-07-08_10h33.44.667,ABstudy,2022.1.4,59.96656262742534,
AB,Lag5_T1P_T2P,5,P,P,5,10,4,4,14,Salt shaker,Did you see the Salt shaker?,0.12,0.016,JPG\,fork03c,belt02a,grape01,computerkeyboard02,saltshaker03a,printer02,broom01,toiletpaper01a,toaster01,stapler01,book01b,blueberry01,spoon01,apple07,blankImage,blankImage,blankImage,saltshaker03a,,,,,,,,,,,,0,97,97,96,,,,,,,,,,,,,,,,,,,,,,,,,,,,,,,,,,,657.66550620005,658.6728956999723,658.656223500031,659.234097699984,659.234097699984,None,660.9066157999914,None,left,0.12634920002892613,660.9066157999914,None,661.0583993999753,None,left,0.6473655999870971,661.0583993999753,None,,,,,,,,,,,,,,,,,,,,,,,PPT44,001,2022-07-08_10h33.44.667,ABstudy,2022.1.4,59.96656262742534,
AB,Lag1_T1P_T2P,1,P,P,7,8,6,4,12,cow,Did you see the cow?,0.12,0.016,JPG\,fork03c,plate01b,toiletpaper01a,greenolive,rice,blueberry01,cow,stapler01,envelope03a,orange,book01b,pencil01,blankImage,blankImage,blankImage,blankImage,blankImage,cow,,,,,,,,,,,,0,98,98,59,,,,,,,,,,,,,,,,,,,,,,,,,,,,,,,,,,,661.7307471999666,662.7436750000343,662.7269865999697,663.3099244000623,663.3099244000623,None,664.7509518000297,None,left,0.4344559999881312,664.7509518000297,None,665.2124615999637,None,left,0.5018039999995381,665.2124615999637,None,,,,,,,,,,,,,,,,,,,,,,,PPT44,001,2022-07-08_10h33.44.667,ABstudy,2022.1.4,59.96656262742534,
AB,Lag5_T1P_T2P,5,P,P,7,12,6,4,16,Recycling bin,Did you see the Recycling bin?,0.12,0.016,JPG\,broccoli01a,scissors01,toothbrush03b,foosballtable,iron01b,brick,recyclingbin,toiletpaper01a,cd,garlic01a,carrot01,stapler03a,envelope03a,battery02b,balloon01b,broom01,blankImage,recyclingbin,,,,,,,,,,,,0,99,99,157,,,,,,,,,,,,,,,,,,,,,,,,,,,,,,,,,,,665.8222643999616,666.8308822000399,666.8141313999658,667.3922379000578,667.3922379000578,None,669.2700187000446,None,right,1.7547819999745116,669.2700187000446,None,671.0516863999655,None,left,0.4622856999048963,671.0516863999655,None,,,,,,,,,,,,,,,,,,,,,,,PPT44,001,2022-07-08_10h33.44.667,ABstudy,2022.1.4,59.96656262742534,
AB,Lag1_T1P_T2P,1,P,P,5,6,4,3,9,elephant,Did you see the elephant?,0.12,0.016,JPG\,celery,brownsugar,key01,sunglasses04,arugula,stapler04b,dice05a,tennisball01b,scarf,blankImage,blankImage,blankImage,blankImage,blankImage,blankImage,blankImage,blankImage,arugula,,,,,,,,,,,,0,100,100,54,,,,,,,,,,,,,,,,,,,,,,,,,,,,,,,,,,,671.5388837000355,672.5533537999727,672.520238499972,673.0934807000449,673.0934807000449,None,674.2578655000543,None,right,1.2953950999071822,674.2578655000543,None,675.5727669000626,None,left,0.3002740000374615,675.5727669000626,None,,,,,,,,,,,,,,,,,,,,,,,PPT44,001,2022-07-08_10h33.44.667,ABstudy,2022.1.4,59.96656262742534,
AB,Lag1_T1P_T2P,1,P,P,8,9,7,4,13,Doughnut,Did you see the Doughnut?,0.12,0.016,JPG\,brick,eraser,cucumber,ashtray01,thermometer02b,binoculars01b,lipstick02a,donut,stapler01,brownsugar,battery02b,iron01b,dice05a,blankImage,blankImage,blankImage,blankImage,donut,,,,,,,,,,,,0,101,101,39,,,,,,,,,,,,,,,,,,,,,,,,,,,,,,,,,,,675.9048783000326,676.907436999958,676.8740860000253,677.4660589999985,677.4660589999985,None,679.0150759000098,None,left,0.36994830006733537,679.0150759000098,None,679.4100021000486,None,left,0.5267039999598637,679.4100021000486,None,,,,,,,,,,,,,,,,,,,,,,,PPT44,001,2022-07-08_10h33.44.667,ABstudy,2022.1.4,59.96656262742534,
AB,Lag1_T1P_T2P,1,P,P,8,9,7,4,13,ladder,Did you see the ladder?,0.12,0.016,JPG\,cigarette,fork03c,greenolive,broccoli01a,avocado01,tennisball01b,balloon01b,ladder,stapler03b,fan,clock01a,strawberry,envelope03a,blankImage,blankImage,blankImage,blankImage,ladder,,,,,,,,,,,,0,102,102,45,,,,,,,,,,,,,,,,,,,,,,,,,,,,,,,,,,,679.9726151999785,680.9779724000255,680.9613330999855,681.5315985999769,681.5315985999769,None,683.193710600026,None,left,0.21613900002557784,683.193710600026,None,683.4308680000249,None,left,0.6335102999582887,683.4308680000249,None,,,,,,,,,,,,,,,,,,,,,,,PPT44,001,2022-07-08_10h33.44.667,ABstudy,2022.1.4,59.96656262742534,
AB,Lag1_T1A_T2P,1,A,P,6,7,5,5,12,Treadmill,Did you see the Treadmill?,0.12,0.016,JPG\,pencil01,broccoli01a,button01,sponge01,watermelon01,lipstick02a,stapler04b,fan,lighter01,sock01a,spoon01,blueberry01,blankImage,blankImage,blankImage,blankImage,blankImage,magneticcompass,,,,,,,,,,,,0,103,103,238,,,,,,,,,,,,,,,,,,,,,,,,,,,,,,,,,,,684.0847072000615,685.0991657000268,685.0656595999608,685.6293017000426,685.6293017000426,None,687.0987551000435,None,right,0.7665104999905452,687.0987551000435,None,687.8851847000187,None,left,0.46849190001375973,687.8851847000187,None,,,,,,,,,,,,,,,,,,,,,,,PPT44,001,2022-07-08_10h33.44.667,ABstudy,2022.1.4,59.96656262742534,
AB,Lag5_T1P_T2P,5,P,P,6,11,5,5,16,scooter,Did you see the scooter?,0.12,0.016,JPG\,thermometer02b,candle08b,comb02a,toothbrush03b,brick,scooter,key01,pineapple01a,candy,birthdaycandle,stapler04b,canoftennisballs,teabag,medal02b,balloon01b,banana01,blankImage,scooter,,,,,,,,,,,,0,104,104,118,,,,,,,,,,,,,,,,,,,,,,,,,,,,,,,,,,,688.4007212000433,689.4032857000129,689.3699598000385,689.9447287999792,689.9447287999792,None,691.8894822000293,None,left,0.09564820001833141,691.8894822000293,None,692.0067112999968,None,left,0.6100417000707239,692.0067112999968,None,,,,,,,,,,,,,,,,,,,,,,,PPT44,001,2022-07-08_10h33.44.667,ABstudy,2022.1.4,59.96656262742534,
AB,Lag5_T1P_T2A,5,P,A,7,12,6,5,17,flower,Did you see the flower?,0.12,0.016,JPG\,cellphone,tomato01,comb02a,candy,celery,cucumber,craneflower,fan,feather03a,pen04b,lemon02,blueberry01,plate01b,cherry01,baseball01a,candle08b,blankImage,craneflower,,,,,,,,,,,,0,105,105,211,,,,,,,,,,,,,,,,,,,,,,,,,,,,,,,,,,,692.6458751000464,693.6574987999629,693.6408087000018,694.2192335999571,694.2192335999571,None,696.1951639000326,None,left,1.3576238999376073,696.1951639000326,None,697.6002926999936,None,right,0.7281933999620378,697.6002926999936,None,,,,,,,,,,,,,,,,,,,,,,,PPT44,001,2022-07-08_10h33.44.667,ABstudy,2022.1.4,59.96656262742534,
AB,Lag5_T1P_T2P,5,P,P,5,10,4,3,13,Rabbit,Did you see the Rabbit?,0.12,0.016,JPG\,celery,tennisball01b,calculator01,pear01,jackrabbit,orange,button01,cellphone,onion,stapler06,iron01b,brownsugar,banana01,blankImage,blankImage,blankImage,blankImage,jackrabbit,,,,,,,,,,,,0,106,106,90,,,,,,,,,,,,,,,,,,,,,,,,,,,,,,,,,,,698.3458224000642,699.3469312000088,699.3305959999561,699.8890738000628,699.8890738000628,None,701.5549570999574,None,left,0.893691600067541,701.5549570999574,None,702.4663358000107,None,left,0.4384678000351414,702.4663358000107,None,,,,,,,,,,,,,,,,,,,,,,,PPT44,001,2022-07-08_10h33.44.667,ABstudy,2022.1.4,59.96656262742534,
AB,Lag1_T1A_T2A,1,A,A,8,9,7,4,13,sword fish,Did you see the sword fish?,0.12,0.016,JPG\,pizza,strawberry,potato02b,speaker04,battery02b,iron01b,dice05a,cellphone,globe,banana01,medal02b,baseball01a,toaster01,blankImage,blankImage,blankImage,blankImage,ear,,,,,,,,,,,,0,107,107,295,,,,,,,,,,,,,,,,,,,,,,,,,,,,,,,,,,,702.9367069000145,703.9512347000418,703.917932500015,704.5175238000229,704.5175238000229,None,706.0876143999631,None,right,1.0013741001021117,706.0876143999631,None,707.1211032000137,None,right,0.4958659000694752,707.1211032000137,None,,,,,,,,,,,,,,,,,,,,,,,PPT44,001,2022-07-08_10h33.44.667,ABstudy,2022.1.4,59.96656262742534,
AB,Lag1_T1P_T2P,1,P,P,6,7,5,5,12,owl,Did you see the owl?,0.12,0.016,JPG\,paintbrush01,eraser,medal02b,hammer01,speaker04,greathornowl,stapler01,comb02a,plate01b,clock01a,button01,globe,blankImage,blankImage,blankImage,blankImage,blankImage,greathornowl,,,,,,,,,,,,0,108,108,1,,,,,,,,,,,,,,,,,,,,,,,,,,,,,,,,,,,707.6413695999654,708.6559076999547,708.6225930000655,709.201317399973,709.201317399973,None,710.706433000043,None,left,0.9500476999673992,710.706433000043,None,711.6755798000377,None,left,0.5017830999568105,711.6755798000377,None,,,,,,,,,,,,,,,,,,,,,,,PPT44,001,2022-07-08_10h33.44.667,ABstudy,2022.1.4,59.96656262742534,
AB,Lag5_T1P_T2P,5,P,P,5,10,4,5,15,Ipad,Did you see the Ipad?,0.12,0.016,JPG\,fork03c,toothbrush03b,cellphone,fan,ipad02,clock01a,ring01,eraser,sunglasses04,stapler06,violin,brownsugar,blueberry01,pear01,pencil01,blankImage,blankImage,ipad02,,,,,,,,,,,,0,109,109,150,,,,,,,,,,,,,,,,,,,,,,,,,,,,,,,,,,,712.2176002999768,713.2271489000414,713.2104613999836,713.7972886000061,713.7972886000061,None,715.6336933999555,None,left,0.3749850000021979,715.6336933999555,None,716.0297501999885,None,left,0.4749216999625787,716.0297501999885,None,,,,,,,,,,,,,,,,,,,,,,,PPT44,001,2022-07-08_10h33.44.667,ABstudy,2022.1.4,59.96656262742534,
AB,Lag1_T1P_T2P,1,P,P,8,9,7,5,14,helicopter,Did you see the helicopter?,0.12,0.016,JPG\,broom01,globe,cellphone,tableknife02,cauliflower01,scissors01,ring01,helicopter,stapler01,toaster01,cigarette,grape01,microscope,cucumber,blankImage,blankImage,blankImage,helicopter,,,,,,,,,,,,0,110,110,85,,,,,,,,,,,,,,,,,,,,,,,,,,,,,,,,,,,716.5331681000534,717.5478972999845,717.5145720000146,718.1020779999672,718.1020779999672,None,719.8565216000425,None,left,1.7119047999149188,719.8565216000425,None,721.5854362000246,None,left,0.6472811999265105,721.5854362000246,None,,,,,,,,,,,,,,,,,,,,,,,PPT44,001,2022-07-08_10h33.44.667,ABstudy,2022.1.4,59.96656262742534,
AB,Lag5_T1P_T2P,5,P,P,8,13,7,5,18,pipe,Did you see the pipe?,0.12,0.016,JPG\,scissors01,ashtray01,garlic01a,medal02b,cigarette,candle08b,leaf02a,smokingpipe,cucumber,rice,toiletpaper01a,greenolive,stapler01,cellphone,tableknife02,spoon01,blankImage,smokingpipe,,,,,,,,,,,,0,111,111,138,,,,,,,,,,,,,,,,,,,,,,,,,,,,,,,,,,,722.2574451999972,723.2703424000647,723.253889100044,723.8578675000463,723.8578675000463,None,725.7915741000324,None,left,0.6651083999313414,725.7915741000324,None,726.4736520999577,None,left,0.35157330008223653,726.4736520999577,None,,,,,,,,,,,,,,,,,,,,,,,PPT44,001,2022-07-08_10h33.44.667,ABstudy,2022.1.4,59.96656262742534,
AB,Lag1_T1P_T2P,1,P,P,8,9,7,3,12,mail box,Did you see the mail box?,0.12,0.016,JPG\,paintbrush01,dice05a,watermelon01,broccoli01a,hammer01,leaf02a,match,mailbox01,stapler05,fan,lipstick02a,grape01,blankImage,blankImage,blankImage,blankImage,blankImage,mailbox01,,,,,,,,,,,,0,112,112,20,,,,,,,,,,,,,,,,,,,,,,,,,,,,,,,,,,,726.9222369999625,727.9246810000623,727.9101850000443,728.5676556000253,728.4896635999903,None,729.8784787000623,None,right,0.8259664999786764,729.8784787000623,None,730.7277302000439,None,right,0.39280660008080304,730.7277302000439,None,,,,,,,,,,,,,,,,,,,,,,,PPT44,001,2022-07-08_10h33.44.667,ABstudy,2022.1.4,59.96656262742534,
AB,Lag5_T1P_T2P,5,P,P,5,10,4,5,15,rake,Did you see the rake?,0.12,0.016,JPG\,scissors01,grape01,mushroom01,toiletpaper01a,leafrake,pizza,cigarette,ashtray01,carrot01,stapler03b,foosballtable,lipstick02a,teabag,acorn,potato02b,blankImage,blankImage,leafrake,,,,,,,,,,,,0,113,113,92,,,,,,,,,,,,,,,,,,,,,,,,,,,,,,,,,,,731.147241699975,732.162729499978,732.1292680000188,732.6974117000354,732.6974117000354,None,734.630128000048,None,left,0.11429319996386766,734.630128000048,None,734.7650838999543,None,left,0.2755568999564275,734.7650838999543,None,,,,,,,,,,,,,,,,,,,,,,,PPT44,001,2022-07-08_10h33.44.667,ABstudy,2022.1.4,59.96656262742534,
AB,Lag5_T1A_T2A,5,A,A,5,10,4,4,14,music sheet,Did you see the music sheet?,0.12,0.016,JPG\,celery,pencil01,fan,foosballtable,iron01b,shirt02,potato02b,fork03c,button01,pineapple01a,baseball01a,printer02,cauliflower01,dandelion,blankImage,blankImage,blankImage,licenseplate,,,,,,,,,,,,0,114,114,304,,,,,,,,,,,,,,,,,,,,,,,,,,,,,,,,,,,735.0710365000414,736.0833402000135,736.0665829000063,736.6412425000453,736.6412425000453,None,738.2519581000088,None,right,1.1170211000135168,738.2519581000088,None,739.3865978000686,None,right,1.0220257999608293,739.3865978000686,None,,,,,,,,,,,,,,,,,,,,,,,PPT44,001,2022-07-08_10h33.44.667,ABstudy,2022.1.4,59.96656262742534,
AB,Lag1_T1A_T2P,1,A,P,8,9,7,3,12,seal,Did you see the seal?,0.12,0.016,JPG\,dice05a,watch02a,pig,lighter01,button01,strawberry,paintbrush01,microscope,stapler03a,pen04b,feather03a,8ball,blankImage,blankImage,blankImage,blankImage,blankImage,hockeystick,,,,,,,,,,,,0,115,115,235,,,,,,,,,,,,,,,,,,,,,,,,,,,,,,,,,,,740.4420308000408,741.4553557999898,741.4386714999564,742.0833540000021,742.0085136999842,None,743.5067935000407,None,right,1.2549349999753758,743.5067935000407,None,744.7918957000365,None,right,0.7452297999989241,744.7918957000365,None,,,,,,,,,,,,,,,,,,,,,,,PPT44,001,2022-07-08_10h33.44.667,ABstudy,2022.1.4,59.96656262742534,
AB,Lag5_T1P_T2P,5,P,P,7,12,6,4,16,Bird feeder,Did you see the Bird feeder?,0.12,0.016,JPG\,watermelon01,banana01,ring01,pencil01,tomato01,speaker04,birdfeeder,thermometer02b,key01,foosballtable,violin,stapler06,clock04,dice05a,pen04b,mushroom01,blankImage,birdfeeder,,,,,,,,,,,,0,116,116,164,,,,,,,,,,,,,,,,,,,,,,,,,,,,,,,,,,,745.5616722999839,746.5769003999885,746.54363249999,747.1306311000371,747.1306311000371,None,749.0431436999934,None,left,0.38953579997178167,749.0431436999934,None,749.4637691000244,None,left,0.36876830004621297,749.4637691000244,None,,,,,,,,,,,,,,,,,,,,,,,PPT44,001,2022-07-08_10h33.44.667,ABstudy,2022.1.4,59.96656262742534,
AB,Lag5_T1A_T2P,5,A,P,7,12,6,4,16,church,Did you see the church?,0.12,0.016,JPG\,printer02,leaf02a,cauliflower01,sock01a,brownsugar,paintbrush01,pig,orange,belt02a,shirt02,key01,stapler06,cigarette,scissors01,envelope03a,blueberry01,blankImage,ant,,,,,,,,,,,,0,117,117,279,,,,,,,,,,,,,,,,,,,,,,,,,,,,,,,,,,,749.8631162999664,750.8644782999763,750.8477450000355,751.4501808000496,751.4501808000496,None,753.3955099000596,None,right,1.2930548000149429,753.3955099000596,None,754.7185917999595,None,left,0.3140922000166029,754.7185917999595,None,,,,,,,,,,,,,,,,,,,,,,,PPT44,001,2022-07-08_10h33.44.667,ABstudy,2022.1.4,59.96656262742534,
AB,Lag5_T1A_T2P,5,A,P,5,10,4,5,15,Eye patch,Did you see the Eye patch?,0.12,0.016,JPG\,scissors01,balloon01b,eraser,feather03a,banana01,candle01,measuringcup01,calculator01,thermometer02b,stapler03b,pear01,carrot01,globe,baseball01a,leaf02a,blankImage,blankImage,cross01,,,,,,,,,,,,0,118,118,258,,,,,,,,,,,,,,,,,,,,,,,,,,,,,,,,,,,755.0587635999545,756.0698491999647,756.053142299992,756.6348988000536,756.6348988000536,None,758.4329030000372,None,right,1.0399649000028148,758.4329030000372,None,759.489817499998,None,left,0.47103000001516193,759.489817499998,None,,,,,,,,,,,,,,,,,,,,,,,PPT44,001,2022-07-08_10h33.44.667,ABstudy,2022.1.4,59.96656262742534,
AB,Lag1_T1P_T2P,1,P,P,6,7,5,5,12,exit sign,Did you see the exit sign?,0.12,0.016,JPG\,printer02,envelope03a,potato02b,calculator01,tableknife02,exitsign,stapler01,pig,broom01,greenolive,candle08b,battery02b,blankImage,blankImage,blankImage,blankImage,blankImage,exitsign,,,,,,,,,,,,0,119,119,41,,,,,,,,,,,,,,,,,,,,,,,,,,,,,,,,,,,760.0508768999716,761.0582542000338,761.0415788000682,761.6359457999934,761.6359457999934,None,763.0147079000017,None,left,0.8095133999595419,763.0147079000017,None,763.8441091000568,None,right,0.4040202999021858,763.8441091000568,None,,,,,,,,,,,,,,,,,,,,,,,PPT44,001,2022-07-08_10h33.44.667,ABstudy,2022.1.4,59.96656262742534,
AB,Lag5_T1P_T2A,5,P,A,8,13,7,5,18,Nunchuks,Did you see the Nunchuks?,0.12,0.016,JPG\,celery,tennisball01b,calculator01,pear01,screw02,orange,button01,nunchuk,onion,apple07,iron01b,brownsugar,banana01,paintbrush01,dandelion,toothbrush03b,blankImage,nunchuk,,,,,,,,,,,,0,120,120,218,,,,,,,,,,,,,,,,,,,,,,,,,,,,,,,,,,,764.2866462999955,765.2955926000141,765.2790873000631,765.8422928999644,765.8422928999644,None,767.8130083000287,None,left,0.7001931000268087,767.8130083000287,None,768.5322062000632,None,right,0.7158714999677613,768.5322062000632,None,,,,,,,,,,,,,,,,,,,,,,,PPT44,001,2022-07-08_10h33.44.667,ABstudy,2022.1.4,59.96656262742534,
AB,Lag1_T1P_T2P,1,P,P,6,7,5,3,10,drum sticks,Did you see the drum sticks?,0.12,0.016,JPG\,pineapple01a,tennisball01b,computerkeyboard02,feather03a,belt02a,drumstick,stapler03b,blueberry01,medal02b,alligator,blankImage,blankImage,blankImage,blankImage,blankImage,blankImage,blankImage,drumstick,,,,,,,,,,,,0,121,121,61,,,,,,,,,,,,,,,,,,,,,,,,,,,,,,,,,,,769.2732787999557,770.2839384999825,770.267310300027,770.8600441999733,770.8600441999733,None,771.9856940000318,None,left,0.974682500003837,771.9856940000318,None,772.9864520999836,None,left,0.5263455000240356,772.9864520999836,None,,,,,,,,,,,,,,,,,,,,,,,PPT44,001,2022-07-08_10h33.44.667,ABstudy,2022.1.4,59.96656262742534,
AB,Lag5_T1A_T2A,5,A,A,7,12,6,4,16,Eye,Did you see the Eye?,0.12,0.016,JPG\,rice,watermelon01,tableknife02,scarf,computerkeyboard02,cauliflower01,battery02b,binoculars01b,book01b,sandal,sponge01,microscope,tomato01,fork03c,thermometer02b,apple07,blankImage,scooter,,,,,,,,,,,,0,122,122,302,,,,,,,,,,,,,,,,,,,,,,,,,,,,,,,,,,,773.539439599961,774.5546597000211,774.5212777999695,775.104428300052,775.104428300052,None,777.0633677999722,None,left,5.369375200010836,777.0633677999722,None,782.462722599972,None,right,0.6902481000870466,782.462722599972,None,,,,,,,,,,,,,,,,,,,,,,,PPT44,001,2022-07-08_10h33.44.667,ABstudy,2022.1.4,59.96656262742534,
AB,Lag1_T1P_T2P,1,P,P,5,6,4,5,11,football,Did you see the football?,0.12,0.016,JPG\,globe,belt02a,sponge01,violin,soccerball,stapler01,clock01a,microscope,balloon01b,scarf,teabag,blankImage,blankImage,blankImage,blankImage,blankImage,blankImage,soccerball,,,,,,,,,,,,0,123,123,26,,,,,,,,,,,,,,,,,,,,,,,,,,,,,,,,,,,783.1849281999748,784.1977555999765,784.1810231000418,784.7893863000209,784.7893863000209,None,786.0906459999969,None,left,0.8136003999970853,786.0906459999969,None,786.9338019000133,None,left,0.43557959992904216,786.9338019000133,None,,,,,,,,,,,,,,,,,,,,,,,PPT44,001,2022-07-08_10h33.44.667,ABstudy,2022.1.4,59.96656262742534,
AB,Lag1_T1P_T2P,1,P,P,6,7,5,3,10,spider web,Did you see the spider web?,0.12,0.016,JPG\,toaster01,chain01,sponge01,baseball01a,carrot01,spiderweb,stapler03b,iron01b,grape01,brick,blankImage,blankImage,blankImage,blankImage,blankImage,blankImage,blankImage,spiderweb,,,,,,,,,,,,0,124,124,72,,,,,,,,,,,,,,,,,,,,,,,,,,,,,,,,,,,787.4046733999858,788.418661099975,788.4020520000486,788.9745747999987,788.9745747999987,None,790.1941186999902,None,left,2.302606499986723,790.1941186999902,None,792.5228004000382,None,left,0.3177867999766022,792.5228004000382,None,,,,,,,,,,,,,,,,,,,,,,,PPT44,001,2022-07-08_10h33.44.667,ABstudy,2022.1.4,59.96656262742534,
AB,Lag1_T1P_T2P,1,P,P,5,6,4,3,9,mail box,Did you see the mail box?,0.12,0.016,JPG\,watermelon01,banana01,ring01,pencil01,mailbox02,stapler04b,cucumber,thermometer02b,key01,blankImage,blankImage,blankImage,blankImage,blankImage,blankImage,blankImage,blankImage,mailbox02,,,,,,,,,,,,0,125,125,21,,,,,,,,,,,,,,,,,,,,,,,,,,,,,,,,,,,792.8785785000073,793.8909735999769,793.8740435000509,794.462559800013,794.462559800013,None,795.5655633000424,None,left,1.2510714000090957,795.5655633000424,None,796.8437782999827,None,right,0.5081543000414968,796.8437782999827,None,,,,,,,,,,,,,,,,,,,,,,,PPT44,001,2022-07-08_10h33.44.667,ABstudy,2022.1.4,59.96656262742534,
AB,Lag5_T1A_T2P,5,A,P,5,10,4,3,13,flower,Did you see the flower?,0.12,0.016,JPG\,cucumber,ring01,lipstick02a,microscope,violin,garlic01a,celery,lighter01,cherry01,stapler03a,belt02a,key01,binoculars01b,blankImage,blankImage,blankImage,blankImage,christmastree,,,,,,,,,,,,0,126,126,284,,,,,,,,,,,,,,,,,,,,,,,,,,,,,,,,,,,797.3846968000289,798.3949096000288,798.3782005000394,798.9603088999866,798.9603088999866,None,800.6557104999665,None,right,0.9293604000704363,800.6557104999665,None,801.6151443000417,None,left,0.6253906999481842,801.6151443000417,None,,,,,,,,,,,,,,,,,,,,,,,PPT44,001,2022-07-08_10h33.44.667,ABstudy,2022.1.4,59.96656262742534,
AB,Lag1_T1A_T2P,1,A,P,8,9,7,4,13,Christmas tree,Did you see the Christmas tree?,0.12,0.016,JPG\,broom01,globe,cellphone,tableknife02,cauliflower01,scissors01,ring01,alligator,stapler03a,toaster01,cigarette,grape01,microscope,blankImage,blankImage,blankImage,blankImage,windmill,,,,,,,,,,,,0,127,127,247,,,,,,,,,,,,,,,,,,,,,,,,,,,,,,,,,,,802.2723050999921,803.283461999963,803.2668397000525,803.8494346999796,803.8494346999796,None,805.4067253000103,None,right,1.1629529000492766,805.4067253000103,None,806.586764000007,None,right,0.45405300008133054,806.586764000007,None,,,,,,,,,,,,,,,,,,,,,,,PPT44,001,2022-07-08_10h33.44.667,ABstudy,2022.1.4,59.96656262742534,
AB,Lag1_T1A_T2P,1,A,P,5,6,4,3,9,Stool,Did you see the Stool?,0.12,0.016,JPG\,cherry01,cymbal,envelope03a,foosballtable,shirt02,stapler01,sewingmachine01a,candle08b,battery02b,blankImage,blankImage,blankImage,blankImage,blankImage,blankImage,blankImage,blankImage,hulahoop,,,,,,,,,,,,0,128,128,236,,,,,,,,,,,,,,,,,,,,,,,,,,,,,,,,,,,807.0757786000613,808.0882430999773,808.0715690000216,808.6698073999723,808.6698073999723,None,809.7323958000634,None,right,0.8368914999300614,809.7323958000634,None,810.5907517999876,None,left,0.2815859999973327,810.5907517999876,None,,,,,,,,,,,,,,,,,,,,,,,PPT44,001,2022-07-08_10h33.44.667,ABstudy,2022.1.4,59.96656262742534,
AB,Lag1_T1P_T2A,1,P,A,7,8,6,3,11,Armadillo,Did you see the Armadillo?,0.12,0.016,JPG\,clock01a,cellphone,toaster01,toothbrush03b,cauliflower01,microscope,armadillo,paintbrush01,scarf,clock04,sponge01,blankImage,blankImage,blankImage,blankImage,blankImage,blankImage,armadillo,,,,,,,,,,,,0,129,129,180,,,,,,,,,,,,,,,,,,,,,,,,,,,,,,,,,,,810.8961583999917,811.9086659000022,811.8921903000446,812.4772365000099,812.4772365000099,None,813.8781895999564,None,left,0.6833847000962123,813.8781895999564,None,814.5792945000576,None,right,0.4132218000013381,814.5792945000576,None,,,,,,,,,,,,,,,,,,,,,,,PPT44,001,2022-07-08_10h33.44.667,ABstudy,2022.1.4,59.96656262742534,
AB,Lag5_T1P_T2P,5,P,P,5,10,4,5,15,hockey puck,Did you see the hockey puck?,0.12,0.016,JPG\,chain01,pen04b,birthdaycandle,watermelon01,hockeypuck,scissors01,measuringcup01,candle01,hammer01,stapler06,ashtray01,feather03a,sewingmachine01a,thermometer02b,alligator,blankImage,blankImage,hockeypuck,,,,,,,,,,,,0,130,130,110,,,,,,,,,,,,,,,,,,,,,,,,,,,,,,,,,,,815.0160265000304,816.0293534999946,816.0126719999826,816.5923514000606,816.5923514000606,None,818.3317987000337,None,right,1.0698658999754116,818.3317987000337,None,819.4325822000392,None,right,0.6153074000030756,819.4325822000392,None,,,,,,,,,,,,,,,,,,,,,,,PPT44,001,2022-07-08_10h33.44.667,ABstudy,2022.1.4,59.96656262742534,
AB,Lag5_T1P_T2P,5,P,P,7,12,6,5,17,Badminton Racket,Did you see the Badminton Racket?,0.12,0.016,JPG\,paintbrush01,dice05a,watermelon01,broccoli01a,hammer01,leaf02a,badmintonracket,tennisball01b,lemon02,fan,lipstick02a,stapler04b,envelope03a,sponge01,foosballtable,orange,blankImage,badmintonracket,,,,,,,,,,,,0,131,131,163,,,,,,,,,,,,,,,,,,,,,,,,,,,,,,,,,,,820.0815064000199,821.0841575000668,821.0507958000526,821.6259348000167,821.6259348000167,None,823.6821368000237,None,left,0.5176729999948293,823.6821368000237,None,824.2211113000521,None,left,0.6194771999726072,824.2211113000521,None,,,,,,,,,,,,,,,,,,,,,,,PPT44,001,2022-07-08_10h33.44.667,ABstudy,2022.1.4,59.96656262742534,
AB,Lag1_T1P_T2A,1,P,A,5,6,4,4,10,paper airplane,Did you see the paper airplane?,0.12,0.016,JPG\,thermometer02b,avocado01,scissors01,tennisball01b,paperairplane,banana01,strawberry,cigarette,potato02b,pineapple01a,blankImage,blankImage,blankImage,blankImage,blankImage,blankImage,blankImage,paperairplane,,,,,,,,,,,,0,132,132,191,,,,,,,,,,,,,,,,,,,,,,,,,,,,,,,,,,,824.8737092000665,825.8889709999785,825.8555792999687,826.4679739000276,826.4679739000276,None,827.6677381000482,None,left,1.3488617999246344,827.6677381000482,None,829.0422034000512,None,right,0.5662300999974832,829.0422034000512,None,,,,,,,,,,,,,,,,,,,,,,,PPT44,001,2022-07-08_10h33.44.667,ABstudy,2022.1.4,59.96656262742534,
AB,Lag1_T1P_T2A,1,P,A,6,7,5,5,12,Barn,Did you see the Barn?,0.12,0.016,JPG\,celery,pencil01,fan,foosballtable,iron01b,barn,potato02b,fork03c,button01,pineapple01a,baseball01a,printer02,blankImage,blankImage,blankImage,blankImage,blankImage,barn,,,,,,,,,,,,0,133,133,181,,,,,,,,,,,,,,,,,,,,,,,,,,,,,,,,,,,829.6285185000161,830.6438582000555,830.6104694000678,831.2123291000025,831.2123291000025,None,832.7033349999692,None,left,0.9606459001079202,832.7033349999692,None,833.6804158999585,None,right,0.7289501999039203,833.6804158999585,None,,,,,,,,,,,,,,,,,,,,,,,PPT44,001,2022-07-08_10h33.44.667,ABstudy,2022.1.4,59.96656262742534,
AB,Lag1_T1A_T2A,1,A,A,8,9,7,3,12,punching bag,Did you see the punching bag?,0.12,0.016,JPG\,key01,apple07,ring01,leaf02a,hammer01,tableknife02,violin,sponge01,baseball01a,thermometer02b,celery,calculator01,blankImage,blankImage,blankImage,blankImage,blankImage,bathtub,,,,,,,,,,,,0,134,134,291,,,,,,,,,,,,,,,,,,,,,,,,,,,,,,,,,,,834.4377733999863,835.4488798000384,835.4321322999895,836.0178940000478,836.0178940000478,None,837.4506724000676,None,right,1.2614514998858795,837.4506724000676,None,838.7351982999826,None,left,0.3617915000068024,838.7351982999826,None,,,,,,,,,,,,,,,,,,,,,,,PPT44,001,2022-07-08_10h33.44.667,ABstudy,2022.1.4,59.96656262742534,
AB,Lag5_T1P_T2P,5,P,P,5,10,4,5,15,Bee,Did you see the Bee?,0.12,0.016,JPG\,fork03c,dandelion,dice05a,belt02a,honeybee,watch02a,key01,globe,eraser,stapler03a,greenolive,shirt02,candle08b,cigarette,garlic01a,blankImage,blankImage,honeybee,,,,,,,,,,,,0,135,135,149,,,,,,,,,,,,,,,,,,,,,,,,,,,,,,,,,,,839.1216992000118,840.136643200065,840.1032449000049,840.6808593999594,840.6808593999594,None,842.543250799994,None,left,0.38461730000562966,842.543250799994,None,842.9578218000242,None,left,0.3385833000065759,842.9578218000242,None,,,,,,,,,,,,,,,,,,,,,,,PPT44,001,2022-07-08_10h33.44.667,ABstudy,2022.1.4,59.96656262742534,
AB,Lag1_T1A_T2P,1,A,P,6,7,5,3,10,Jellyfish,Did you see the Jellyfish?,0.12,0.016,JPG\,thermometer02b,avocado01,scissors01,tennisball01b,medal02b,banana01,stapler01,cigarette,potato02b,pineapple01a,blankImage,blankImage,blankImage,blankImage,blankImage,blankImage,blankImage,firehydrant,,,,,,,,,,,,0,136,136,255,,,,,,,,,,,,,,,,,,,,,,,,,,,,,,,,,,,843.3347797000315,844.3411006999668,844.3239914999576,844.8921732000308,844.8921732000308,None,846.1562682000222,None,right,0.9159234999679029,846.1562682000222,None,847.0938269000035,None,left,0.39554210007190704,847.0938269000035,None,,,,,,,,,,,,,,,,,,,,,,,PPT44,001,2022-07-08_10h33.44.667,ABstudy,2022.1.4,59.96656262742534,
