TrialType,CondType,Lag,T1_PA,T2_PA,T1Loc,T2Loc,PreDistractor,PostDistractor,TotalImg,cueWord,T1cue,StimLength,isi,PicFolder,Img1,Img2,Img3,Img4,Img5,Img6,Img7,Img8,Img9,Img10,Img11,Img12,Img13,Img14,Img15,Img16,Img17,T1_Identity,ImageType,T1PA,T2PA,Picture,Image,FullPathName,FilePath,Practice_Trials.thisRepN,Practice_Trials.thisTrialN,Practice_Trials.thisN,Practice_Trials.thisIndex,trials.thisRepN,trials.thisTrialN,trials.thisN,trials.thisIndex,trials_2.thisRepN,trials_2.thisTrialN,trials_2.thisN,trials_2.thisIndex,Practice_Ins.started,Practice_Ins.stopped,End_Prac_Ins.keys,End_Prac_Ins.rt,End_Prac_Ins.started,End_Prac_Ins.stopped,text_2.started,text_2.stopped,Fixation_Cross_2.started,Fixation_Cross_2.stopped,Rapid_Image_Present_2.started,Rapid_Image_Present_2.stopped,key_resp.keys,key_resp.rt,key_resp.started,key_resp.stopped,T1Response_2.started,T1Response_2.stopped,T2Response_2.started,T2Response_2.stopped,key_resp_4.keys,key_resp_4.rt,key_resp_4.started,key_resp_4.stopped,text.started,text.stopped,End_Instructions.keys,End_Instructions.rt,End_Instructions.started,End_Instructions.stopped,text_5.started,text_5.stopped,FC.started,FC.stopped,Rapid_Image_Present.started,Rapid_Image_Present.stopped,T1Response.started,T1Response.stopped,key_resp_2.keys,key_resp_2.rt,key_resp_2.started,key_resp_2.stopped,T2Response.started,T2Response.stopped,key_resp_3.keys,key_resp_3.rt,key_resp_3.started,key_resp_3.stopped,text_6.started,text_6.stopped,Fin_ins.keys,Fin_ins.rt,Fin_ins.started,Fin_ins.stopped,MemTest.started,MemTest.stopped,MemResponse.keys,MemResponse.rt,MemResponse.started,MemResponse.stopped,Display.started,Display.stopped,text_7.started,text_7.stopped,endOfExperiment.started,endOfExperiment.stopped,key_resp_5.keys,key_resp_5.rt,key_resp_5.started,key_resp_5.stopped,participant,session,date,expName,psychopyVersion,frameRate,
,,,,,,,,,,,,,,,,,,,,,,,,,,,,,,,,,,,,,,,,,,,,,,,,,,,,13.013140399940312,None,space,56.48854220006615,13.013140399940312,None,,,,,,,,,,,,,,,,,,,,,,,,,,,,,,,,,,,,,,,,,,,,,,,,,,,,,,,,,,,,,,,,,PPT45,001,2022-07-08_12h30.50.761,ABstudy,2022.1.4,60.175640638268504,
AB_Prac,Lag1_T1P_T2A,1,P,A,5,6,4,5,11,Webcam,Did you see the Webcam?,0.5,0.016,JPG\,pictureframe04,binder03b,straw,adjustablewrench01b,webcam,cane,hairdryer02a,icepack,kitchenscale01a,lifejacket,piggybank,blankImage,blankImage,blankImage,blankImage,blankImage,blankImage,webcam,,,,,,,,0,0,0,6,,,,,,,,,,,,,,,69.59644430002663,70.59684000001289,70.58010000002105,71.20409769995604,71.20409769995604,None,left,0.8965587000129744,76.75090260000434,None,76.75090260000434,None,77.67070030001923,None,right,1.5752708000363782,77.67070030001923,None,,,,,,,,,,,,,,,,,,,,,,,,,,,,,,,,,,,,,,,,,,,,,,,PPT45,001,2022-07-08_12h30.50.761,ABstudy,2022.1.4,60.175640638268504,
AB_Prac,Lag1_T1A_T2A,1,A,A,8,9,7,3,12,Moose,Did you see the Moose?,0.5,0.016,JPG\,clothespin03b,corkscrew03a,drillbit03a,fusilli03a,needlenosepliers01,perfume01a,pistachio,scrubbingbrush05b,spatula03,toothpastetube,hinge,toydinosaur,blankImage,blankImage,blankImage,blankImage,blankImage,None,,,,,,,,0,1,1,10,,,,,,,,,,,,,,,79.3398378000129,80.33965550002176,80.32293809996918,80.8964007999748,80.8964007999748,None,right,1.3700051999185234,86.95575490000192,None,86.95575490000192,None,88.34826699993573,None,right,2.281162600032985,88.34826699993573,None,,,,,,,,,,,,,,,,,,,,,,,,,,,,,,,,,,,,,,,,,,,,,,,PPT45,001,2022-07-08_12h30.50.761,ABstudy,2022.1.4,60.175640638268504,
AB_Prac,Lag1_T1P_T2P,1,P,P,8,9,7,5,14,Tennis racket,Did you see the Tennis racket?,0.5,0.016,JPG\,coconut,computermouse06,croissant01,deodorant02a,pillow01a,peanut01,boot02b,tennisracket,stapler03b,crayon,eggplant,marker01a,plant01,radish01,blankImage,blankImage,blankImage,tennisracket,,,,,,,,0,2,2,0,,,,,,,,,,,,,,,90.6523809999926,91.6513077999698,91.63472139998339,92.22415549994912,92.22415549994912,None,left,1.1788031000178307,99.26692099997308,None,99.26692099997308,None,100.47674720000941,None,right,0.760574399959296,100.47674720000941,None,,,,,,,,,,,,,,,,,,,,,,,,,,,,,,,,,,,,,,,,,,,,,,,PPT45,001,2022-07-08_12h30.50.761,ABstudy,2022.1.4,60.175640638268504,
AB_Prac,Lag1_T1P_T2P,1,P,P,6,7,5,5,12,triangle,Did you see the triangle?,0.5,0.016,JPG\,ginger,mousetrap,plum01,slipper01b,dropper01,triangle,stapler04b,pants,raspberry01,rope03,scale01a,vase01,blankImage,blankImage,blankImage,blankImage,blankImage,triangle,,,,,,,,0,3,3,1,,,,,,,,,,,,,,,101.2737454000162,102.27862599992659,102.26200529991183,102.83766409999225,102.83766409999225,None,left,1.29629319999367,108.90178019995801,None,108.90178019995801,None,110.21954259998165,None,left,2.3867411999963224,110.21954259998165,None,,,,,,,,,,,,,,,,,,,,,,,,,,,,,,,,,,,,,,,,,,,,,,,PPT45,001,2022-07-08_12h30.50.761,ABstudy,2022.1.4,60.175640638268504,
AB_Prac,Lag5_T1P_T2P,5,P,P,7,12,6,3,15,vacuum,Did you see the vacuum?,0.5,0.016,JPG\,fork07b,lightbulb01,manshoe,saw02b,shoelace,soap03a,vacuumcleaner01,floortile01,necklace,doll,cabbage,stapler03a,hanger02a,laptop01a,nailpolish03b,blankImage,blankImage,vacuumcleaner01,,,,,,,,0,4,4,2,,,,,,,,,,,,,,,112.64556289999746,113.65652129997034,113.63974989997223,114.23095070000272,114.23095070000272,None,left,0.878395100007765,121.79926549992524,None,121.79926549992524,None,122.69904580002185,None,left,0.8348610000684857,122.69904580002185,None,,,,,,,,,,,,,,,,,,,,,,,,,,,,,,,,,,,,,,,,,,,,,,,PPT45,001,2022-07-08_12h30.50.761,ABstudy,2022.1.4,60.175640638268504,
AB_Prac,Lag5_T1P_T2P,5,P,P,5,10,4,5,15,Vulture,Did you see the Vulture?,0.5,0.016,JPG\,shorts01,toast,ramekin01,bib,vulture,cracker02,date,glasses01a,hat03b,stapler01,measuringtape01,nail,pill,drum01,starfish01,blankImage,blankImage,vulture,,,,,,,,0,5,5,3,,,,,,,,,,,,,,,123.5751785999164,124.58398350002244,124.56743940000888,125.14751319994684,125.14751319994684,None,left,0.6497934999642894,132.6438502999954,None,132.6438502999954,None,133.32597819995135,None,left,0.9113479000516236,133.32597819995135,None,,,,,,,,,,,,,,,,,,,,,,,,,,,,,,,,,,,,,,,,,,,,,,,PPT45,001,2022-07-08_12h30.50.761,ABstudy,2022.1.4,60.175640638268504,
AB_Prac,Lag5_T1A_T2A,5,A,A,6,11,5,5,16,castle,Did you see the castle?,0.5,0.016,JPG\,tape02a,englishmuffin,flask,ladle02a,monitor,peach01,keychain,squeegee01b,telephone01b,whisk,walkman,syringe02,baguette01,coaster,box01a,coffeepot03a,blankImage,None,,,,,,,,0,6,6,11,,,,,,,,,,,,,,,134.2637799999211,135.2778476999374,135.2445290000178,135.83981049992144,135.83981049992144,None,right,1.2975757999811321,143.8437742999522,None,143.8437742999522,None,145.1712715999456,None,right,0.7067530000349507,145.1712715999456,None,,,,,,,,,,,,,,,,,,,,,,,,,,,,,,,,,,,,,,,,,,,,,,,PPT45,001,2022-07-08_12h30.50.761,ABstudy,2022.1.4,60.175640638268504,
AB_Prac,Lag5_T1P_T2P,5,P,P,5,10,4,5,15,washing machine,Did you see the washing machine?,0.5,0.016,JPG\,waterbottle03,wheel01,flashlight02b,zucchini01,washingmachine,headphones02b,nutcracker01,paintroller01,paperclip03,stapler06,ribbon04,electricrazor,bottleofredwine01,pitabread,pot02a,blankImage,blankImage,washingmachine,,,,,,,,0,7,7,4,,,,,,,,,,,,,,,145.9117887999164,146.9229059999343,146.90640360000543,147.50791089993436,147.50791089993436,None,left,1.4948670000303537,155.0393964999821,None,155.0393964999821,None,156.56568889995106,None,left,1.1371555000077933,156.56568889995106,None,,,,,,,,,,,,,,,,,,,,,,,,,,,,,,,,,,,,,,,,,,,,,,,PPT45,001,2022-07-08_12h30.50.761,ABstudy,2022.1.4,60.175640638268504,
AB_Prac,Lag1_T1P_T2A,1,P,A,8,9,7,5,14,flower,Did you see the flower?,0.5,0.016,JPG\,razor01,axe01,binder03b,bowl01,kettle01,lettuce,lime,plasticflower01b,mitten04,pencilcase01,plunger02,strawbasket01,toothpick02,wallet02a,blankImage,blankImage,blankImage,plasticflower01b,,,,,,,,0,8,8,5,,,,,,,,,,,,,,,157.73707949998789,158.75117399997544,158.73453559994232,159.3257208999712,159.3257208999712,None,left,0.7149013000307605,166.32250679994468,None,166.32250679994468,None,167.06024809996597,None,right,0.6171068999683484,167.06024809996597,None,,,,,,,,,,,,,,,,,,,,,,,,,,,,,,,,,,,,,,,,,,,,,,,PPT45,001,2022-07-08_12h30.50.761,ABstudy,2022.1.4,60.175640638268504,
AB_Prac,Lag5_T1P_T2A,5,P,A,6,11,5,5,16,bread,Did you see the bread?,0.5,0.016,JPG\,cleaver01,clipboard,dustpan,hikingshoe01,notebook03a,baguette01,playingcard,pliers02b,styrofoamcup,rollingpin01a,swimgoggles,wineglass01,fryingpan02a,safetypin,syringe01,thimble,blankImage,baguette01,,,,,,,,0,9,9,8,,,,,,,,,,,,,,,167.6978148999624,168.71136600000318,168.6945872999495,169.27749759994913,169.27749759994913,None,left,0.8105435000034049,177.28326980001293,None,177.28326980001293,None,178.12087560002692,None,right,0.5643884999444708,178.12087560002692,None,,,,,,,,,,,,,,,,,,,,,,,,,,,,,,,,,,,,,,,,,,,,,,,PPT45,001,2022-07-08_12h30.50.761,ABstudy,2022.1.4,60.175640638268504,
AB_Prac,Lag5_T1P_T2A,5,P,A,6,11,5,5,16,Wheat,Did you see the Wheat?,0.5,0.016,JPG\,bottleopener01,dentalfloss03b,cooler01,icecreamcone01a,paperclip01b,wheat,pencilsharpener02a,plasticbasket01a,toycar04,apricot,hairclip02,rock01a,honeydewmelon,antenna,blackberry,cardboardbox,blankImage,wheat,,,,,,,,0,10,10,7,,,,,,,,,,,,,,,178.70866549992934,179.72226589999627,179.70554679993074,180.28938370000105,180.28938370000105,None,left,0.8838514999952167,188.43319559993688,None,188.43319559993688,None,189.3483764999546,None,right,0.4177717000711709,189.3483764999546,None,,,,,,,,,,,,,,,,,,,,,,,,,,,,,,,,,,,,,,,,,,,,,,,PPT45,001,2022-07-08_12h30.50.761,ABstudy,2022.1.4,60.175640638268504,
AB_Prac,Lag5_T1A_T2P,5,A,P,6,11,5,3,14,dog,Did you see the dog?,0.5,0.016,JPG\,bucket01a,doorlock,cookiecutter,fireextinguisher01,gluestick,highlighter02b,sportbag,spraybottle01,suitcase,thread02,stapler05,walnut01c,icecubetray01a,vikingmask01b,blankImage,blankImage,blankImage,None,,,,,,,,0,11,11,9,,,,,,,,,,,,,,,189.80100779992063,190.816505099996,190.7831788000185,191.3776702999603,191.3776702999603,None,right,1.3229081999743357,198.554350099992,None,198.554350099992,None,199.90887679997832,None,left,0.4965075000654906,199.90887679997832,None,,,,,,,,,,,,,,,,,,,,,,,,,,,,,,,,,,,,,,,,,,,,,,,PPT45,001,2022-07-08_12h30.50.761,ABstudy,2022.1.4,60.175640638268504,
,,,,,,,,,,,,,,,,,,,,,,,,,,,,,,,,,,,,,,,,,,,,,,,,,,,,,,,,,,,,,,,,,,,,,,,,,,,,200.4263001999352,None,space,11.803016599966213,200.4263001999352,None,,,,,,,,,,,,,,,,,,,,,,,,,,,,,,,,,,,,,,,,,PPT45,001,2022-07-08_12h30.50.761,ABstudy,2022.1.4,60.175640638268504,
AB,Lag5_T1A_T2P,5,A,P,7,12,6,4,16,ear,Did you see the ear?,0.12,0.016,JPG\,candle01,shirt02,brick,orange,greenolive,toothbrush03b,pizza,thermometer02b,book01b,toiletpaper01a,sewingmachine01a,stapler01,candy,cymbal,potato02b,plate01b,blankImage,chair,,,,,,,,,,,,0,0,0,257,,,,,,,,,,,,,,,,,,,,,,,,,,,,,,,,,,,212.90258519991767,213.90611839992926,213.88948359992355,214.49313349998556,214.49313349998556,None,216.39257569995243,None,right,1.9488413999788463,216.39257569995243,None,218.36182250001002,None,left,0.947247099946253,218.36182250001002,None,,,,,,,,,,,,,,,,,,,,,,,PPT45,001,2022-07-08_12h30.50.761,ABstudy,2022.1.4,60.175640638268504,
AB,Lag1_T1P_T2A,1,P,A,6,7,5,5,12,Barn,Did you see the Barn?,0.12,0.016,JPG\,celery,pencil01,fan,foosballtable,iron01b,barn,potato02b,fork03c,button01,pineapple01a,baseball01a,printer02,blankImage,blankImage,blankImage,blankImage,blankImage,barn,,,,,,,,,,,,0,1,1,181,,,,,,,,,,,,,,,,,,,,,,,,,,,,,,,,,,,219.33622219995596,220.34612469992135,220.32931940001436,220.9301333000185,220.9301333000185,None,222.38526809995528,None,left,0.7481379000237212,222.38526809995528,None,223.16522899991833,None,right,0.6641806999687105,223.16522899991833,None,,,,,,,,,,,,,,,,,,,,,,,PPT45,001,2022-07-08_12h30.50.761,ABstudy,2022.1.4,60.175640638268504,
AB,Lag5_T1A_T2A,5,A,A,5,10,4,5,15,truck,Did you see the truck?,0.12,0.016,JPG\,pizza,printer02,medal02b,spoon01,grape01,lighter01,belt02a,watermelon01,celery,battery02b,screw02,comb02a,cauliflower01,lipstick02a,potato02b,blankImage,blankImage,postalmailbox01,,,,,,,,,,,,0,2,2,297,,,,,,,,,,,,,,,,,,,,,,,,,,,,,,,,,,,223.85155569994822,224.86697179998737,224.83366130001377,225.41925829998218,225.41925829998218,None,227.2777520000236,None,right,2.055414200061932,227.2777520000236,None,229.3560179999331,None,right,0.9290510000428185,229.3560179999331,None,,,,,,,,,,,,,,,,,,,,,,,PPT45,001,2022-07-08_12h30.50.761,ABstudy,2022.1.4,60.175640638268504,
AB,Lag1_T1P_T2P,1,P,P,7,8,6,3,11,harmonica,Did you see the harmonica?,0.12,0.016,JPG\,cucumber,ring01,lipstick02a,microscope,violin,garlic01a,harmonica,stapler03b,cherry01,sewingmachine01a,belt02a,blankImage,blankImage,blankImage,blankImage,blankImage,blankImage,harmonica,,,,,,,,,,,,0,3,3,43,,,,,,,,,,,,,,,,,,,,,,,,,,,,,,,,,,,230.3110694999341,231.32375879993197,231.30714649998117,231.8776112999767,231.8776112999767,None,233.2726369999582,None,left,0.8846530000446364,233.2726369999582,None,234.17685189994518,None,left,0.5010853999992833,234.17685189994518,None,,,,,,,,,,,,,,,,,,,,,,,PPT45,001,2022-07-08_12h30.50.761,ABstudy,2022.1.4,60.175640638268504,
AB,Lag1_T1P_T2P,1,P,P,8,9,7,3,12,Fire hydrant,Did you see the Fire hydrant?,0.12,0.016,JPG\,foosballtable,candy,envelope03a,microscope,pencil01,leaf02a,scissors01,firehydrant,stapler01,dandelion,pineapple01a,hammer01,blankImage,blankImage,blankImage,blankImage,blankImage,firehydrant,,,,,,,,,,,,0,4,4,83,,,,,,,,,,,,,,,,,,,,,,,,,,,,,,,,,,,234.7239221999189,235.72800859995186,235.71125629998278,236.21348599996418,236.21348599996418,None,237.7136680999538,None,left,0.8912417000392452,237.7136680999538,None,238.63075160002336,None,right,0.6625320999883115,238.63075160002336,None,,,,,,,,,,,,,,,,,,,,,,,PPT45,001,2022-07-08_12h30.50.761,ABstudy,2022.1.4,60.175640638268504,
AB,Lag5_T1A_T2P,5,A,P,5,10,4,5,15,Sushi,Did you see the Sushi?,0.12,0.016,JPG\,pineapple01a,leaf02a,grape01,toiletpaper01a,match,tennisball01b,spoon01,chain01,pig,stapler04b,ring01,lemon02,dice05a,pizza,potato02b,blankImage,blankImage,crown,,,,,,,,,,,,0,5,5,285,,,,,,,,,,,,,,,,,,,,,,,,,,,,,,,,,,,239.3464950999478,240.34917089994997,240.33248209999874,240.9208675000118,240.9208675000118,None,242.75336570001673,None,right,1.3556750999996439,242.75336570001673,None,244.1362686000066,None,left,1.3725409000180662,244.1362686000066,None,,,,,,,,,,,,,,,,,,,,,,,PPT45,001,2022-07-08_12h30.50.761,ABstudy,2022.1.4,60.175640638268504,
AB,Lag5_T1P_T2P,5,P,P,8,13,7,5,18,Ping pong Table,Did you see the Ping pong Table?,0.12,0.016,JPG\,shirt02,match,screw02,foosballtable,blueberry01,pineapple01a,sewingmachine01a,pingpongtable,button01,comb02a,dice05a,measuringcup01,stapler04b,printer02,carrot01,watermelon01,blankImage,pingpongtable,,,,,,,,,,,,0,6,6,152,,,,,,,,,,,,,,,,,,,,,,,,,,,,,,,,,,,245.5450185999507,246.55565549992025,246.53903859993443,247.13192049995996,247.13192049995996,None,249.11872919998132,None,left,0.822923699975945,249.11872919998132,None,249.96004729997367,None,left,0.9660415999824181,249.96004729997367,None,,,,,,,,,,,,,,,,,,,,,,,PPT45,001,2022-07-08_12h30.50.761,ABstudy,2022.1.4,60.175640638268504,
AB,Lag1_T1P_T2A,1,P,A,7,8,6,4,12,bird,Did you see the bird?,0.12,0.016,JPG\,speaker04,sewingmachine01a,eraser,violin,globe,belt02a,tern,cymbal,cd,greenolive,alligator,pear01,blankImage,blankImage,blankImage,blankImage,blankImage,tern,,,,,,,,,,,,0,7,7,177,,,,,,,,,,,,,,,,,,,,,,,,,,,,,,,,,,,250.94521319994237,251.96068219991866,251.92723419994581,252.51542249997146,252.51542249997146,None,254.01294439996127,None,left,0.9689622999867424,254.01294439996127,None,255.01399559993297,None,left,0.4148447000188753,255.01399559993297,None,,,,,,,,,,,,,,,,,,,,,,,PPT45,001,2022-07-08_12h30.50.761,ABstudy,2022.1.4,60.175640638268504,
AB,Lag5_T1P_T2P,5,P,P,6,11,5,5,16,sword,Did you see the sword?,0.12,0.016,JPG\,chain01,speaker04,avocado01,watermelon01,scarf,sword01,lamp04a,fork03c,toaster01,slipper03b,stapler03a,cucumber,teabag,ashtray01,computerkeyboard02,book01b,blankImage,sword01,,,,,,,,,,,,0,8,8,143,,,,,,,,,,,,,,,,,,,,,,,,,,,,,,,,,,,255.45433460001368,256.4654364999151,256.4486138999928,257.0397131999489,257.0397131999489,None,259.02312739996705,None,left,0.7984616999747232,259.02312739996705,None,259.852536899969,None,right,0.3209627999458462,259.852536899969,None,,,,,,,,,,,,,,,,,,,,,,,PPT45,001,2022-07-08_12h30.50.761,ABstudy,2022.1.4,60.175640638268504,
AB,Lag5_T1P_T2A,5,P,A,7,12,6,5,17,shoulder,Did you see the shoulder?,0.12,0.016,JPG\,battery02b,sunglasses04,pear01,tennisball01b,clock01a,speaker04,shoulder,spoon01,alligator,pineapple01a,avocado01,grape01,blueberry01,violin,strawberry,sock01a,blankImage,shoulder,,,,,,,,,,,,0,9,9,224,,,,,,,,,,,,,,,,,,,,,,,,,,,,,,,,,,,260.2104358000215,261.2202380999224,261.20357529993635,261.77876629994716,261.77876629994716,None,263.74387170001864,None,left,0.8534275999991223,263.74387170001864,None,264.62324669992086,None,right,0.3979861999396235,264.62324669992086,None,,,,,,,,,,,,,,,,,,,,,,,PPT45,001,2022-07-08_12h30.50.761,ABstudy,2022.1.4,60.175640638268504,
AB,Lag1_T1P_T2P,1,P,P,5,6,4,5,11,candy cane,Did you see the candy cane?,0.12,0.016,JPG\,shirt02,match,screw02,foosballtable,candycane01a,stapler04b,sewingmachine01a,watch02a,button01,comb02a,dice05a,blankImage,blankImage,blankImage,blankImage,blankImage,blankImage,candycane01a,,,,,,,,,,,,0,10,10,9,,,,,,,,,,,,,,,,,,,,,,,,,,,,,,,,,,,265.0438886999618,266.05828060000204,266.0416927000042,266.6877509999322,266.6023962999461,None,268.0235901999986,None,left,1.5414028000086546,268.0235901999986,None,269.5951735000126,None,left,0.40288670000154525,269.5951735000126,None,,,,,,,,,,,,,,,,,,,,,,,PPT45,001,2022-07-08_12h30.50.761,ABstudy,2022.1.4,60.175640638268504,
AB,Lag5_T1A_T2P,5,A,P,7,12,6,4,16,flower,Did you see the flower?,0.12,0.016,JPG\,printer02,envelope03a,potato02b,calculator01,tableknife02,cigarette,ashtray01,pig,broom01,greenolive,candle08b,stapler03a,strawberry,candle01,foosballtable,tennisball01b,blankImage,calendar,,,,,,,,,,,,0,11,11,282,,,,,,,,,,,,,,,,,,,,,,,,,,,,,,,,,,,270.0339101999998,271.04656799999066,271.02973479998764,271.6233839999186,271.6233839999186,None,273.63566299993545,None,right,0.9307543000904843,273.63566299993545,None,274.5845281999791,None,right,0.66077449999284,274.5845281999791,None,,,,,,,,,,,,,,,,,,,,,,,PPT45,001,2022-07-08_12h30.50.761,ABstudy,2022.1.4,60.175640638268504,
AB,Lag5_T1P_T2P,5,P,P,5,10,4,5,15,baseball bat,Did you see the baseball bat?,0.12,0.016,JPG\,pizza,printer02,medal02b,spoon01,baseballbat,lighter01,belt02a,watermelon01,celery,stapler04b,screw02,comb02a,cauliflower01,lipstick02a,potato02b,blankImage,blankImage,baseballbat,,,,,,,,,,,,0,12,12,123,,,,,,,,,,,,,,,,,,,,,,,,,,,,,,,,,,,275.269867099938,276.2852368999738,276.2517866999842,276.8416676999768,276.8416676999768,None,278.6463573999936,None,left,1.895064799929969,278.6463573999936,None,280.572580399923,None,left,1.992794799967669,280.572580399923,None,,,,,,,,,,,,,,,,,,,,,,,PPT45,001,2022-07-08_12h30.50.761,ABstudy,2022.1.4,60.175640638268504,
AB,Lag1_T1P_T2A,1,P,A,8,9,7,5,14,Sausage,Did you see the Sausage?,0.12,0.016,JPG\,pencil01,broccoli01a,button01,sponge01,watermelon01,lipstick02a,comb02a,sausage,lighter01,sock01a,spoon01,blueberry01,belt02a,onion,blankImage,blankImage,blankImage,sausage,,,,,,,,,,,,0,13,13,175,,,,,,,,,,,,,,,,,,,,,,,,,,,,,,,,,,,282.5940111000091,283.60888969991356,283.5754845999181,284.1419809999643,284.1419809999643,None,285.9333993999753,None,left,1.231798299937509,285.9333993999753,None,287.1960557999555,None,right,0.45025930006522685,287.1960557999555,None,,,,,,,,,,,,,,,,,,,,,,,PPT45,001,2022-07-08_12h30.50.761,ABstudy,2022.1.4,60.175640638268504,
AB,Lag1_T1P_T2P,1,P,P,8,9,7,4,13,Doughnut,Did you see the Doughnut?,0.12,0.016,JPG\,brick,eraser,cucumber,ashtray01,thermometer02b,binoculars01b,lipstick02a,donut,stapler01,brownsugar,battery02b,iron01b,dice05a,blankImage,blankImage,blankImage,blankImage,donut,,,,,,,,,,,,0,14,14,39,,,,,,,,,,,,,,,,,,,,,,,,,,,,,,,,,,,287.6677125999704,288.6811678999802,288.6640417999588,289.25812329992186,289.25812329992186,None,290.83198509993963,None,left,1.5734649000223726,290.83198509993963,None,292.434575799969,None,right,0.5303725999547169,292.434575799969,None,,,,,,,,,,,,,,,,,,,,,,,PPT45,001,2022-07-08_12h30.50.761,ABstudy,2022.1.4,60.175640638268504,
AB,Lag5_T1A_T2P,5,A,P,8,13,7,3,16,ladder,Did you see the ladder?,0.12,0.016,JPG\,apple07,toiletpaper01a,pizza,dandelion,greenolive,eraser,microscope,violin,orange,lipstick02a,balloon01b,sandal,stapler01,fan,book01b,sewingmachine01a,blankImage,ostrich,,,,,,,,,,,,0,15,15,269,,,,,,,,,,,,,,,,,,,,,,,,,,,,,,,,,,,292.9979412999237,294.0027836000081,293.96948470000643,294.5565911999438,294.5565911999438,None,296.5506737999385,None,right,1.1102149999933317,296.5506737999385,None,297.68949749995954,None,right,0.5552095000166446,297.68949749995954,None,,,,,,,,,,,,,,,,,,,,,,,PPT45,001,2022-07-08_12h30.50.761,ABstudy,2022.1.4,60.175640638268504,
AB,Lag1_T1A_T2P,1,A,P,5,6,4,3,9,Stool,Did you see the Stool?,0.12,0.016,JPG\,cherry01,cymbal,envelope03a,foosballtable,shirt02,stapler01,sewingmachine01a,candle08b,battery02b,blankImage,blankImage,blankImage,blankImage,blankImage,blankImage,blankImage,blankImage,hulahoop,,,,,,,,,,,,0,16,16,236,,,,,,,,,,,,,,,,,,,,,,,,,,,,,,,,,,,298.2766751999734,299.29131639993284,299.25807189999614,299.82372109999415,299.82372109999415,None,300.9475739999907,None,right,1.7697967999847606,300.9475739999907,None,302.7449111000169,None,right,1.7005382999777794,302.7449111000169,None,,,,,,,,,,,,,,,,,,,,,,,PPT45,001,2022-07-08_12h30.50.761,ABstudy,2022.1.4,60.175640638268504,
AB,Lag5_T1P_T2P,5,P,P,7,12,6,5,17,Pigeon,Did you see the Pigeon?,0.12,0.016,JPG\,strawberry,leaf02a,clock04,candle01,avocado01,paintbrush01,pigeon,brownsugar,ring01,lemon02,fork03c,stapler01,cauliflower01,tableknife02,tennisball01b,thermometer02b,blankImage,pigeon,,,,,,,,,,,,0,17,17,151,,,,,,,,,,,,,,,,,,,,,,,,,,,,,,,,,,,304.5190186999971,305.53081409994047,305.5141468999209,306.1033987000119,306.1033987000119,None,308.0148304000031,None,left,0.8621611999114975,308.0148304000031,None,308.9016148999799,None,left,0.5112051999894902,308.9016148999799,None,,,,,,,,,,,,,,,,,,,,,,,PPT45,001,2022-07-08_12h30.50.761,ABstudy,2022.1.4,60.175640638268504,
AB,Lag1_T1A_T2P,1,A,P,5,6,4,3,9,Crown,Did you see the Crown?,0.12,0.016,JPG\,leaf02a,pear01,measuringcup01,cigarette,fan,stapler04b,teabag,tableknife02,ring01,blankImage,blankImage,blankImage,blankImage,blankImage,blankImage,blankImage,blankImage,arrow02,,,,,,,,,,,,0,18,18,248,,,,,,,,,,,,,,,,,,,,,,,,,,,,,,,,,,,309.4436170000117,310.4523928000126,310.43588699994143,311.00063139991835,311.00063139991835,None,312.14819959993474,None,right,1.7292024000780657,312.14819959993474,None,313.90618619997986,None,left,0.4112835000269115,313.90618619997986,None,,,,,,,,,,,,,,,,,,,,,,,PPT45,001,2022-07-08_12h30.50.761,ABstudy,2022.1.4,60.175640638268504,
AB,Lag5_T1P_T2P,5,P,P,5,10,4,5,15,funnel,Did you see the funnel?,0.12,0.016,JPG\,pineapple01a,tennisball01b,computerkeyboard02,feather03a,funnel,acorn,violin,blueberry01,medal02b,stapler01,greenolive,screwdriver04b,potato02b,fork03c,cymbal,blankImage,blankImage,funnel,,,,,,,,,,,,0,19,19,109,,,,,,,,,,,,,,,,,,,,,,,,,,,,,,,,,,,314.34484739997424,315.35730039991904,315.34052119997796,315.935711099999,315.935711099999,None,317.66122619993985,None,left,0.7919917000690475,317.66122619993985,None,318.4772764999652,None,right,0.799848600057885,318.4772764999652,None,,,,,,,,,,,,,,,,,,,,,,,PPT45,001,2022-07-08_12h30.50.761,ABstudy,2022.1.4,60.175640638268504,
AB,Lag1_T1A_T2P,1,A,P,8,9,7,5,14,clock,Did you see the clock?,0.12,0.016,JPG\,speaker04,sewingmachine01a,eraser,violin,globe,belt02a,sunglasses04,cymbal,stapler01,greenolive,alligator,pear01,watch02a,screwdriver04b,blankImage,blankImage,blankImage,peacock,,,,,,,,,,,,0,20,20,240,,,,,,,,,,,,,,,,,,,,,,,,,,,,,,,,,,,319.3002601999324,320.3123349000234,320.29565079999156,320.87345039995853,320.87345039995853,None,322.55182589998003,None,left,1.6528228999814019,322.55182589998003,None,324.2326094999444,None,left,0.4601804999401793,324.2326094999444,None,,,,,,,,,,,,,,,,,,,,,,,PPT45,001,2022-07-08_12h30.50.761,ABstudy,2022.1.4,60.175640638268504,
AB,Lag1_T1P_T2A,1,P,A,7,8,6,4,12,Steering wheel,Did you see the Steering wheel?,0.12,0.016,JPG\,alligator,banana01,apple07,tomato01,button01,spoon01,steeringwheel,fork03c,canoftennisballs,potato02b,grape01,leaf02a,blankImage,blankImage,blankImage,blankImage,blankImage,steeringwheel,,,,,,,,,,,,0,21,21,198,,,,,,,,,,,,,,,,,,,,,,,,,,,,,,,,,,,324.7201957999496,325.7340613999404,325.71765539993066,326.2181407000171,326.2181407000171,None,327.7837349999463,None,left,1.13279419997707,327.7837349999463,None,328.93795209995005,None,left,0.3396980999968946,328.93795209995005,None,,,,,,,,,,,,,,,,,,,,,,,PPT45,001,2022-07-08_12h30.50.761,ABstudy,2022.1.4,60.175640638268504,
AB,Lag1_T1A_T2A,1,A,A,7,8,6,5,13,Poker chips,Did you see the Poker chips?,0.12,0.016,JPG\,violin,pizza,toothbrush03b,pineapple01a,banana01,ashtray01,candy,dandelion,clock04,sock01a,microscope,speaker04,calculator01,blankImage,blankImage,blankImage,blankImage,cigar,,,,,,,,,,,,0,22,22,289,,,,,,,,,,,,,,,,,,,,,,,,,,,,,,,,,,,329.3104655999923,330.3222406000132,330.30541779997293,330.89800159994047,330.89800159994047,None,332.43007469992153,None,right,1.1284053000854328,332.43007469992153,None,333.5753027999308,None,right,0.5412296999711543,333.5753027999308,None,,,,,,,,,,,,,,,,,,,,,,,PPT45,001,2022-07-08_12h30.50.761,ABstudy,2022.1.4,60.175640638268504,
AB,Lag1_T1P_T2A,1,P,A,5,6,4,4,10,paper airplane,Did you see the paper airplane?,0.12,0.016,JPG\,thermometer02b,avocado01,scissors01,tennisball01b,paperairplane,banana01,strawberry,cigarette,potato02b,pineapple01a,blankImage,blankImage,blankImage,blankImage,blankImage,blankImage,blankImage,paperairplane,,,,,,,,,,,,0,23,23,191,,,,,,,,,,,,,,,,,,,,,,,,,,,,,,,,,,,334.1473420999246,335.1602229999844,335.1435904999962,335.7270594999427,335.7270594999427,None,337.0599256999558,None,left,0.7372354000108317,337.0599256999558,None,337.8299023999134,None,right,0.6000943999970332,337.8299023999134,None,,,,,,,,,,,,,,,,,,,,,,,PPT45,001,2022-07-08_12h30.50.761,ABstudy,2022.1.4,60.175640638268504,
AB,Lag5_T1P_T2P,5,P,P,6,11,5,4,15,sword,Did you see the sword?,0.12,0.016,JPG\,8ball,banana01,scissors01,pig,shirt02,broadsword,pear01,sponge01,fork03c,tableknife02,stapler06,match,toothbrush03b,birthdaycandle,candle01,blankImage,blankImage,broadsword,,,,,,,,,,,,0,24,24,167,,,,,,,,,,,,,,,,,,,,,,,,,,,,,,,,,,,338.4527216999559,339.4646954999771,339.4478461999679,340.0469313999638,340.0469313999638,None,341.8568764999509,None,right,0.9883768999716267,341.8568764999509,None,342.869153299951,None,right,0.727743300027214,342.869153299951,None,,,,,,,,,,,,,,,,,,,,,,,PPT45,001,2022-07-08_12h30.50.761,ABstudy,2022.1.4,60.175640638268504,
AB,Lag1_T1P_T2P,1,P,P,7,8,6,3,11,locker,Did you see the locker?,0.12,0.016,JPG\,toiletpaper01a,lipstick02a,potato02b,speaker04,globe,strawberry,locker,stapler04b,sock01a,candle08b,pen04b,blankImage,blankImage,blankImage,blankImage,blankImage,blankImage,locker,,,,,,,,,,,,0,25,25,19,,,,,,,,,,,,,,,,,,,,,,,,,,,,,,,,,,,343.62746420002077,344.6360696000047,344.61943079996854,345.2342142999405,345.2342142999405,None,346.54059480002616,None,left,0.7444392999168485,346.54059480002616,None,347.305603899993,None,right,0.4195037999888882,347.305603899993,None,,,,,,,,,,,,,,,,,,,,,,,PPT45,001,2022-07-08_12h30.50.761,ABstudy,2022.1.4,60.175640638268504,
AB,Lag5_T1P_T2P,5,P,P,7,12,6,5,17,elbow,Did you see the elbow?,0.12,0.016,JPG\,candle01,fork03c,plate01b,violin,computerkeyboard02,candy,elbow,paintbrush01,cherry01,sock01a,teabag,stapler01,cd,lighter01,book01b,tennisball01b,blankImage,elbow,,,,,,,,,,,,0,26,26,87,,,,,,,,,,,,,,,,,,,,,,,,,,,,,,,,,,,347.7582572000101,348.77369559998624,348.74034859996755,349.3072749999119,349.3072749999119,None,351.277690900024,None,left,0.8789534999523312,351.277690900024,None,352.17708199995104,None,right,0.8526710000587627,352.17708199995104,None,,,,,,,,,,,,,,,,,,,,,,,PPT45,001,2022-07-08_12h30.50.761,ABstudy,2022.1.4,60.175640638268504,
AB,Lag5_T1P_T2P,5,P,P,8,13,7,5,18,hand,Did you see the hand?,0.12,0.016,JPG\,foosballtable,candy,envelope03a,microscope,pencil01,leaf02a,scissors01,hand01b,grape01,dandelion,pineapple01a,hammer01,stapler03a,thermometer02b,ring01,sewingmachine01a,blankImage,hand01b,,,,,,,,,,,,0,27,27,131,,,,,,,,,,,,,,,,,,,,,,,,,,,,,,,,,,,353.0635704000015,354.0789993000217,354.04568079998717,354.5483085999731,354.5483085999731,None,356.5537542999955,None,left,0.4429571999935433,356.5537542999955,None,357.01736399997026,None,left,0.5080978999612853,357.01736399997026,None,,,,,,,,,,,,,,,,,,,,,,,PPT45,001,2022-07-08_12h30.50.761,ABstudy,2022.1.4,60.175640638268504,
AB,Lag1_T1P_T2P,1,P,P,5,6,4,5,11,Basketball,Did you see the Basketball?,0.12,0.016,JPG\,pencil01,microscope,banana01,computerkeyboard02,basketball01,stapler04b,scissors01,sock01a,book01b,onion,dice05a,blankImage,blankImage,blankImage,blankImage,blankImage,blankImage,basketball01,,,,,,,,,,,,0,28,28,34,,,,,,,,,,,,,,,,,,,,,,,,,,,,,,,,,,,357.55553010001313,358.5669177999953,358.55074079998303,359.11336359998677,359.11336359998677,None,360.5166561999358,None,left,1.224501800024882,360.5166561999358,None,361.76996840001084,None,left,0.8187638999661431,361.76996840001084,None,,,,,,,,,,,,,,,,,,,,,,,PPT45,001,2022-07-08_12h30.50.761,ABstudy,2022.1.4,60.175640638268504,
AB,Lag1_T1P_T2A,1,P,A,7,8,6,4,12,gate,Did you see the gate?,0.12,0.016,JPG\,pen04b,speaker04,lighter01,cherry01,pintofbeer,onion,entrancegate,toothbrush03b,broom01,sewingmachine01a,book01b,iron01b,blankImage,blankImage,blankImage,blankImage,blankImage,entrancegate,,,,,,,,,,,,0,29,29,187,,,,,,,,,,,,,,,,,,,,,,,,,,,,,,,,,,,362.62301959993783,363.63852299994323,363.60513639997225,364.1913379000034,364.1913379000034,None,365.6640448999824,None,left,1.3889160000253469,365.6640448999824,None,367.07509049994405,None,right,0.36190829996485263,367.07509049994405,None,,,,,,,,,,,,,,,,,,,,,,,PPT45,001,2022-07-08_12h30.50.761,ABstudy,2022.1.4,60.175640638268504,
AB,Lag1_T1P_T2P,1,P,P,8,9,7,4,13,bowling ball,Did you see the bowling ball?,0.12,0.016,JPG\,dandelion,pineapple01a,broom01,pen04b,sock01a,sandal,foosballtable,bowlingball,stapler01,toothbrush03b,celery,candle08b,tennisball01b,blankImage,blankImage,blankImage,blankImage,bowlingball,,,,,,,,,,,,0,30,30,7,,,,,,,,,,,,,,,,,,,,,,,,,,,,,,,,,,,367.4610452000052,368.4764883000171,368.4431889000116,368.9440687999595,368.9440687999595,None,370.6837499999674,None,left,1.2173446000088006,370.6837499999674,None,371.9300557000097,None,left,0.6518977000378072,371.9300557000097,None,,,,,,,,,,,,,,,,,,,,,,,PPT45,001,2022-07-08_12h30.50.761,ABstudy,2022.1.4,60.175640638268504,
AB,Lag1_T1A_T2A,1,A,A,8,9,7,3,12,punching bag,Did you see the punching bag?,0.12,0.016,JPG\,key01,apple07,ring01,leaf02a,hammer01,tableknife02,violin,sponge01,baseball01a,thermometer02b,celery,calculator01,blankImage,blankImage,blankImage,blankImage,blankImage,bathtub,,,,,,,,,,,,0,31,31,291,,,,,,,,,,,,,,,,,,,,,,,,,,,,,,,,,,,372.6173344999552,373.63179010001477,373.61507930001244,374.24486899992917,374.1744381999597,None,375.6369455999229,None,right,0.7997782999882475,375.6369455999229,None,376.4681875000242,None,right,0.5522641999414191,376.4681875000242,None,,,,,,,,,,,,,,,,,,,,,,,PPT45,001,2022-07-08_12h30.50.761,ABstudy,2022.1.4,60.175640638268504,
AB,Lag5_T1P_T2P,5,P,P,5,10,4,5,15,penguin,Did you see the penguin?,0.12,0.016,JPG\,watermelon01,cigarette,pintofbeer,cymbal,penguin,feather03a,cherry01,broom01,battery02b,stapler05,baseball01a,iron01b,garlic01a,computerkeyboard02,pig,blankImage,blankImage,penguin,,,,,,,,,,,,0,32,32,137,,,,,,,,,,,,,,,,,,,,,,,,,,,,,,,,,,,377.0563429999165,378.0698298999341,378.0530957999872,378.6297219999833,378.6297219999833,None,380.37352299992926,None,left,0.7685103000840172,380.37352299992926,None,381.1726440999191,None,right,0.504243699950166,381.1726440999191,None,,,,,,,,,,,,,,,,,,,,,,,PPT45,001,2022-07-08_12h30.50.761,ABstudy,2022.1.4,60.175640638268504,
AB,Lag1_T1P_T2P,1,P,P,5,6,4,3,9,hockey stick,Did you see the hockey stick?,0.12,0.016,JPG\,violin,pizza,toothbrush03b,pineapple01a,hockeystick,stapler03b,candy,dandelion,clock04,blankImage,blankImage,blankImage,blankImage,blankImage,blankImage,blankImage,blankImage,hockeystick,,,,,,,,,,,,0,33,33,63,,,,,,,,,,,,,,,,,,,,,,,,,,,,,,,,,,,381.70879379997496,382.7241911999881,382.69081159995403,383.2662306999555,383.2662306999555,None,384.4106953999726,None,left,1.394064399995841,384.4106953999726,None,385.8272649999708,None,left,0.570351600064896,385.8272649999708,None,,,,,,,,,,,,,,,,,,,,,,,PPT45,001,2022-07-08_12h30.50.761,ABstudy,2022.1.4,60.175640638268504,
AB,Lag5_T1P_T2P,5,P,P,6,11,5,4,15,shower,Did you see the shower?,0.12,0.016,JPG\,dice05a,watch02a,pig,lighter01,button01,shower,paintbrush01,microscope,plate01b,pen04b,stapler05,weight04a,carrot01,shirt02,globe,blankImage,blankImage,shower,,,,,,,,,,,,0,34,34,121,,,,,,,,,,,,,,,,,,,,,,,,,,,,,,,,,,,386.4305213999469,387.44556929997634,387.4121550999116,387.986914100009,387.986914100009,None,389.83533679996617,None,right,1.250069300062023,389.83533679996617,None,391.1160953999497,None,left,0.5451327000046149,391.1160953999497,None,,,,,,,,,,,,,,,,,,,,,,,PPT45,001,2022-07-08_12h30.50.761,ABstudy,2022.1.4,60.175640638268504,
AB,Lag1_T1P_T2A,1,P,A,6,7,5,5,12,Tombstone,Did you see the Tombstone?,0.12,0.016,JPG\,cigarette,ashtray01,envelope03a,sandal,chain01,tombstone,broccoli01a,tomato01,dandelion,candle01,lemon02,button01,blankImage,blankImage,blankImage,blankImage,blankImage,tombstone,,,,,,,,,,,,0,35,35,196,,,,,,,,,,,,,,,,,,,,,,,,,,,,,,,,,,,391.6871095999377,392.7010316000087,392.68440369993914,393.262694099918,393.262694099918,None,394.71768320002593,None,left,0.8069662000052631,394.71768320002593,None,395.55397230002563,None,right,0.6184450999135152,395.55397230002563,None,,,,,,,,,,,,,,,,,,,,,,,PPT45,001,2022-07-08_12h30.50.761,ABstudy,2022.1.4,60.175640638268504,
AB,Lag1_T1P_T2P,1,P,P,8,9,7,5,14,finger print,Did you see the finger print?,0.12,0.016,JPG\,chain01,pen04b,birthdaycandle,watermelon01,broom01,scissors01,measuringcup01,fingerprint,stapler01,calculator01,ashtray01,feather03a,sewingmachine01a,thermometer02b,blankImage,blankImage,blankImage,fingerprint,,,,,,,,,,,,0,36,36,62,,,,,,,,,,,,,,,,,,,,,,,,,,,,,,,,,,,396.271991699934,397.2725088999141,397.2564585999353,397.8485688000219,397.8485688000219,None,399.46475719998125,None,left,2.3239252000348642,399.46475719998125,None,401.81025639991276,None,right,0.6183747999602929,401.81025639991276,None,,,,,,,,,,,,,,,,,,,,,,,PPT45,001,2022-07-08_12h30.50.761,ABstudy,2022.1.4,60.175640638268504,
AB,Lag1_T1P_T2P,1,P,P,6,7,5,3,10,fortune cookie,Did you see the fortune cookie?,0.12,0.016,JPG\,scissors01,grape01,mushroom01,toiletpaper01a,greenolive,fortunecookie,stapler03b,ashtray01,carrot01,pineapple01a,blankImage,blankImage,blankImage,blankImage,blankImage,blankImage,blankImage,fortunecookie,,,,,,,,,,,,0,37,37,42,,,,,,,,,,,,,,,,,,,,,,,,,,,,,,,,,,,402.4670324999606,403.47840109991375,403.46177539997734,404.02235769992694,404.02235769992694,None,405.28211089991964,None,left,0.9546712000155821,405.28211089991964,None,406.2648891999852,None,right,0.8449545999756083,406.2648891999852,None,,,,,,,,,,,,,,,,,,,,,,,PPT45,001,2022-07-08_12h30.50.761,ABstudy,2022.1.4,60.175640638268504,
AB,Lag1_T1P_T2P,1,P,P,8,9,7,3,12,Wheelchair,Did you see the Wheelchair?,0.12,0.016,JPG\,cigarette,pig,banana01,strawberry,clock01a,plate01b,spoon01,wheelchair,stapler03b,pineapple01a,chain01,paintbrush01,blankImage,blankImage,blankImage,blankImage,blankImage,wheelchair,,,,,,,,,,,,0,38,38,27,,,,,,,,,,,,,,,,,,,,,,,,,,,,,,,,,,,407.13844849995803,408.1498035999248,408.13315100001637,408.70183489995543,408.70183489995543,None,410.1362907999428,None,left,2.236417100066319,410.1362907999428,None,412.40411479992326,None,right,0.5608291999669746,412.40411479992326,None,,,,,,,,,,,,,,,,,,,,,,,PPT45,001,2022-07-08_12h30.50.761,ABstudy,2022.1.4,60.175640638268504,
AB,Lag1_T1P_T2P,1,P,P,7,8,6,5,13,horse,Did you see the horse?,0.12,0.016,JPG\,watermelon01,pencil01,microscope,blueberry01,computerkeyboard02,lamp04a,horse,stapler03b,sock01a,key01,binoculars01b,cauliflower01,ashtray01,blankImage,blankImage,blankImage,blankImage,horse,,,,,,,,,,,,0,39,39,3,,,,,,,,,,,,,,,,,,,,,,,,,,,,,,,,,,,412.990333499969,414.005673800013,413.9722722999286,414.59896939992905,414.59896939992905,None,416.1257696999237,None,left,0.7841789000667632,416.1257696999237,None,416.94163899996784,None,left,0.3518448999384418,416.94163899996784,None,,,,,,,,,,,,,,,,,,,,,,,PPT45,001,2022-07-08_12h30.50.761,ABstudy,2022.1.4,60.175640638268504,
AB,Lag1_T1P_T2P,1,P,P,8,9,7,3,12,Sheep,Did you see the Sheep?,0.12,0.016,JPG\,celery,orange,scissors01,balloon01b,avocado01,printer02,mushroom01,sheep,stapler03b,dice05a,ashtray01,fan,blankImage,blankImage,blankImage,blankImage,blankImage,sheep,,,,,,,,,,,,0,40,40,71,,,,,,,,,,,,,,,,,,,,,,,,,,,,,,,,,,,417.33059829997364,418.3431584999198,418.32638779992703,418.91219860001,418.91219860001,None,420.3439066999126,None,left,0.7093252000631765,420.3439066999126,None,421.0793593999697,None,left,0.38997969997581095,421.0793593999697,None,,,,,,,,,,,,,,,,,,,,,,,PPT45,001,2022-07-08_12h30.50.761,ABstudy,2022.1.4,60.175640638268504,
AB,Lag1_T1A_T2P,1,A,P,7,8,6,5,13,Ant,Did you see the Ant?,0.12,0.016,JPG\,rice,watermelon01,tableknife02,scarf,computerkeyboard02,cauliflower01,battery02b,stapler03b,book01b,sandal,sponge01,microscope,tomato01,blankImage,blankImage,blankImage,blankImage,sandcastle,,,,,,,,,,,,0,41,41,242,,,,,,,,,,,,,,,,,,,,,,,,,,,,,,,,,,,421.5041930999141,422.5139202999417,422.497229999979,423.0844388999976,423.0844388999976,None,424.66789539996535,None,right,2.1691521999891847,424.66789539996535,None,426.8681793999858,None,right,0.8961998000741005,426.8681793999858,None,,,,,,,,,,,,,,,,,,,,,,,PPT45,001,2022-07-08_12h30.50.761,ABstudy,2022.1.4,60.175640638268504,
AB,Lag1_T1A_T2P,1,A,P,5,6,4,3,9,barrel,Did you see the barrel?,0.12,0.016,JPG\,clock01a,cellphone,toaster01,toothbrush03b,cauliflower01,stapler01,comb02a,paintbrush01,scarf,blankImage,blankImage,blankImage,blankImage,blankImage,blankImage,blankImage,blankImage,sheep,,,,,,,,,,,,0,42,42,243,,,,,,,,,,,,,,,,,,,,,,,,,,,,,,,,,,,427.78798989998177,428.8034528999124,428.7700778999133,429.3444769999478,429.3444769999478,None,430.5092363000149,None,right,0.8401385999750346,430.5092363000149,None,431.37299449997954,None,left,0.5602177999680862,431.37299449997954,None,,,,,,,,,,,,,,,,,,,,,,,PPT45,001,2022-07-08_12h30.50.761,ABstudy,2022.1.4,60.175640638268504,
AB,Lag5_T1P_T2P,5,P,P,6,11,5,4,15,Witch hat,Did you see the Witch hat?,0.12,0.016,JPG\,pizza,watch02a,greenolive,cucumber,match,witchhat,scissors01,broom01,globe,cherry01,stapler03a,cigarette,microscope,cellphone,speaker04,blankImage,blankImage,witchhat,,,,,,,,,,,,0,43,43,101,,,,,,,,,,,,,,,,,,,,,,,,,,,,,,,,,,,431.96193450002465,432.9744574999204,432.95783829991706,433.53772809996735,433.53772809996735,None,435.3854486999335,None,left,0.6346784000052139,435.3854486999335,None,436.04602649994195,None,left,0.4225405999459326,436.04602649994195,None,,,,,,,,,,,,,,,,,,,,,,,PPT45,001,2022-07-08_12h30.50.761,ABstudy,2022.1.4,60.175640638268504,
AB,Lag1_T1A_T2P,1,A,P,8,9,7,3,12,elbow,Did you see the elbow?,0.12,0.016,JPG\,watermelon01,cigarette,faucet,cymbal,cauliflower01,feather03a,cherry01,broom01,stapler01,key01,baseball01a,iron01b,blankImage,blankImage,blankImage,blankImage,blankImage,cashregister01,,,,,,,,,,,,0,44,44,251,,,,,,,,,,,,,,,,,,,,,,,,,,,,,,,,,,,436.49769360001665,437.51205679995473,437.4787065999117,438.1044001999544,438.1044001999544,None,439.5357967999298,None,right,1.0844180000713095,439.5357967999298,None,440.6489176999312,None,right,0.5810204000445083,440.6489176999312,None,,,,,,,,,,,,,,,,,,,,,,,PPT45,001,2022-07-08_12h30.50.761,ABstudy,2022.1.4,60.175640638268504,
AB,Lag1_T1P_T2A,1,P,A,5,6,4,5,11,Toaster oven,Did you see the Toaster oven?,0.12,0.016,JPG\,fork03c,toothbrush03b,cellphone,fan,toasteroven,clock01a,ring01,eraser,sunglasses04,thermometer02b,violin,blankImage,blankImage,blankImage,blankImage,blankImage,blankImage,toasteroven,,,,,,,,,,,,0,45,45,200,,,,,,,,,,,,,,,,,,,,,,,,,,,,,,,,,,,441.25658960000146,442.26685199991334,442.2500736999791,442.8204120999435,442.8204120999435,None,444.22837729996536,None,right,0.7762402999214828,444.22837729996536,None,445.0371589999413,None,right,0.7271659000543877,445.0371589999413,None,,,,,,,,,,,,,,,,,,,,,,,PPT45,001,2022-07-08_12h30.50.761,ABstudy,2022.1.4,60.175640638268504,
AB,Lag5_T1P_T2A,5,P,A,7,12,6,5,17,flower,Did you see the flower?,0.12,0.016,JPG\,cellphone,tomato01,comb02a,candy,celery,cucumber,craneflower,fan,feather03a,pen04b,lemon02,blueberry01,plate01b,cherry01,baseball01a,candle08b,blankImage,craneflower,,,,,,,,,,,,0,46,46,211,,,,,,,,,,,,,,,,,,,,,,,,,,,,,,,,,,,445.7893025999656,446.80464049999136,446.7713417999912,447.34693399991374,447.34693399991374,None,449.30556829995476,None,left,1.2507801000028849,449.30556829995476,None,450.5754856999265,None,right,0.5011105000739917,450.5754856999265,None,,,,,,,,,,,,,,,,,,,,,,,PPT45,001,2022-07-08_12h30.50.761,ABstudy,2022.1.4,60.175640638268504,
AB,Lag5_T1P_T2P,5,P,P,8,13,7,5,18,bed,Did you see the bed?,0.12,0.016,JPG\,pencil01,broccoli01a,button01,sponge01,watermelon01,lipstick02a,comb02a,bed,lighter01,sock01a,spoon01,blueberry01,stapler04b,onion,grape01,avocado01,blankImage,bed,,,,,,,,,,,,0,47,47,124,,,,,,,,,,,,,,,,,,,,,,,,,,,,,,,,,,,451.1133104999317,452.126936799963,452.11030759999994,452.67590059991926,452.67590059991926,None,454.6931741000153,None,left,0.8475863999919966,454.6931741000153,None,455.5637118999148,None,left,0.4010264999233186,455.5637118999148,None,,,,,,,,,,,,,,,,,,,,,,,PPT45,001,2022-07-08_12h30.50.761,ABstudy,2022.1.4,60.175640638268504,
AB,Lag5_T1P_T2P,5,P,P,5,10,4,3,13,bathtub,Did you see the bathtub?,0.12,0.016,JPG\,belt02a,sunglasses04,computerkeyboard02,cherry01,bathtub,eraser,watch02a,dice05a,blueberry01,stapler04b,match,leaf02a,iron01b,blankImage,blankImage,blankImage,blankImage,bathtub,,,,,,,,,,,,0,48,48,103,,,,,,,,,,,,,,,,,,,,,,,,,,,,,,,,,,,456.00094519997947,457.01499489997514,456.9982392999809,457.58542349992786,457.58542349992786,None,459.1294929999858,None,left,0.6266671000048518,459.1294929999858,None,459.78462649998255,None,left,0.44353210006374866,459.78462649998255,None,,,,,,,,,,,,,,,,,,,,,,,PPT45,001,2022-07-08_12h30.50.761,ABstudy,2022.1.4,60.175640638268504,
AB,Lag5_T1P_T2P,5,P,P,5,10,4,5,15,Bee,Did you see the Bee?,0.12,0.016,JPG\,fork03c,dandelion,dice05a,belt02a,honeybee,watch02a,key01,globe,eraser,stapler03a,greenolive,shirt02,candle08b,cigarette,garlic01a,blankImage,blankImage,honeybee,,,,,,,,,,,,0,49,49,149,,,,,,,,,,,,,,,,,,,,,,,,,,,,,,,,,,,460.25580489996355,461.26924369996414,461.2525389000075,461.88623249996454,461.88623249996454,None,463.69420139992144,None,left,0.6141350000398234,463.69420139992144,None,464.33878340001684,None,left,0.36162839992903173,464.33878340001684,None,,,,,,,,,,,,,,,,,,,,,,,PPT45,001,2022-07-08_12h30.50.761,ABstudy,2022.1.4,60.175640638268504,
AB,Lag1_T1P_T2P,1,P,P,6,7,5,3,10,elephant,Did you see the elephant?,0.12,0.016,JPG\,clock01a,grape01,plate01b,key01,screwdriver04b,africanelephant,stapler03b,iron01b,toothbrush03b,comb02a,blankImage,blankImage,blankImage,blankImage,blankImage,blankImage,blankImage,africanelephant,,,,,,,,,,,,0,50,50,31,,,,,,,,,,,,,,,,,,,,,,,,,,,,,,,,,,,464.72632130002603,465.7401823999826,465.7235232000239,466.3692211000016,466.2883022999158,None,467.55027679994237,None,left,0.6147684999741614,467.55027679994237,None,468.19256080000196,None,left,0.32348779996391386,468.19256080000196,None,,,,,,,,,,,,,,,,,,,,,,,PPT45,001,2022-07-08_12h30.50.761,ABstudy,2022.1.4,60.175640638268504,
AB,Lag1_T1P_T2P,1,P,P,6,7,5,5,12,bat,Did you see the bat?,0.12,0.016,JPG\,comb02a,key01,medal02b,battery02b,lighter01,bat,stapler05,sandal,pig,cellphone,computerkeyboard02,calculator01,blankImage,blankImage,blankImage,blankImage,blankImage,bat,,,,,,,,,,,,0,51,51,35,,,,,,,,,,,,,,,,,,,,,,,,,,,,,,,,,,,468.54513699992094,469.560639699921,469.52731899998616,470.1024970000144,470.1024970000144,None,471.5599758999888,None,left,0.47634429996833205,471.5599758999888,None,472.06388969998807,None,left,0.3327860999852419,472.06388969998807,None,,,,,,,,,,,,,,,,,,,,,,,PPT45,001,2022-07-08_12h30.50.761,ABstudy,2022.1.4,60.175640638268504,
AB,Lag5_T1P_T2P,5,P,P,5,10,4,3,13,Jellyfish,Did you see the Jellyfish?,0.12,0.016,JPG\,printer02,envelope03a,potato02b,calculator01,jellyfish,cigarette,ashtray01,pig,broom01,stapler06,candle08b,battery02b,strawberry,blankImage,blankImage,blankImage,blankImage,jellyfish,,,,,,,,,,,,0,52,52,91,,,,,,,,,,,,,,,,,,,,,,,,,,,,,,,,,,,472.42050959996413,473.43118249997497,473.4145010999637,474.01304360001814,474.01304360001814,None,475.607852099929,None,left,0.7244850000133738,475.607852099929,None,476.3512124000117,None,left,0.5411944999359548,476.3512124000117,None,,,,,,,,,,,,,,,,,,,,,,,PPT45,001,2022-07-08_12h30.50.761,ABstudy,2022.1.4,60.175640638268504,
AB,Lag1_T1A_T2P,1,A,P,8,9,7,3,12,seal,Did you see the seal?,0.12,0.016,JPG\,dice05a,watch02a,pig,lighter01,button01,strawberry,paintbrush01,microscope,stapler03a,pen04b,feather03a,8ball,blankImage,blankImage,blankImage,blankImage,blankImage,hockeystick,,,,,,,,,,,,0,53,53,235,,,,,,,,,,,,,,,,,,,,,,,,,,,,,,,,,,,476.9222624999238,477.93580989993643,477.91900789993815,478.5713193999836,478.49622979993,None,479.9547906999942,None,right,0.7212407999904826,479.9547906999942,None,480.7050258999225,None,left,0.5478249998996034,480.7050258999225,None,,,,,,,,,,,,,,,,,,,,,,,PPT45,001,2022-07-08_12h30.50.761,ABstudy,2022.1.4,60.175640638268504,
AB,Lag5_T1P_T2P,5,P,P,6,11,5,4,15,punching bag,Did you see the punching bag?,0.12,0.016,JPG\,foosballtable,cigarette,pen04b,birthdaycandle,hammer01,punchingbag,binoculars01b,chain01,potato02b,cauliflower01,stapler04b,ashtray01,scarf,cellphone,calculator01,blankImage,blankImage,punchingbag,,,,,,,,,,,,0,54,54,156,,,,,,,,,,,,,,,,,,,,,,,,,,,,,,,,,,,481.2769887999166,482.2902412000112,482.2735541999573,482.7771814999869,482.7771814999869,None,484.6950864000246,None,left,1.1255803999956697,484.6950864000246,None,485.84347839991096,None,left,0.45719370001461357,485.84347839991096,None,,,,,,,,,,,,,,,,,,,,,,,PPT45,001,2022-07-08_12h30.50.761,ABstudy,2022.1.4,60.175640638268504,
AB,Lag1_T1P_T2P,1,P,P,8,9,7,4,13,kite,Did you see the kite?,0.12,0.016,JPG\,scissors01,balloon01b,eraser,feather03a,banana01,candle01,measuringcup01,kite,stapler04b,strawberry,pear01,carrot01,globe,blankImage,blankImage,blankImage,blankImage,kite,,,,,,,,,,,,0,55,55,17,,,,,,,,,,,,,,,,,,,,,,,,,,,,,,,,,,,486.32958479993977,487.34510039992165,487.31167299998924,487.88907609996386,487.88907609996386,None,489.52197190001607,None,left,0.9142583999782801,489.52197190001607,None,490.46478949999437,None,right,0.3952272000024095,490.46478949999437,None,,,,,,,,,,,,,,,,,,,,,,,PPT45,001,2022-07-08_12h30.50.761,ABstudy,2022.1.4,60.175640638268504,
AB,Lag1_T1P_T2A,1,P,A,8,9,7,5,14,Parrot,Did you see the Parrot?,0.12,0.016,JPG\,candy,brownsugar,dice05a,cd,sock01a,blueberry01,button01,parrot01,feather03a,grape01,dandelion,scissors01,watch02a,candle08b,blankImage,blankImage,blankImage,parrot01,,,,,,,,,,,,0,56,56,192,,,,,,,,,,,,,,,,,,,,,,,,,,,,,,,,,,,490.8853611999657,491.8836876999121,491.86803619994316,492.47058069997,492.47058069997,None,494.1934329000069,None,left,0.8907411999534816,494.1934329000069,None,495.102317999932,None,right,0.6381516000255942,495.102317999932,None,,,,,,,,,,,,,,,,,,,,,,,PPT45,001,2022-07-08_12h30.50.761,ABstudy,2022.1.4,60.175640638268504,
AB,Lag5_T1P_T2P,5,P,P,6,11,5,3,14,wrench,Did you see the wrench?,0.12,0.016,JPG\,cherry01,cymbal,envelope03a,foosballtable,shirt02,stubbywrench01a,sewingmachine01a,candle08b,battery02b,apple07,stapler03b,screwdriver04b,strawberry,sunglasses04,blankImage,blankImage,blankImage,stubbywrench01a,,,,,,,,,,,,0,57,57,122,,,,,,,,,,,,,,,,,,,,,,,,,,,,,,,,,,,495.7752981999656,496.78863389999606,496.772890000022,497.4379447000101,497.36527299997397,None,499.03751779999584,None,left,0.41501679993234575,499.03751779999584,None,499.47355749993585,None,left,0.4184543000301346,499.47355749993585,None,,,,,,,,,,,,,,,,,,,,,,,PPT45,001,2022-07-08_12h30.50.761,ABstudy,2022.1.4,60.175640638268504,
AB,Lag5_T1P_T2P,5,P,P,6,11,5,5,16,microwave,Did you see the microwave?,0.12,0.016,JPG\,pen04b,speaker04,lighter01,cherry01,weight04a,microwave,sock01a,toothbrush03b,broom01,sewingmachine01a,stapler06,iron01b,clock01a,sandal,cd,blueberry01,blankImage,microwave,,,,,,,,,,,,0,58,58,136,,,,,,,,,,,,,,,,,,,,,,,,,,,,,,,,,,,499.9719183999114,500.9754721999634,500.9590731000062,501.5512461999897,501.5512461999897,None,503.44821970001794,None,left,0.7646854999475181,503.44821970001794,None,504.245390499942,None,left,0.4396874000085518,504.245390499942,None,,,,,,,,,,,,,,,,,,,,,,,PPT45,001,2022-07-08_12h30.50.761,ABstudy,2022.1.4,60.175640638268504,
AB,Lag5_T1A_T2A,5,A,A,5,10,4,5,15,sword,Did you see the sword?,0.12,0.016,JPG\,pencil01,broccoli01a,button01,sponge01,watermelon01,lipstick02a,comb02a,fan,lighter01,sock01a,spoon01,blueberry01,belt02a,onion,grape01,blankImage,blankImage,parachute,,,,,,,,,,,,0,59,59,298,,,,,,,,,,,,,,,,,,,,,,,,,,,,,,,,,,,504.71732689999044,505.7301995999878,505.7134336999152,506.32673710002564,506.32673710002564,None,508.18759819993284,None,right,1.4247445000801235,508.18759819993284,None,509.633837100002,None,right,1.7386848999885842,509.633837100002,None,,,,,,,,,,,,,,,,,,,,,,,PPT45,001,2022-07-08_12h30.50.761,ABstudy,2022.1.4,60.175640638268504,
AB,Lag5_T1P_T2P,5,P,P,5,10,4,5,15,rake,Did you see the rake?,0.12,0.016,JPG\,scissors01,grape01,mushroom01,toiletpaper01a,leafrake,pizza,cigarette,ashtray01,carrot01,stapler03b,foosballtable,lipstick02a,teabag,acorn,potato02b,blankImage,blankImage,leafrake,,,,,,,,,,,,0,60,60,92,,,,,,,,,,,,,,,,,,,,,,,,,,,,,,,,,,,511.40453419997357,512.4202128999168,512.3866370000178,512.9621315000113,512.9621315000113,None,514.827131900005,None,left,0.697630999959074,514.827131900005,None,515.5566572999815,None,right,0.4076245999895036,515.5566572999815,None,,,,,,,,,,,,,,,,,,,,,,,PPT45,001,2022-07-08_12h30.50.761,ABstudy,2022.1.4,60.175640638268504,
AB,Lag1_T1P_T2A,1,P,A,8,9,7,5,14,Ceiling fan,Did you see the Ceiling fan?,0.12,0.016,JPG\,cucumber,sponge01,alligator,pear01,ashtray01,hammer01,clock04,ceilingfan01,fork03c,binoculars01b,mushroom01,broccoli01a,leaf02a,acorn,blankImage,blankImage,blankImage,ceilingfan01,,,,,,,,,,,,0,61,61,183,,,,,,,,,,,,,,,,,,,,,,,,,,,,,,,,,,,515.9956361999502,517.0081462999806,516.9914264000254,517.5679195999401,517.5679195999401,None,519.1821189000038,None,left,0.7337628999957815,519.1821189000038,None,519.9443312999792,None,right,0.39642130001448095,519.9443312999792,None,,,,,,,,,,,,,,,,,,,,,,,PPT45,001,2022-07-08_12h30.50.761,ABstudy,2022.1.4,60.175640638268504,
AB,Lag5_T1A_T2P,5,A,P,5,10,4,5,15,shower,Did you see the shower?,0.12,0.016,JPG\,sewingmachine01a,thermometer02b,sponge01,eraser,broccoli01a,fork03c,pizza,violin,belt02a,stapler04b,pineapple01a,tennisball01b,dandelion,cauliflower01,lemon02,blankImage,blankImage,redfox,,,,,,,,,,,,0,62,62,271,,,,,,,,,,,,,,,,,,,,,,,,,,,,,,,,,,,520.3637662000256,521.3789086999604,521.3455019999528,521.9475884999847,521.9475884999847,None,523.754471299937,None,right,2.050306500052102,523.754471299937,None,525.8337205999997,None,right,1.4272680999711156,525.8337205999997,None,,,,,,,,,,,,,,,,,,,,,,,PPT45,001,2022-07-08_12h30.50.761,ABstudy,2022.1.4,60.175640638268504,
AB,Lag5_T1P_T2A,5,P,A,8,13,7,5,18,telescope,Did you see the telescope?,0.12,0.016,JPG\,globe,broccoli01a,binoculars01b,iron01b,avocado01,dandelion,pineapple01a,handheldtelescope,fan,pizza,celery,blueberry01,sewingmachine01a,dice05a,watermelon01,candy,blankImage,handheldtelescope,,,,,,,,,,,,0,63,63,228,,,,,,,,,,,,,,,,,,,,,,,,,,,,,,,,,,,527.3316972999601,528.33584840002,528.3190913000144,528.9127420999575,528.9127420999575,None,530.8024385999888,None,left,0.7299662999575958,530.8024385999888,None,531.5585990999825,None,right,0.3892266000621021,531.5585990999825,None,,,,,,,,,,,,,,,,,,,,,,,PPT45,001,2022-07-08_12h30.50.761,ABstudy,2022.1.4,60.175640638268504,
AB,Lag5_T1P_T2A,5,P,A,6,11,5,5,16,fish,Did you see the fish?,0.12,0.016,JPG\,cucumber,ring01,lipstick02a,microscope,violin,redlionfish,celery,lighter01,cherry01,sewingmachine01a,belt02a,key01,binoculars01b,medal02b,watermelon01,dice05a,blankImage,redlionfish,,,,,,,,,,,,0,64,64,221,,,,,,,,,,,,,,,,,,,,,,,,,,,,,,,,,,,531.9731770999497,532.9739487000043,532.95720049995,533.5494661999401,533.5494661999401,None,535.5257399999537,None,left,1.4301366000436246,535.5257399999537,None,536.9782662999351,None,right,0.34562839998397976,536.9782662999351,None,,,,,,,,,,,,,,,,,,,,,,,PPT45,001,2022-07-08_12h30.50.761,ABstudy,2022.1.4,60.175640638268504,
AB,Lag5_T1P_T2A,5,P,A,5,10,4,4,14,Ship in a bottle,Did you see the Ship in a bottle?,0.12,0.016,JPG\,sewingmachine01a,thermometer02b,sponge01,eraser,shipinabottle,fork03c,pizza,violin,belt02a,medal02b,pineapple01a,tennisball01b,dandelion,cauliflower01,blankImage,blankImage,blankImage,shipinabottle,,,,,,,,,,,,0,65,65,208,,,,,,,,,,,,,,,,,,,,,,,,,,,,,,,,,,,537.3500807000091,538.36253449996,538.3458567999769,538.9347492000088,538.9347492000088,None,540.65610189992,None,left,1.4529365000780672,540.65610189992,None,542.1332460999256,None,right,1.0870335000799969,542.1332460999256,None,,,,,,,,,,,,,,,,,,,,,,,PPT45,001,2022-07-08_12h30.50.761,ABstudy,2022.1.4,60.175640638268504,
AB,Lag1_T1P_T2P,1,P,P,7,8,6,3,11,tree,Did you see the tree?,0.12,0.016,JPG\,pear01,clock01a,cymbal,match,ashtray01,globe,tree,stapler03b,lemon02,pen04b,dice05a,blankImage,blankImage,blankImage,blankImage,blankImage,blankImage,tree,,,,,,,,,,,,0,66,66,51,,,,,,,,,,,,,,,,,,,,,,,,,,,,,,,,,,,543.2530794999329,544.268776300014,544.235099799931,544.8104275999358,544.8104275999358,None,546.1858115999494,None,left,1.226332199992612,546.1858115999494,None,547.4391904999502,None,right,1.204676300054416,547.4391904999502,None,,,,,,,,,,,,,,,,,,,,,,,PPT45,001,2022-07-08_12h30.50.761,ABstudy,2022.1.4,60.175640638268504,
AB,Lag5_T1A_T2P,5,A,P,7,12,6,5,17,funnel,Did you see the funnel?,0.12,0.016,JPG\,iron01b,orange,birthdaycandle,potato02b,cauliflower01,pencil01,key01,candle08b,celery,tableknife02,pen04b,stapler04b,ring01,rice,lemon02,tomato01,blankImage,englishcucumber,,,,,,,,,,,,0,67,67,259,,,,,,,,,,,,,,,,,,,,,,,,,,,,,,,,,,,548.6802644999698,549.6913152999477,549.6757476999192,550.3318024999462,550.2540958999889,None,552.1722239999799,None,right,1.0479032000293955,552.1722239999799,None,553.246773699997,None,left,0.5013083000667393,553.246773699997,None,,,,,,,,,,,,,,,,,,,,,,,PPT45,001,2022-07-08_12h30.50.761,ABstudy,2022.1.4,60.175640638268504,
AB,Lag1_T1P_T2P,1,P,P,6,7,5,3,10,windmill,Did you see the windmill?,0.12,0.016,JPG\,pizza,printer02,medal02b,spoon01,grape01,windmill,stapler04b,watermelon01,celery,battery02b,blankImage,blankImage,blankImage,blankImage,blankImage,blankImage,blankImage,windmill,,,,,,,,,,,,0,68,68,75,,,,,,,,,,,,,,,,,,,,,,,,,,,,,,,,,,,553.789129099925,554.7957024999196,554.7789133000188,555.3732114000013,555.3732114000013,None,556.6195913000265,None,left,0.7687284999992698,556.6195913000265,None,557.4150426000124,None,right,0.49310189997777343,557.4150426000124,None,,,,,,,,,,,,,,,,,,,,,,,PPT45,001,2022-07-08_12h30.50.761,ABstudy,2022.1.4,60.175640638268504,
AB,Lag5_T1P_T2P,5,P,P,8,13,7,4,17,surf board,Did you see the surf board?,0.12,0.016,JPG\,candy,brownsugar,dice05a,cd,sock01a,blueberry01,button01,surfboard,feather03a,grape01,dandelion,scissors01,stapler03b,candle08b,book01b,globe,blankImage,surfboard,,,,,,,,,,,,0,69,69,142,,,,,,,,,,,,,,,,,,,,,,,,,,,,,,,,,,,557.9375896999845,558.9502986000152,558.9333513999591,559.5078224999597,559.5078224999597,None,561.4488630000269,None,left,1.0994319999590516,561.4488630000269,None,562.5702654999914,None,right,0.4028554999968037,562.5702654999914,None,,,,,,,,,,,,,,,,,,,,,,,PPT45,001,2022-07-08_12h30.50.761,ABstudy,2022.1.4,60.175640638268504,
AB,Lag1_T1P_T2P,1,P,P,5,6,4,5,11,shark,Did you see the shark?,0.12,0.016,JPG\,cucumber,sponge01,alligator,pear01,greatwhiteshark,stapler06,clock04,battery02b,fork03c,binoculars01b,mushroom01,blankImage,blankImage,blankImage,blankImage,blankImage,blankImage,greatwhiteshark,,,,,,,,,,,,0,70,70,84,,,,,,,,,,,,,,,,,,,,,,,,,,,,,,,,,,,563.0073072999949,564.0214891999494,564.0048823999241,564.5945226999465,564.5945226999465,None,565.8979614999844,None,left,1.050527699990198,565.8979614999844,None,566.9754826999269,None,right,0.39698560000397265,566.9754826999269,None,,,,,,,,,,,,,,,,,,,,,,,PPT45,001,2022-07-08_12h30.50.761,ABstudy,2022.1.4,60.175640638268504,
AB,Lag1_T1P_T2A,1,P,A,5,6,4,5,11,Sailboat,Did you see the Sailboat?,0.12,0.016,JPG\,chain01,speaker04,avocado01,watermelon01,sailboat,comb02a,lamp04a,fork03c,toaster01,slipper03b,scissors01,blankImage,blankImage,blankImage,blankImage,blankImage,blankImage,sailboat,,,,,,,,,,,,0,71,71,193,,,,,,,,,,,,,,,,,,,,,,,,,,,,,,,,,,,567.3939773999155,568.40930509998,568.3760010999395,568.9499882999808,568.9499882999808,None,570.2923424999462,None,right,0.9046159000135958,570.2923424999462,None,571.229026200017,None,right,0.607659799978137,571.229026200017,None,,,,,,,,,,,,,,,,,,,,,,,PPT45,001,2022-07-08_12h30.50.761,ABstudy,2022.1.4,60.175640638268504,
AB,Lag5_T1P_T2P,5,P,P,5,10,4,3,13,rose,Did you see the rose?,0.12,0.016,JPG\,lipstick02a,cucumber,candle08b,printer02,rose,violin,paintbrush01,lighter01,belt02a,stapler03b,thermometer02b,microscope,cigarette,blankImage,blankImage,blankImage,blankImage,rose,,,,,,,,,,,,0,72,72,158,,,,,,,,,,,,,,,,,,,,,,,,,,,,,,,,,,,571.8670922999736,572.8803862999193,572.8636203999631,573.4400755999377,573.4400755999377,None,575.0630097999237,None,left,1.1495218999916688,575.0630097999237,None,576.2478756000055,None,left,0.5645112000638619,576.2478756000055,None,,,,,,,,,,,,,,,,,,,,,,,PPT45,001,2022-07-08_12h30.50.761,ABstudy,2022.1.4,60.175640638268504,
AB,Lag1_T1P_T2A,1,P,A,6,7,5,4,11,Road,Did you see the Road?,0.12,0.016,JPG\,pizza,printer02,medal02b,spoon01,grape01,road02,belt02a,watermelon01,celery,battery02b,screw02,blankImage,blankImage,blankImage,blankImage,blankImage,blankImage,road02,,,,,,,,,,,,0,73,73,174,,,,,,,,,,,,,,,,,,,,,,,,,,,,,,,,,,,576.8392484999495,577.8518644999713,577.835453699925,578.4561459999532,578.4561459999532,None,579.7697198999813,None,left,0.7225340999430045,579.7697198999813,None,580.5239669999573,None,right,0.40915879991371185,580.5239669999573,None,,,,,,,,,,,,,,,,,,,,,,,PPT45,001,2022-07-08_12h30.50.761,ABstudy,2022.1.4,60.175640638268504,
AB,Lag5_T1P_T2A,5,P,A,5,10,4,3,13,fan,Did you see the fan?,0.12,0.016,JPG\,scissors01,grape01,mushroom01,toiletpaper01a,fanheater,pizza,cigarette,ashtray01,carrot01,pineapple01a,foosballtable,lipstick02a,teabag,blankImage,blankImage,blankImage,blankImage,fanheater,,,,,,,,,,,,0,74,74,220,,,,,,,,,,,,,,,,,,,,,,,,,,,,,,,,,,,580.9661744999466,581.9731666999869,581.9576193999965,582.6013272999553,582.5283428999828,None,584.1108122000005,None,right,0.7733475000131875,584.1108122000005,None,584.9117038999684,None,right,0.5806132999714464,584.9117038999684,None,,,,,,,,,,,,,,,,,,,,,,,PPT45,001,2022-07-08_12h30.50.761,ABstudy,2022.1.4,60.175640638268504,
AB,Lag5_T1P_T2P,5,P,P,8,13,7,3,16,parachute,Did you see the parachute?,0.12,0.016,JPG\,brick,plate01b,pen04b,toaster01,screwdriver04b,candle01,envelope03a,parachute,pig,ring01,orange,clock01a,stapler03b,calculator01,mushroom01,chain01,blankImage,parachute,,,,,,,,,,,,0,75,75,114,,,,,,,,,,,,,,,,,,,,,,,,,,,,,,,,,,,585.5131052000215,586.5271561999107,586.4937104999553,587.0974372000201,587.0974372000201,None,589.0364286999684,None,left,1.0471966000040993,589.0364286999684,None,590.113971099956,None,right,0.3376926000928506,590.113971099956,None,,,,,,,,,,,,,,,,,,,,,,,PPT45,001,2022-07-08_12h30.50.761,ABstudy,2022.1.4,60.175640638268504,
AB,Lag5_T1P_T2P,5,P,P,6,11,5,5,16,Parking meter,Did you see the Parking meter?,0.12,0.016,JPG\,dice05a,watch02a,pig,lighter01,button01,parkingmeter,paintbrush01,microscope,plate01b,pen04b,stapler03b,weight04a,carrot01,shirt02,globe,garlic01a,blankImage,parkingmeter,,,,,,,,,,,,0,76,76,172,,,,,,,,,,,,,,,,,,,,,,,,,,,,,,,,,,,590.5256493999623,591.5321251999121,591.5154040999478,592.101000100025,592.101000100025,None,594.0566802999238,None,right,0.7470415000570938,594.0566802999238,None,594.8353389999829,None,right,0.6742761000059545,594.8353389999829,None,,,,,,,,,,,,,,,,,,,,,,,PPT45,001,2022-07-08_12h30.50.761,ABstudy,2022.1.4,60.175640638268504,
AB,Lag1_T1A_T2P,1,A,P,5,6,4,5,11,rake,Did you see the rake?,0.12,0.016,JPG\,candy,brownsugar,dice05a,cd,sock01a,stapler01,button01,potato02b,feather03a,grape01,dandelion,blankImage,blankImage,blankImage,blankImage,blankImage,blankImage,greatwhiteshark,,,,,,,,,,,,0,77,77,256,,,,,,,,,,,,,,,,,,,,,,,,,,,,,,,,,,,595.5382067000028,596.5537406000076,596.5203798000002,597.1050463999854,597.1050463999854,None,598.415653700009,None,right,0.9178288999246433,598.415653700009,None,599.3569598000031,None,left,0.3832637999439612,599.3569598000031,None,,,,,,,,,,,,,,,,,,,,,,,PPT45,001,2022-07-08_12h30.50.761,ABstudy,2022.1.4,60.175640638268504,
AB,Lag5_T1P_T2P,5,P,P,7,12,6,3,15,mail box,Did you see the mail box?,0.12,0.016,JPG\,key01,apple07,ring01,leaf02a,hammer01,tableknife02,postalmailbox01,sponge01,baseball01a,thermometer02b,celery,stapler06,grape01,cucumber,tennisball01b,blankImage,blankImage,postalmailbox01,,,,,,,,,,,,0,78,78,113,,,,,,,,,,,,,,,,,,,,,,,,,,,,,,,,,,,599.7657132999739,600.7747231000103,600.7580669999588,601.3571366999531,601.3571366999531,None,603.1575365000172,None,left,0.6226994999451563,603.1575365000172,None,603.8107910000253,None,left,0.39337239996530116,603.8107910000253,None,,,,,,,,,,,,,,,,,,,,,,,PPT45,001,2022-07-08_12h30.50.761,ABstudy,2022.1.4,60.175640638268504,
AB,Lag5_T1P_T2A,5,P,A,7,12,6,5,17,corn,Did you see the corn?,0.12,0.016,JPG\,avocado01,pingpongpaddle01c,match,cauliflower01,paintbrush01,clock01a,corn02,cd,balloon01b,cellphone,watch02a,pear01,toaster01,sponge01,orange,blueberry01,blankImage,corn02,,,,,,,,,,,,0,79,79,210,,,,,,,,,,,,,,,,,,,,,,,,,,,,,,,,,,,604.2302561999531,605.245493400027,605.2122076000087,605.7886629999848,605.7886629999848,None,607.8117664000019,None,left,0.4401918000075966,607.8117664000019,None,608.2823710999219,None,right,0.4417265000520274,608.2823710999219,None,,,,,,,,,,,,,,,,,,,,,,,PPT45,001,2022-07-08_12h30.50.761,ABstudy,2022.1.4,60.175640638268504,
AB,Lag5_T1P_T2P,5,P,P,5,10,4,5,15,sword fish,Did you see the sword fish?,0.12,0.016,JPG\,scissors01,balloon01b,eraser,feather03a,swordfish,candle01,measuringcup01,calculator01,thermometer02b,stapler04b,pear01,carrot01,globe,baseball01a,leaf02a,blankImage,blankImage,swordfish,,,,,,,,,,,,0,80,80,160,,,,,,,,,,,,,,,,,,,,,,,,,,,,,,,,,,,608.753023999976,609.7668765999842,609.7500946000218,610.3358287999872,610.3358287999872,None,612.1433988999343,None,left,0.6368375000311062,612.1433988999343,None,612.803216899978,None,right,0.4970102000515908,612.803216899978,None,,,,,,,,,,,,,,,,,,,,,,,PPT45,001,2022-07-08_12h30.50.761,ABstudy,2022.1.4,60.175640638268504,
AB,Lag5_T1P_T2A,5,P,A,5,10,4,3,13,Totem Pole,Did you see the Totem Pole?,0.12,0.016,JPG\,canoftennisballs,banana01,scissors01,pig,totempole,leaf02a,pear01,sponge01,fork03c,tableknife02,balloon01b,match,toothbrush03b,blankImage,blankImage,blankImage,blankImage,totempole,,,,,,,,,,,,0,81,81,202,,,,,,,,,,,,,,,,,,,,,,,,,,,,,,,,,,,613.333631800022,614.3384272999829,614.3050449999282,614.8876266999869,614.8876266999869,None,616.4801844999893,None,right,1.2205848000012338,616.4801844999893,None,617.7248785999836,None,right,1.5752122000558302,617.7248785999836,None,,,,,,,,,,,,,,,,,,,,,,,PPT45,001,2022-07-08_12h30.50.761,ABstudy,2022.1.4,60.175640638268504,
AB,Lag5_T1P_T2P,5,P,P,6,11,5,3,14,Poker chips,Did you see the Poker chips?,0.12,0.016,JPG\,iron01b,brick,broccoli01a,balloon01b,tomato01,pokerchips,sandal,teabag,scissors01,pineapple01a,stapler04b,measuringcup01,sock01a,book01b,blankImage,blankImage,blankImage,pokerchips,,,,,,,,,,,,0,82,82,154,,,,,,,,,,,,,,,,,,,,,,,,,,,,,,,,,,,619.3302772999741,620.34413089999,620.3274022999685,620.911166899954,620.911166899954,None,622.586016700021,None,left,1.545791499898769,622.586016700021,None,624.1645239000209,None,right,0.807510899961926,624.1645239000209,None,,,,,,,,,,,,,,,,,,,,,,,PPT45,001,2022-07-08_12h30.50.761,ABstudy,2022.1.4,60.175640638268504,
AB,Lag5_T1A_T2P,5,A,P,6,11,5,3,14,Kiwi,Did you see the Kiwi?,0.12,0.016,JPG\,paintbrush01,dice05a,watermelon01,broccoli01a,hammer01,leaf02a,match,tennisball01b,lemon02,fan,stapler06,grape01,envelope03a,sponge01,blankImage,blankImage,blankImage,granolabar01,,,,,,,,,,,,0,83,83,261,,,,,,,,,,,,,,,,,,,,,,,,,,,,,,,,,,,625.068822799949,626.0830892999656,626.0497552999295,626.6262029999634,626.6262029999634,None,628.2962021999992,None,left,0.7714150999672711,628.2962021999992,None,629.0858224999392,None,left,1.6621043999912217,629.0858224999392,None,,,,,,,,,,,,,,,,,,,,,,,PPT45,001,2022-07-08_12h30.50.761,ABstudy,2022.1.4,60.175640638268504,
AB,Lag5_T1P_T2P,5,P,P,7,12,6,4,16,flower,Did you see the flower?,0.12,0.016,JPG\,cucumber,sponge01,alligator,pear01,ashtray01,hammer01,hibiscusflower02,battery02b,fork03c,binoculars01b,mushroom01,stapler01,leaf02a,acorn,comb02a,screwdriver04b,blankImage,hibiscusflower02,,,,,,,,,,,,0,84,84,132,,,,,,,,,,,,,,,,,,,,,,,,,,,,,,,,,,,630.7732304999372,631.7886486999923,631.7552576999879,632.3290298000211,632.3290298000211,None,634.3808773999335,None,left,0.7591647000517696,634.3808773999335,None,635.1610560999252,None,right,0.3161108000203967,635.1610560999252,None,,,,,,,,,,,,,,,,,,,,,,,PPT45,001,2022-07-08_12h30.50.761,ABstudy,2022.1.4,60.175640638268504,
AB,Lag5_T1P_T2A,5,P,A,8,13,7,4,17,Drum set,Did you see the Drum set?,0.12,0.016,JPG\,pencil01,microscope,banana01,computerkeyboard02,celery,cellphone,scissors01,drumset,book01b,onion,dice05a,binoculars01b,baseball01a,iron01b,screw02,fork03c,blankImage,drumset,,,,,,,,,,,,0,85,85,212,,,,,,,,,,,,,,,,,,,,,,,,,,,,,,,,,,,635.5113985999487,636.5270074999426,636.4934382999782,637.0625447999919,637.0625447999919,None,639.003617499955,None,left,0.8088049000361934,639.003617499955,None,639.8302168999799,None,right,0.301182399969548,639.8302168999799,None,,,,,,,,,,,,,,,,,,,,,,,PPT45,001,2022-07-08_12h30.50.761,ABstudy,2022.1.4,60.175640638268504,
AB,Lag5_T1P_T2P,5,P,P,7,12,6,4,16,window,Did you see the window?,0.12,0.016,JPG\,cigarette,pig,banana01,strawberry,clock01a,plate01b,dormer,blueberry01,battery02b,pineapple01a,chain01,stapler01,candy,pen04b,teabag,birthdaycandle,blankImage,dormer,,,,,,,,,,,,0,86,86,170,,,,,,,,,,,,,,,,,,,,,,,,,,,,,,,,,,,640.1686716999393,641.1816453000065,641.164918399998,641.7480050999438,641.7480050999438,None,643.6022116999375,None,left,0.5372887999983504,643.6022116999375,None,644.1700781999389,None,left,0.42569629999343306,644.1700781999389,None,,,,,,,,,,,,,,,,,,,,,,,PPT45,001,2022-07-08_12h30.50.761,ABstudy,2022.1.4,60.175640638268504,
AB,Lag1_T1P_T2A,1,P,A,5,6,4,4,10,flower,Did you see the flower?,0.12,0.016,JPG\,broom01,globe,cellphone,tableknife02,daffodil,scissors01,ring01,alligator,rice,toaster01,blankImage,blankImage,blankImage,blankImage,blankImage,blankImage,blankImage,daffodil,,,,,,,,,,,,0,87,87,184,,,,,,,,,,,,,,,,,,,,,,,,,,,,,,,,,,,644.6240719999187,645.6361914000008,645.6194734999444,646.205451100017,646.205451100017,None,647.3974111999851,None,left,0.8466497999615967,647.3974111999851,None,648.2718770999927,None,right,0.41198249999433756,648.2718770999927,None,,,,,,,,,,,,,,,,,,,,,,,PPT45,001,2022-07-08_12h30.50.761,ABstudy,2022.1.4,60.175640638268504,
AB,Lag5_T1A_T2P,5,A,P,6,11,5,4,15,fish,Did you see the fish?,0.12,0.016,JPG\,pingpongpaddle01c,banana01,scissors01,pig,shirt02,leaf02a,pear01,sponge01,fork03c,tableknife02,stapler03a,match,toothbrush03b,birthdaycandle,candle01,blankImage,blankImage,lighthouse,,,,,,,,,,,,0,88,88,265,,,,,,,,,,,,,,,,,,,,,,,,,,,,,,,,,,,648.7079105000012,649.7232589999912,649.6899372999324,650.2689523999579,650.2689523999579,None,652.1189101999626,None,right,0.7493432000046596,652.1189101999626,None,652.8931784000015,None,left,0.5350553999887779,652.8931784000015,None,,,,,,,,,,,,,,,,,,,,,,,PPT45,001,2022-07-08_12h30.50.761,ABstudy,2022.1.4,60.175640638268504,
AB,Lag1_T1P_T2P,1,P,P,6,7,5,4,11,bowling pin,Did you see the bowling pin?,0.12,0.016,JPG\,strawberry,leaf02a,clock04,candle01,avocado01,bowlingpin,stapler03a,brownsugar,ring01,lemon02,fork03c,blankImage,blankImage,blankImage,blankImage,blankImage,blankImage,bowlingpin,,,,,,,,,,,,0,89,89,8,,,,,,,,,,,,,,,,,,,,,,,,,,,,,,,,,,,653.4641267999541,654.4780714999652,654.4613984000171,655.0463179999497,655.0463179999497,None,656.3554959999165,None,left,0.6242819000035524,656.3554959999165,None,656.9981951999944,None,right,1.6692142999963835,656.9981951999944,None,,,,,,,,,,,,,,,,,,,,,,,PPT45,001,2022-07-08_12h30.50.761,ABstudy,2022.1.4,60.175640638268504,
AB,Lag5_T1P_T2P,5,P,P,6,11,5,4,15,boxing glove,Did you see the boxing glove?,0.12,0.016,JPG\,button01,celery,birthdaycandle,apple07,avocado01,boxingglove01,dice05a,teabag,clock01a,feather03a,stapler06,scarf,orange,battery02b,thermometer02b,blankImage,blankImage,boxingglove01,,,,,,,,,,,,0,90,90,165,,,,,,,,,,,,,,,,,,,,,,,,,,,,,,,,,,,658.7571422000183,659.7666421999456,659.7499797999626,660.331125299912,660.331125299912,None,662.1364528000122,None,left,0.4512095999671146,662.1364528000122,None,662.6196898999624,None,left,0.40012889995705336,662.6196898999624,None,,,,,,,,,,,,,,,,,,,,,,,PPT45,001,2022-07-08_12h30.50.761,ABstudy,2022.1.4,60.175640638268504,
AB,Lag1_T1P_T2A,1,P,A,7,8,6,4,12,gorilla,Did you see the gorilla?,0.12,0.016,JPG\,scissors01,ashtray01,garlic01a,medal02b,cigarette,candle08b,gorilla,envelope03a,cucumber,rice,toiletpaper01a,greenolive,blankImage,blankImage,blankImage,blankImage,blankImage,gorilla,,,,,,,,,,,,0,91,91,189,,,,,,,,,,,,,,,,,,,,,,,,,,,,,,,,,,,663.0387495999457,664.0378702000016,664.021084500011,664.5909533000086,664.5909533000086,None,666.1805812999373,None,left,0.88724509999156,666.1805812999373,None,667.0926255999366,None,right,0.4084262000396848,667.0926255999366,None,,,,,,,,,,,,,,,,,,,,,,,PPT45,001,2022-07-08_12h30.50.761,ABstudy,2022.1.4,60.175640638268504,
AB,Lag1_T1P_T2P,1,P,P,7,8,6,3,11,compass,Did you see the compass?,0.12,0.016,JPG\,brick,plate01b,pen04b,toaster01,screwdriver04b,candle01,magneticcompass,stapler03a,pig,ring01,orange,blankImage,blankImage,blankImage,blankImage,blankImage,blankImage,magneticcompass,,,,,,,,,,,,0,92,92,66,,,,,,,,,,,,,,,,,,,,,,,,,,,,,,,,,,,667.5306176999584,668.5422977999551,668.5254661999643,669.1223067999817,669.1223067999817,None,670.4936567000113,None,left,1.3904577000066638,670.4936567000113,None,671.9123942999868,None,right,0.29161840002052486,671.9123942999868,None,,,,,,,,,,,,,,,,,,,,,,,PPT45,001,2022-07-08_12h30.50.761,ABstudy,2022.1.4,60.175640638268504,
AB,Lag5_T1P_T2P,5,P,P,8,13,7,4,17,Accordion,Did you see the Accordion?,0.12,0.016,JPG\,toiletpaper01a,lipstick02a,potato02b,speaker04,globe,strawberry,carrot01,accordion01,sock01a,candle08b,pen04b,calculator01,stapler01,brick,pear01,fork03c,blankImage,accordion01,,,,,,,,,,,,0,93,93,162,,,,,,,,,,,,,,,,,,,,,,,,,,,,,,,,,,,672.2349852999905,673.2469912000233,673.2301920999307,673.831404699944,673.831404699944,None,675.7480670999503,None,left,1.0960679000709206,675.7480670999503,None,676.8673373999773,None,left,0.4887033000122756,676.8673373999773,None,,,,,,,,,,,,,,,,,,,,,,,PPT45,001,2022-07-08_12h30.50.761,ABstudy,2022.1.4,60.175640638268504,
AB,Lag1_T1P_T2P,1,P,P,5,6,4,5,11,owl,Did you see the owl?,0.12,0.016,JPG\,cellphone,tomato01,comb02a,candy,barnowl,stapler03a,toaster01,fan,feather03a,pen04b,lemon02,blankImage,blankImage,blankImage,blankImage,blankImage,blankImage,barnowl,,,,,,,,,,,,0,94,94,33,,,,,,,,,,,,,,,,,,,,,,,,,,,,,,,,,,,677.3894213999156,678.4020658999216,678.3856079999823,678.9570430999156,678.9570430999156,None,680.2987571000122,None,left,0.8334631000179797,680.2987571000122,None,681.1552478999365,None,right,0.42408490006346256,681.1552478999365,None,,,,,,,,,,,,,,,,,,,,,,,PPT45,001,2022-07-08_12h30.50.761,ABstudy,2022.1.4,60.175640638268504,
AB,Lag5_T1P_T2P,5,P,P,7,12,6,3,15,Eye patch,Did you see the Eye patch?,0.12,0.016,JPG\,candle01,paintbrush01,scissors01,fan,microscope,toothbrush03b,eyepatch,watermelon01,teabag,pencil01,lemon02,stapler05,shirt02,cauliflower01,cd,blankImage,blankImage,eyepatch,,,,,,,,,,,,0,95,95,108,,,,,,,,,,,,,,,,,,,,,,,,,,,,,,,,,,,681.6145257999888,682.6235266999574,682.6078691999428,683.1971948000137,683.1971948000137,None,684.9970083999215,None,left,0.5346673000603914,684.9970083999215,None,685.5593638999853,None,right,0.3406764999963343,685.5593638999853,None,,,,,,,,,,,,,,,,,,,,,,,PPT45,001,2022-07-08_12h30.50.761,ABstudy,2022.1.4,60.175640638268504,
AB,Lag1_T1P_T2P,1,P,P,8,9,7,4,13,Bird House,Did you see the Bird House?,0.12,0.016,JPG\,toiletpaper01a,mushroom01,medal02b,sandal,rice,cd,feather03a,birdhouse,stapler01,garlic01a,toaster01,belt02a,cigarette,blankImage,blankImage,blankImage,blankImage,birdhouse,,,,,,,,,,,,0,96,96,77,,,,,,,,,,,,,,,,,,,,,,,,,,,,,,,,,,,685.9353745999979,686.9445093999384,686.9290115999756,687.5931985999923,687.5070670999121,None,689.0883735999232,None,left,0.8276602000696585,689.0883735999232,None,689.9469529999187,None,right,0.42501449992414564,689.9469529999187,None,,,,,,,,,,,,,,,,,,,,,,,PPT45,001,2022-07-08_12h30.50.761,ABstudy,2022.1.4,60.175640638268504,
AB,Lag1_T1P_T2P,1,P,P,5,6,4,5,11,Light switch,Did you see the Light switch?,0.12,0.016,JPG\,iron01b,orange,birthdaycandle,potato02b,lightswitch01,stapler03b,key01,candle08b,celery,tableknife02,pen04b,blankImage,blankImage,blankImage,blankImage,blankImage,blankImage,lightswitch01,,,,,,,,,,,,0,97,97,18,,,,,,,,,,,,,,,,,,,,,,,,,,,,,,,,,,,690.4557661999715,691.4649411999853,691.4481498999521,692.0369586999295,692.0369586999295,None,693.3369235999417,None,left,0.6503804000094533,693.3369235999417,None,694.0181094999425,None,left,0.35365329997148365,694.0181094999425,None,,,,,,,,,,,,,,,,,,,,,,,PPT45,001,2022-07-08_12h30.50.761,ABstudy,2022.1.4,60.175640638268504,
AB,Lag5_T1A_T2P,5,A,P,6,11,5,5,16,bed,Did you see the bed?,0.12,0.016,JPG\,cellphone,tomato01,comb02a,candy,celery,cucumber,toaster01,fan,feather03a,pen04b,stapler03b,blueberry01,plate01b,cherry01,baseball01a,candle08b,blankImage,toolbox02,,,,,,,,,,,,0,98,98,274,,,,,,,,,,,,,,,,,,,,,,,,,,,,,,,,,,,694.4033388999524,695.4187978999689,695.3854249999858,695.9598711999133,695.9598711999133,None,697.9317332999781,None,right,0.8169473999878392,697.9317332999781,None,698.7723930999637,None,left,0.5520789000438526,698.7723930999637,None,,,,,,,,,,,,,,,,,,,,,,,PPT45,001,2022-07-08_12h30.50.761,ABstudy,2022.1.4,60.175640638268504,
AB,Lag1_T1A_T2P,1,A,P,8,9,7,4,13,Rabbit,Did you see the Rabbit?,0.12,0.016,JPG\,lamp04a,broccoli01a,alligator,garlic01a,dandelion,brownsugar,avocado01,ring01,stapler06,cellphone,medal02b,cd,calculator01,blankImage,blankImage,blankImage,blankImage,escalator,,,,,,,,,,,,0,99,99,254,,,,,,,,,,,,,,,,,,,,,,,,,,,,,,,,,,,699.421256099944,700.4240987999365,700.4074672999559,700.9909625999862,700.9909625999862,None,702.5559698999859,None,right,1.0243778999429196,702.5559698999859,None,703.6105383000104,None,left,0.43277049995958805,703.6105383000104,None,,,,,,,,,,,,,,,,,,,,,,,PPT45,001,2022-07-08_12h30.50.761,ABstudy,2022.1.4,60.175640638268504,
AB,Lag5_T1P_T2A,5,P,A,6,11,5,3,14,toy truck,Did you see the toy truck?,0.12,0.016,JPG\,globe,belt02a,sponge01,violin,fork03c,bluecheese,clock01a,microscope,balloon01b,scarf,teabag,pen04b,brick,brownsugar,blankImage,blankImage,blankImage,bluecheese,,,,,,,,,,,,0,100,100,204,,,,,,,,,,,,,,,,,,,,,,,,,,,,,,,,,,,704.0656765999738,705.0786287999945,705.0618813999463,705.6529205000261,705.6529205000261,None,707.3077537999488,None,right,0.9119610999478027,707.3077537999488,None,708.2504155000206,None,right,0.4572933000745252,708.2504155000206,None,,,,,,,,,,,,,,,,,,,,,,,PPT45,001,2022-07-08_12h30.50.761,ABstudy,2022.1.4,60.175640638268504,
AB,Lag5_T1A_T2P,5,A,P,5,10,4,4,14,Chefs hat,Did you see the Chefs hat?,0.12,0.016,JPG\,candle01,fork03c,plate01b,violin,computerkeyboard02,candy,calculator01,paintbrush01,cherry01,stapler06,teabag,banana01,cd,lighter01,blankImage,blankImage,blankImage,horseshoe,,,,,,,,,,,,0,101,101,278,,,,,,,,,,,,,,,,,,,,,,,,,,,,,,,,,,,708.7451602999354,709.7500708999578,709.7336697999854,710.3293565999484,710.3293565999484,None,712.0294756999938,None,left,0.766752100083977,712.0294756999938,None,712.8195131999673,None,left,1.3045706000411883,712.8195131999673,None,,,,,,,,,,,,,,,,,,,,,,,PPT45,001,2022-07-08_12h30.50.761,ABstudy,2022.1.4,60.175640638268504,
AB,Lag1_T1P_T2P,1,P,P,5,6,4,4,10,skateboard,Did you see the skateboard?,0.12,0.016,JPG\,binoculars01b,cymbal,pizza,candy,skateboard,stapler05,grape01,thermometer02b,speaker04,lemon02,blankImage,blankImage,blankImage,blankImage,blankImage,blankImage,blankImage,skateboard,,,,,,,,,,,,0,102,102,25,,,,,,,,,,,,,,,,,,,,,,,,,,,,,,,,,,,714.1564396999311,715.1718942999141,715.1384923999431,715.7247772999108,715.7247772999108,None,717.0444386999588,None,left,0.9830872999737039,717.0444386999588,None,718.0580137999495,None,right,1.274024200043641,718.0580137999495,None,,,,,,,,,,,,,,,,,,,,,,,PPT45,001,2022-07-08_12h30.50.761,ABstudy,2022.1.4,60.175640638268504,
AB,Lag1_T1P_T2P,1,P,P,5,6,4,5,11,beaver,Did you see the beaver?,0.12,0.016,JPG\,belt02a,sunglasses04,computerkeyboard02,cherry01,beaver,stapler03a,watch02a,dice05a,blueberry01,spoon01,match,blankImage,blankImage,blankImage,blankImage,blankImage,blankImage,beaver,,,,,,,,,,,,0,103,103,55,,,,,,,,,,,,,,,,,,,,,,,,,,,,,,,,,,,719.3618071000092,720.3770652000094,720.3436767000239,720.9174080999801,720.9174080999801,None,722.236839500023,None,left,0.942998299957253,722.236839500023,None,723.1975732999854,None,left,0.48634970001876354,723.1975732999854,None,,,,,,,,,,,,,,,,,,,,,,,PPT45,001,2022-07-08_12h30.50.761,ABstudy,2022.1.4,60.175640638268504,
AB,Lag5_T1P_T2A,5,P,A,8,13,7,4,17,fountain,Did you see the fountain?,0.12,0.016,JPG\,printer02,envelope03a,potato02b,calculator01,tableknife02,cigarette,ashtray01,parkfountain,broom01,greenolive,candle08b,battery02b,strawberry,candle01,foosballtable,tennisball01b,blankImage,parkfountain,,,,,,,,,,,,0,104,104,219,,,,,,,,,,,,,,,,,,,,,,,,,,,,,,,,,,,723.7204381999327,724.7316491999663,724.7150535000255,725.312090799911,725.312090799911,None,727.214959600009,None,left,0.8459517000010237,727.214959600009,None,728.084510799963,None,right,0.527552800020203,728.084510799963,None,,,,,,,,,,,,,,,,,,,,,,,PPT45,001,2022-07-08_12h30.50.761,ABstudy,2022.1.4,60.175640638268504,
AB,Lag5_T1P_T2P,5,P,P,7,12,6,3,15,marble,Did you see the marble?,0.12,0.016,JPG\,cigarette,ashtray01,envelope03a,sandal,chain01,cucumber,marble,tomato01,dandelion,candle01,lemon02,stapler03b,potato02b,cymbal,clock01a,blankImage,blankImage,marble,,,,,,,,,,,,0,105,105,146,,,,,,,,,,,,,,,,,,,,,,,,,,,,,,,,,,,728.6413230999606,729.653086300008,729.636348699918,730.2208799999207,730.2208799999207,None,732.1022528000176,None,left,0.6613851999863982,732.1022528000176,None,732.7893864000216,None,left,0.42998969997279346,732.7893864000216,None,,,,,,,,,,,,,,,,,,,,,,,PPT45,001,2022-07-08_12h30.50.761,ABstudy,2022.1.4,60.175640638268504,
AB,Lag5_T1P_T2A,5,P,A,7,12,6,3,15,Toy soldier,Did you see the Toy soldier?,0.12,0.016,JPG\,binoculars01b,cymbal,pizza,candy,paintbrush01,sponge01,toysoldier01b,thermometer02b,speaker04,lemon02,lipstick02a,strawberry,candle01,acorn,plate01b,blankImage,blankImage,toysoldier01b,,,,,,,,,,,,0,106,106,203,,,,,,,,,,,,,,,,,,,,,,,,,,,,,,,,,,,733.2815999999875,734.2908507999964,734.2741974999662,734.8620553999208,734.8620553999208,None,736.6234031999484,None,left,0.597289300058037,736.6234031999484,None,737.2437583999708,None,right,0.360047800000757,737.2437583999708,None,,,,,,,,,,,,,,,,,,,,,,,PPT45,001,2022-07-08_12h30.50.761,ABstudy,2022.1.4,60.175640638268504,
AB,Lag1_T1A_T2P,1,A,P,8,9,7,3,12,porcupine,Did you see the porcupine?,0.12,0.016,JPG\,celery,orange,scissors01,balloon01b,avocado01,printer02,mushroom01,sewingmachine01a,stapler01,dice05a,ashtray01,fan,blankImage,blankImage,blankImage,blankImage,blankImage,drumstick,,,,,,,,,,,,0,107,107,233,,,,,,,,,,,,,,,,,,,,,,,,,,,,,,,,,,,737.6313449000008,738.6452081999741,738.6285269999644,739.2642932999879,739.1887173999567,None,740.7153780999361,None,right,1.3442687999922782,740.7153780999361,None,742.0818950999528,None,left,0.6332793000619859,742.0818950999528,None,,,,,,,,,,,,,,,,,,,,,,,PPT45,001,2022-07-08_12h30.50.761,ABstudy,2022.1.4,60.175640638268504,
AB,Lag5_T1A_T2A,5,A,A,7,12,6,3,15,Christmas lights,Did you see the Christmas lights?,0.12,0.016,JPG\,toiletpaper01a,mushroom01,medal02b,sandal,rice,cd,feather03a,pizza,candle08b,garlic01a,toaster01,belt02a,cigarette,violin,lemon02,blankImage,blankImage,rockbass,,,,,,,,,,,,0,108,108,299,,,,,,,,,,,,,,,,,,,,,,,,,,,,,,,,,,,742.7372482999926,743.7502851999598,743.7336139000254,744.3254538999172,744.3254538999172,None,746.148276599939,None,right,2.6235434000846,746.148276599939,None,748.7885700999759,None,right,1.1436196999857202,748.7885700999759,None,,,,,,,,,,,,,,,,,,,,,,,PPT45,001,2022-07-08_12h30.50.761,ABstudy,2022.1.4,60.175640638268504,
AB,Lag1_T1A_T2A,1,A,A,8,9,7,4,13,sword fish,Did you see the sword fish?,0.12,0.016,JPG\,pizza,strawberry,potato02b,speaker04,battery02b,iron01b,dice05a,cellphone,globe,banana01,medal02b,baseball01a,toaster01,blankImage,blankImage,blankImage,blankImage,ear,,,,,,,,,,,,0,109,109,295,,,,,,,,,,,,,,,,,,,,,,,,,,,,,,,,,,,749.9612113999901,750.9741655000253,750.9574272999307,751.5467346999794,751.5467346999794,None,753.1913148999447,None,right,0.7560087000019848,753.1913148999447,None,753.9770913999528,None,right,0.5386275000637397,753.9770913999528,None,,,,,,,,,,,,,,,,,,,,,,,PPT45,001,2022-07-08_12h30.50.761,ABstudy,2022.1.4,60.175640638268504,
AB,Lag1_T1P_T2P,1,P,P,8,9,7,5,14,helicopter,Did you see the helicopter?,0.12,0.016,JPG\,broom01,globe,cellphone,tableknife02,cauliflower01,scissors01,ring01,helicopter,stapler01,toaster01,cigarette,grape01,microscope,cucumber,blankImage,blankImage,blankImage,helicopter,,,,,,,,,,,,0,110,110,85,,,,,,,,,,,,,,,,,,,,,,,,,,,,,,,,,,,754.5510125999572,755.5623886999674,755.5456925999606,756.1037067999132,756.1037067999132,None,757.86127210001,None,left,0.6385374999372289,757.86127210001,None,758.5319087000098,None,right,0.37617439997848123,758.5319087000098,None,,,,,,,,,,,,,,,,,,,,,,,PPT45,001,2022-07-08_12h30.50.761,ABstudy,2022.1.4,60.175640638268504,
AB,Lag1_T1P_T2A,1,P,A,8,9,7,5,14,Fridge,Did you see the Fridge?,0.12,0.016,JPG\,cherry01,cymbal,envelope03a,foosballtable,shirt02,cellphone,sewingmachine01a,fridge,battery02b,apple07,pencil01,screwdriver04b,strawberry,sunglasses04,blankImage,blankImage,blankImage,fridge,,,,,,,,,,,,0,111,111,173,,,,,,,,,,,,,,,,,,,,,,,,,,,,,,,,,,,758.9369013999822,759.949975800002,759.9331472999183,760.5207247999497,760.5207247999497,None,762.239521099953,None,left,0.5725214000558481,762.239521099953,None,762.8360409999732,None,right,0.4951072999974713,762.8360409999732,None,,,,,,,,,,,,,,,,,,,,,,,PPT45,001,2022-07-08_12h30.50.761,ABstudy,2022.1.4,60.175640638268504,
AB,Lag1_T1A_T2P,1,A,P,7,8,6,3,11,lion,Did you see the lion?,0.12,0.016,JPG\,sock01a,spoon01,alligator,comb02a,printer02,medal02b,lamp04a,stapler01,greenolive,computerkeyboard02,cauliflower01,blankImage,blankImage,blankImage,blankImage,blankImage,blankImage,bullet,,,,,,,,,,,,0,112,112,229,,,,,,,,,,,,,,,,,,,,,,,,,,,,,,,,,,,763.3553696000017,764.3708354999544,764.3374517000047,764.9196178999264,764.9196178999264,None,766.3086344000185,None,right,0.9503187000518665,766.3086344000185,None,767.2910458999686,None,right,1.2330268999794498,767.2910458999686,None,,,,,,,,,,,,,,,,,,,,,,,PPT45,001,2022-07-08_12h30.50.761,ABstudy,2022.1.4,60.175640638268504,
AB,Lag1_T1P_T2P,1,P,P,6,7,5,4,11,American football,Did you see the American football?,0.12,0.016,JPG\,toaster01,garlic01a,faucet,fan,comb02a,football,stapler06,watch02a,onion,blueberry01,toiletpaper01a,blankImage,blankImage,blankImage,blankImage,blankImage,blankImage,football,,,,,,,,,,,,0,113,113,12,,,,,,,,,,,,,,,,,,,,,,,,,,,,,,,,,,,768.5506723999279,769.5603784999112,769.5446762000211,770.2337346000131,770.1439332999289,None,771.4832176999189,None,left,0.656381200067699,771.4832176999189,None,772.1616726999637,None,left,0.7853333000093699,772.1616726999637,None,,,,,,,,,,,,,,,,,,,,,,,PPT45,001,2022-07-08_12h30.50.761,ABstudy,2022.1.4,60.175640638268504,
AB,Lag1_T1P_T2P,1,P,P,5,6,4,3,9,Pumpkin,Did you see the Pumpkin?,0.12,0.016,JPG\,binoculars01b,speaker04,sandal,envelope03a,pumpkin,stapler03b,battery02b,chain01,measuringcup01,blankImage,blankImage,blankImage,blankImage,blankImage,blankImage,blankImage,blankImage,pumpkin,,,,,,,,,,,,0,114,114,23,,,,,,,,,,,,,,,,,,,,,,,,,,,,,,,,,,,772.9849644999485,773.9973197999643,773.9805162999546,774.5778489999939,774.5778489999939,None,775.6966449000174,None,left,0.8028893999289721,775.6966449000174,None,776.5165910000214,None,right,1.3026014999486506,776.5165910000214,None,,,,,,,,,,,,,,,,,,,,,,,PPT45,001,2022-07-08_12h30.50.761,ABstudy,2022.1.4,60.175640638268504,
AB,Lag1_T1A_T2P,1,A,P,8,9,7,5,14,calendar,Did you see the calendar?,0.12,0.016,JPG\,foosballtable,candy,envelope03a,microscope,pencil01,leaf02a,scissors01,watermelon01,stapler04b,dandelion,pineapple01a,hammer01,celery,thermometer02b,blankImage,blankImage,blankImage,trampoline,,,,,,,,,,,,0,115,115,245,,,,,,,,,,,,,,,,,,,,,,,,,,,,,,,,,,,777.8569347999291,778.8687376999296,778.8520045999903,779.3540748999221,779.3540748999221,None,781.1390831000172,None,right,0.928353099967353,781.1390831000172,None,782.0887681000168,None,right,0.6504008999327198,782.0887681000168,None,,,,,,,,,,,,,,,,,,,,,,,PPT45,001,2022-07-08_12h30.50.761,ABstudy,2022.1.4,60.175640638268504,
AB,Lag5_T1P_T2P,5,P,P,8,13,7,3,16,banjo,Did you see the banjo?,0.12,0.016,JPG\,celery,brownsugar,key01,sunglasses04,leaf02a,toothbrush03b,dice05a,banjo,scarf,globe,paintbrush01,scissors01,stapler03a,battery02b,feather03a,cymbal,blankImage,banjo,,,,,,,,,,,,0,116,116,102,,,,,,,,,,,,,,,,,,,,,,,,,,,,,,,,,,,782.7656430000206,783.7735909000039,783.7569031999446,784.345428599976,784.345428599976,None,786.2291996999411,None,left,0.7905304000014439,786.2291996999411,None,787.0449002999812,None,right,0.48672109993640333,787.0449002999812,None,,,,,,,,,,,,,,,,,,,,,,,PPT45,001,2022-07-08_12h30.50.761,ABstudy,2022.1.4,60.175640638268504,
AB,Lag5_T1P_T2P,5,P,P,7,12,6,3,15,Rollerblade,Did you see the Rollerblade?,0.12,0.016,JPG\,hammer01,sponge01,toaster01,cherry01,feather03a,mushroom01,rollerblade,pencil01,tennisball01b,brick,clock04,stapler06,teabag,garlic01a,envelope03a,blankImage,blankImage,rollerblade,,,,,,,,,,,,0,117,117,116,,,,,,,,,,,,,,,,,,,,,,,,,,,,,,,,,,,787.5675550999586,788.5784293999895,788.5616802999284,789.1429231999209,789.1429231999209,None,790.9501958999317,None,left,1.1183389000361785,790.9501958999317,None,792.0986597000156,None,left,0.6406919999280944,792.0986597000156,None,,,,,,,,,,,,,,,,,,,,,,,PPT45,001,2022-07-08_12h30.50.761,ABstudy,2022.1.4,60.175640638268504,
AB,Lag1_T1A_T2P,1,A,P,6,7,5,3,10,curtain,Did you see the curtain?,0.12,0.016,JPG\,carrot01,greenolive,fork03c,chain01,ashtray01,watermelon01,stapler06,printer02,comb02a,toaster01,blankImage,blankImage,blankImage,blankImage,blankImage,blankImage,blankImage,birdhouse,,,,,,,,,,,,0,118,118,249,,,,,,,,,,,,,,,,,,,,,,,,,,,,,,,,,,,792.7699436999392,793.7836241999175,793.766845199978,794.4135352999438,794.4135352999438,None,795.6771690999158,None,right,0.7741923000430688,795.6771690999158,None,796.4697513999417,None,left,0.43737160007003695,796.4697513999417,None,,,,,,,,,,,,,,,,,,,,,,,PPT45,001,2022-07-08_12h30.50.761,ABstudy,2022.1.4,60.175640638268504,
AB,Lag5_T1P_T2P,5,P,P,5,10,4,5,15,Eye,Did you see the Eye?,0.12,0.016,JPG\,apple07,toiletpaper01a,pizza,dandelion,eye,eraser,microscope,violin,orange,stapler01,balloon01b,sandal,lighter01,fan,book01b,blankImage,blankImage,eye,,,,,,,,,,,,0,119,119,171,,,,,,,,,,,,,,,,,,,,,,,,,,,,,,,,,,,796.9409458999289,797.9544020999456,797.9376887999242,798.5934958999278,798.512077899999,None,800.3173640000168,None,left,0.6460213999962434,800.3173640000168,None,800.990570899914,None,right,0.35670789994765073,800.990570899914,None,,,,,,,,,,,,,,,,,,,,,,,PPT45,001,2022-07-08_12h30.50.761,ABstudy,2022.1.4,60.175640638268504,
AB,Lag5_T1A_T2P,5,A,P,8,13,7,5,18,fish,Did you see the fish?,0.12,0.016,JPG\,scissors01,grape01,mushroom01,toiletpaper01a,greenolive,pizza,cigarette,ashtray01,carrot01,pineapple01a,foosballtable,lipstick02a,stapler04b,tambourine02,potato02b,violin,blankImage,chimney,,,,,,,,,,,,0,120,120,283,,,,,,,,,,,,,,,,,,,,,,,,,,,,,,,,,,,801.3765339999227,802.3920014000032,802.358572899946,802.9366950999247,802.9366950999247,None,804.908694999991,None,right,1.1508088000118732,804.908694999991,None,806.0793303999817,None,left,0.7156270999694243,806.0793303999817,None,,,,,,,,,,,,,,,,,,,,,,,PPT45,001,2022-07-08_12h30.50.761,ABstudy,2022.1.4,60.175640638268504,
AB,Lag5_T1A_T2A,5,A,A,5,10,4,4,14,music sheet,Did you see the music sheet?,0.12,0.016,JPG\,celery,pencil01,fan,foosballtable,iron01b,shirt02,potato02b,fork03c,button01,pineapple01a,baseball01a,printer02,cauliflower01,dandelion,blankImage,blankImage,blankImage,licenseplate,,,,,,,,,,,,0,121,121,304,,,,,,,,,,,,,,,,,,,,,,,,,,,,,,,,,,,806.8183442999143,807.830980699975,807.8142298000166,808.4018265999621,808.4018265999621,None,810.0027212999994,None,right,0.8085097000002861,810.0027212999994,None,810.8335032999748,None,right,0.48249849991407245,810.8335032999748,None,,,,,,,,,,,,,,,,,,,,,,,PPT45,001,2022-07-08_12h30.50.761,ABstudy,2022.1.4,60.175640638268504,
AB,Lag5_T1P_T2A,5,P,A,8,13,7,5,18,Nunchuks,Did you see the Nunchuks?,0.12,0.016,JPG\,celery,tennisball01b,calculator01,pear01,screw02,orange,button01,nunchuk,onion,apple07,iron01b,brownsugar,banana01,paintbrush01,dandelion,toothbrush03b,blankImage,nunchuk,,,,,,,,,,,,0,122,122,218,,,,,,,,,,,,,,,,,,,,,,,,,,,,,,,,,,,811.3363554999232,812.351712099975,812.3183301999234,812.8942024999997,812.8942024999997,None,814.8349873999832,None,left,0.6726920999353752,814.8349873999832,None,815.5413861999987,None,right,0.34188910003285855,815.5413861999987,None,,,,,,,,,,,,,,,,,,,,,,,PPT45,001,2022-07-08_12h30.50.761,ABstudy,2022.1.4,60.175640638268504,
AB,Lag5_T1P_T2P,5,P,P,8,13,7,5,18,Kiwi,Did you see the Kiwi?,0.12,0.016,JPG\,violin,pizza,toothbrush03b,pineapple01a,banana01,ashtray01,candy,kiwi03,clock04,sock01a,microscope,speaker04,stapler04b,sunglasses04,lipstick02a,blueberry01,blankImage,kiwi03,,,,,,,,,,,,0,123,123,111,,,,,,,,,,,,,,,,,,,,,,,,,,,,,,,,,,,815.9171852999134,816.9241766999476,816.9088475999888,817.5787379000103,817.5047409000108,None,819.5082781999372,None,left,0.39914720004890114,819.5082781999372,None,819.9265013999538,None,left,0.3497507000574842,819.9265013999538,None,,,,,,,,,,,,,,,,,,,,,,,PPT45,001,2022-07-08_12h30.50.761,ABstudy,2022.1.4,60.175640638268504,
AB,Lag1_T1P_T2P,1,P,P,7,8,6,5,13,school bus,Did you see the school bus?,0.12,0.016,JPG\,aceofdiamond,banana01,scissors01,pig,shirt02,leaf02a,schoolbus,stapler05,fork03c,tableknife02,balloon01b,match,toothbrush03b,blankImage,blankImage,blankImage,blankImage,schoolbus,,,,,,,,,,,,0,124,124,24,,,,,,,,,,,,,,,,,,,,,,,,,,,,,,,,,,,820.2954885999206,821.3108050000155,821.277483999962,821.8730818999466,821.8730818999466,None,823.4623351999326,None,left,1.9968961999984458,823.4623351999326,None,825.4827223999891,None,right,0.6806522000115365,825.4827223999891,None,,,,,,,,,,,,,,,,,,,,,,,PPT45,001,2022-07-08_12h30.50.761,ABstudy,2022.1.4,60.175640638268504,
AB,Lag5_T1P_T2P,5,P,P,5,10,4,5,15,scorpion,Did you see the scorpion?,0.12,0.016,JPG\,fan,tomato01,candy,screwdriver04b,scorpion,cd,thermometer02b,apple07,button01,stapler01,brownsugar,lighter01,clock01a,envelope03a,clock04,blankImage,blankImage,scorpion,,,,,,,,,,,,0,125,125,97,,,,,,,,,,,,,,,,,,,,,,,,,,,,,,,,,,,826.190615199972,827.1997093999526,827.1841597999446,827.750009899959,827.750009899959,None,829.601926399977,None,left,0.4418108999961987,829.601926399977,None,830.0711943999631,None,left,0.33210380002856255,830.0711943999631,None,,,,,,,,,,,,,,,,,,,,,,,PPT45,001,2022-07-08_12h30.50.761,ABstudy,2022.1.4,60.175640638268504,
AB,Lag1_T1P_T2P,1,P,P,5,6,4,5,11,Guitar case,Did you see the Guitar case?,0.12,0.016,JPG\,broccoli01a,scissors01,toothbrush03b,foosballtable,guitarcase,stapler05,hammer01,toiletpaper01a,cd,garlic01a,carrot01,blankImage,blankImage,blankImage,blankImage,blankImage,blankImage,guitarcase,,,,,,,,,,,,0,126,126,14,,,,,,,,,,,,,,,,,,,,,,,,,,,,,,,,,,,830.4301207999233,831.4377621000167,831.4209975999547,832.0038690000074,832.0038690000074,None,833.3270239999983,None,left,0.6526375999674201,833.3270239999983,None,834.0067804999417,None,right,0.29301819996908307,834.0067804999417,None,,,,,,,,,,,,,,,,,,,,,,,PPT45,001,2022-07-08_12h30.50.761,ABstudy,2022.1.4,60.175640638268504,
AB,Lag1_T1A_T2P,1,A,P,5,6,4,3,9,Spider,Did you see the Spider?,0.12,0.016,JPG\,pen04b,speaker04,lighter01,cherry01,8ball,stapler04b,sock01a,toothbrush03b,broom01,blankImage,blankImage,blankImage,blankImage,blankImage,blankImage,blankImage,blankImage,bridge,,,,,,,,,,,,0,127,127,250,,,,,,,,,,,,,,,,,,,,,,,,,,,,,,,,,,,834.3687678999268,835.3751155999489,835.3582996999612,835.9480578999501,835.9480578999501,None,837.0376225999789,None,right,1.0937164999777451,837.0376225999789,None,838.1611764000263,None,left,0.28327739995438606,838.1611764000263,None,,,,,,,,,,,,,,,,,,,,,,,PPT45,001,2022-07-08_12h30.50.761,ABstudy,2022.1.4,60.175640638268504,
AB,Lag1_T1P_T2P,1,P,P,8,9,7,5,14,lawn mower,Did you see the lawn mower?,0.12,0.016,JPG\,battery02b,sunglasses04,pear01,tennisball01b,clock01a,speaker04,binoculars01b,lawnmower,stapler05,pineapple01a,avocado01,grape01,blueberry01,violin,blankImage,blankImage,blankImage,lawnmower,,,,,,,,,,,,0,128,128,46,,,,,,,,,,,,,,,,,,,,,,,,,,,,,,,,,,,838.4672365000006,839.4791792000178,839.462550999946,840.079682999989,840.079682999989,None,841.7745265000267,None,left,0.35720779991243035,841.7745265000267,None,842.1499626999721,None,left,0.30108290002681315,842.1499626999721,None,,,,,,,,,,,,,,,,,,,,,,,PPT45,001,2022-07-08_12h30.50.761,ABstudy,2022.1.4,60.175640638268504,
AB,Lag1_T1A_T2P,1,A,P,8,9,7,4,13,Fireplace,Did you see the Fireplace?,0.12,0.016,JPG\,scissors01,ashtray01,garlic01a,medal02b,cigarette,candle08b,leaf02a,envelope03a,stapler06,rice,toiletpaper01a,greenolive,cymbal,blankImage,blankImage,blankImage,blankImage,dartboard,,,,,,,,,,,,0,129,129,252,,,,,,,,,,,,,,,,,,,,,,,,,,,,,,,,,,,842.4843030999182,843.4995661999565,843.4661903999513,844.036029299954,844.036029299954,None,845.5530952999834,None,right,0.9697101999772713,845.5530952999834,None,846.5526139999274,None,left,0.2592968000099063,846.5526139999274,None,,,,,,,,,,,,,,,,,,,,,,,PPT45,001,2022-07-08_12h30.50.761,ABstudy,2022.1.4,60.175640638268504,
AB,Lag5_T1P_T2A,5,P,A,6,11,5,5,16,hat,Did you see the hat?,0.12,0.016,JPG\,apple07,toiletpaper01a,pizza,dandelion,greenolive,pilgrimhat,microscope,violin,orange,lipstick02a,balloon01b,sandal,lighter01,fan,book01b,sewingmachine01a,blankImage,pilgrimhat,,,,,,,,,,,,0,130,130,206,,,,,,,,,,,,,,,,,,,,,,,,,,,,,,,,,,,846.8384820999345,847.8539093999425,847.8205995999742,848.4051743999589,848.4051743999589,None,850.4010397000238,None,left,1.449962499900721,850.4010397000238,None,851.8745737000136,None,right,0.5525014000013471,851.8745737000136,None,,,,,,,,,,,,,,,,,,,,,,,PPT45,001,2022-07-08_12h30.50.761,ABstudy,2022.1.4,60.175640638268504,
AB,Lag5_T1A_T2A,5,A,A,5,10,4,5,15,flower,Did you see the flower?,0.12,0.016,JPG\,clock01a,cellphone,toaster01,toothbrush03b,cauliflower01,microscope,comb02a,paintbrush01,scarf,clock04,sponge01,iron01b,watch02a,celery,ring01,blankImage,blankImage,stepladder,,,,,,,,,,,,0,131,131,303,,,,,,,,,,,,,,,,,,,,,,,,,,,,,,,,,,,852.46152849996,853.4762373999692,853.4428426999366,854.0304813999683,854.0304813999683,None,855.8903531000251,None,right,1.057720199925825,855.8903531000251,None,856.9799825999653,None,right,1.5039146000053734,856.9799825999653,None,,,,,,,,,,,,,,,,,,,,,,,PPT45,001,2022-07-08_12h30.50.761,ABstudy,2022.1.4,60.175640638268504,
AB,Lag1_T1P_T2A,1,P,A,7,8,6,3,11,Armadillo,Did you see the Armadillo?,0.12,0.016,JPG\,clock01a,cellphone,toaster01,toothbrush03b,cauliflower01,microscope,armadillo,paintbrush01,scarf,clock04,sponge01,blankImage,blankImage,blankImage,blankImage,blankImage,blankImage,armadillo,,,,,,,,,,,,0,132,132,180,,,,,,,,,,,,,,,,,,,,,,,,,,,,,,,,,,,858.5204209999647,859.5324019999243,859.5156371999765,860.1086943999398,860.1086943999398,None,861.4847579000052,None,left,0.8627341999672353,861.4847579000052,None,862.3686026999494,None,right,0.8902468000305817,862.3686026999494,None,,,,,,,,,,,,,,,,,,,,,,,PPT45,001,2022-07-08_12h30.50.761,ABstudy,2022.1.4,60.175640638268504,
AB,Lag1_T1P_T2P,1,P,P,5,6,4,3,9,elephant,Did you see the elephant?,0.12,0.016,JPG\,celery,brownsugar,key01,sunglasses04,arugula,stapler04b,dice05a,tennisball01b,scarf,blankImage,blankImage,blankImage,blankImage,blankImage,blankImage,blankImage,blankImage,arugula,,,,,,,,,,,,0,133,133,54,,,,,,,,,,,,,,,,,,,,,,,,,,,,,,,,,,,863.2920510999393,864.3038232999388,864.2873257999308,864.8600759999827,864.8600759999827,None,865.9706963999197,None,right,0.8015249000163749,865.9706963999197,None,866.7894399999641,None,left,0.5815206000115722,866.7894399999641,None,,,,,,,,,,,,,,,,,,,,,,,PPT45,001,2022-07-08_12h30.50.761,ABstudy,2022.1.4,60.175640638268504,
AB,Lag1_T1A_T2A,1,A,A,8,9,7,3,12,popcorn,Did you see the popcorn?,0.12,0.016,JPG\,brownsugar,candle01,match,printer02,broom01,balloon01b,belt02a,potato02b,computerkeyboard02,feather03a,rice,mushroom01,blankImage,blankImage,blankImage,blankImage,blankImage,banjo,,,,,,,,,,,,0,134,134,290,,,,,,,,,,,,,,,,,,,,,,,,,,,,,,,,,,,867.3933910999913,868.4077488000039,868.3743531999644,868.8750656999182,868.8750656999182,None,870.4389519999968,None,right,0.7646815999178216,870.4389519999968,None,871.2283267999301,None,right,0.4708785000257194,871.2283267999301,None,,,,,,,,,,,,,,,,,,,,,,,PPT45,001,2022-07-08_12h30.50.761,ABstudy,2022.1.4,60.175640638268504,
AB,Lag1_T1P_T2P,1,P,P,7,8,6,4,12,skunk,Did you see the skunk?,0.12,0.016,JPG\,fan,tomato01,candy,screwdriver04b,alligator,cd,skunk,stapler03b,button01,plate01b,brownsugar,lighter01,blankImage,blankImage,blankImage,blankImage,blankImage,skunk,,,,,,,,,,,,0,135,135,48,,,,,,,,,,,,,,,,,,,,,,,,,,,,,,,,,,,871.7325463999296,872.7453827999998,872.728682099958,873.3281466999324,873.3281466999324,None,874.7368788999738,None,left,0.8189877999247983,874.7368788999738,None,875.5818275000202,None,left,0.3418132000369951,875.5818275000202,None,,,,,,,,,,,,,,,,,,,,,,,PPT45,001,2022-07-08_12h30.50.761,ABstudy,2022.1.4,60.175640638268504,
AB,Lag5_T1A_T2P,5,A,P,7,12,6,3,15,Car,Did you see the Car?,0.12,0.016,JPG\,lighter01,hammer01,spoon01,chain01,cymbal,sponge01,lipstick02a,alligator,pig,watermelon01,cauliflower01,stapler03b,broccoli01a,tableknife02,tennisball01b,blankImage,blankImage,wallclock,,,,,,,,,,,,0,136,136,277,,,,,,,,,,,,,,,,,,,,,,,,,,,,,,,,,,,875.9550616999622,876.9664739000145,876.9498359999852,877.5175900999457,877.5175900999457,None,879.3695952999406,None,right,0.7053076000884175,879.3695952999406,None,880.1038949999493,None,left,0.25882430002093315,880.1038949999493,None,,,,,,,,,,,,,,,,,,,,,,,PPT45,001,2022-07-08_12h30.50.761,ABstudy,2022.1.4,60.175640638268504,
