TrialType,CondType,Lag,T1_PA,T2_PA,T1Loc,T2Loc,PreDistractor,PostDistractor,TotalImg,cueWord,T1cue,StimLength,isi,PicFolder,Img1,Img2,Img3,Img4,Img5,Img6,Img7,Img8,Img9,Img10,Img11,Img12,Img13,Img14,Img15,Img16,Img17,T1_Identity,ImageType,T1PA,T2PA,Picture,Image,FullPathName,FilePath,Practice_Trials.thisRepN,Practice_Trials.thisTrialN,Practice_Trials.thisN,Practice_Trials.thisIndex,trials.thisRepN,trials.thisTrialN,trials.thisN,trials.thisIndex,trials_2.thisRepN,trials_2.thisTrialN,trials_2.thisN,trials_2.thisIndex,Practice_Ins.started,Practice_Ins.stopped,End_Prac_Ins.keys,End_Prac_Ins.rt,End_Prac_Ins.started,End_Prac_Ins.stopped,text_2.started,text_2.stopped,Fixation_Cross_2.started,Fixation_Cross_2.stopped,Rapid_Image_Present_2.started,Rapid_Image_Present_2.stopped,key_resp.keys,key_resp.rt,key_resp.started,key_resp.stopped,T1Response_2.started,T1Response_2.stopped,T2Response_2.started,T2Response_2.stopped,key_resp_4.keys,key_resp_4.rt,key_resp_4.started,key_resp_4.stopped,text.started,text.stopped,End_Instructions.keys,End_Instructions.rt,End_Instructions.started,End_Instructions.stopped,text_5.started,text_5.stopped,FC.started,FC.stopped,Rapid_Image_Present.started,Rapid_Image_Present.stopped,T1Response.started,T1Response.stopped,key_resp_2.keys,key_resp_2.rt,key_resp_2.started,key_resp_2.stopped,T2Response.started,T2Response.stopped,key_resp_3.keys,key_resp_3.rt,key_resp_3.started,key_resp_3.stopped,text_6.started,text_6.stopped,Fin_ins.keys,Fin_ins.rt,Fin_ins.started,Fin_ins.stopped,MemTest.started,MemTest.stopped,MemResponse.keys,MemResponse.rt,MemResponse.started,MemResponse.stopped,Display.started,Display.stopped,text_7.started,text_7.stopped,endOfExperiment.started,endOfExperiment.stopped,key_resp_5.keys,key_resp_5.rt,key_resp_5.started,key_resp_5.stopped,participant,session,date,expName,psychopyVersion,frameRate,
,,,,,,,,,,,,,,,,,,,,,,,,,,,,,,,,,,,,,,,,,,,,,,,,,,,,14.868283400079235,None,space,16.583351199980825,14.868283400079235,None,,,,,,,,,,,,,,,,,,,,,,,,,,,,,,,,,,,,,,,,,,,,,,,,,,,,,,,,,,,,,,,,,PPT54,001,2022-07-15_12h01.55.598,ABstudy,2022.1.4,59.92875668179853,
AB_Prac,Lag1_T1A_T2A,1,A,A,8,9,7,3,12,Moose,Did you see the Moose?,0.5,0.016,JPG\,clothespin03b,corkscrew03a,drillbit03a,fusilli03a,needlenosepliers01,perfume01a,pistachio,scrubbingbrush05b,spatula03,toothpastetube,hinge,toydinosaur,blankImage,blankImage,blankImage,blankImage,blankImage,None,,,,,,,,0,0,0,10,,,,,,,,,,,,,,,31.539235800039023,32.547247000038624,32.530632300069556,33.234408600023016,33.14889660011977,None,right,5.4950192999094725,39.18861240008846,None,39.18861240008846,None,44.70942770014517,None,right,1.2059464000631124,44.70942770014517,None,,,,,,,,,,,,,,,,,,,,,,,,,,,,,,,,,,,,,,,,,,,,,,,PPT54,001,2022-07-15_12h01.55.598,ABstudy,2022.1.4,59.92875668179853,
AB_Prac,Lag1_T1P_T2P,1,P,P,6,7,5,5,12,triangle,Did you see the triangle?,0.5,0.016,JPG\,ginger,mousetrap,plum01,slipper01b,dropper01,triangle,stapler04b,pants,raspberry01,rope03,scale01a,vase01,blankImage,blankImage,blankImage,blankImage,blankImage,triangle,,,,,,,,0,1,1,1,,,,,,,,,,,,,,,46.00811509997584,47.01160680013709,46.99510330008343,47.597038300009444,47.597038300009444,None,left,0.476186899933964,53.552066900068894,None,53.552066900068894,None,54.05318920011632,None,left,0.5905695001129061,54.05318920011632,None,,,,,,,,,,,,,,,,,,,,,,,,,,,,,,,,,,,,,,,,,,,,,,,PPT54,001,2022-07-15_12h01.55.598,ABstudy,2022.1.4,59.92875668179853,
AB_Prac,Lag5_T1P_T2A,5,P,A,6,11,5,5,16,bread,Did you see the bread?,0.5,0.016,JPG\,cleaver01,clipboard,dustpan,hikingshoe01,notebook03a,baguette01,playingcard,pliers02b,styrofoamcup,rollingpin01a,swimgoggles,wineglass01,fryingpan02a,safetypin,syringe01,thimble,blankImage,baguette01,,,,,,,,0,2,2,8,,,,,,,,,,,,,,,54.683512800140306,55.68738820008002,55.67065310012549,56.26082060020417,56.26082060020417,None,left,0.9456731998361647,64.26742360019125,None,64.26742360019125,None,65.22966450010426,None,right,0.437538200058043,65.22966450010426,None,,,,,,,,,,,,,,,,,,,,,,,,,,,,,,,,,,,,,,,,,,,,,,,PPT54,001,2022-07-15_12h01.55.598,ABstudy,2022.1.4,59.92875668179853,
AB_Prac,Lag5_T1A_T2P,5,A,P,6,11,5,3,14,dog,Did you see the dog?,0.5,0.016,JPG\,bucket01a,doorlock,cookiecutter,fireextinguisher01,gluestick,highlighter02b,sportbag,spraybottle01,suitcase,thread02,stapler05,walnut01c,icecubetray01a,vikingmask01b,blankImage,blankImage,blankImage,None,,,,,,,,0,3,3,9,,,,,,,,,,,,,,,65.69927260000259,66.71437590010464,66.68099860008806,67.27131070010364,67.27131070010364,None,right,0.528668399900198,74.34686910011806,None,74.34686910011806,None,74.90611930005252,None,left,0.4495079000480473,74.90611930005252,None,,,,,,,,,,,,,,,,,,,,,,,,,,,,,,,,,,,,,,,,,,,,,,,PPT54,001,2022-07-15_12h01.55.598,ABstudy,2022.1.4,59.92875668179853,
AB_Prac,Lag1_T1P_T2A,1,P,A,8,9,7,5,14,flower,Did you see the flower?,0.5,0.016,JPG\,razor01,axe01,binder03b,bowl01,kettle01,lettuce,lime,plasticflower01b,mitten04,pencilcase01,plunger02,strawbasket01,toothpick02,wallet02a,blankImage,blankImage,blankImage,plasticflower01b,,,,,,,,0,4,4,5,,,,,,,,,,,,,,,75.37327930005267,76.37369410018437,76.35690830019303,76.95044290018268,76.95044290018268,None,left,0.6575984000228345,83.98595250002109,None,83.98595250002109,None,84.6656439001672,None,right,0.33782749995589256,84.6656439001672,None,,,,,,,,,,,,,,,,,,,,,,,,,,,,,,,,,,,,,,,,,,,,,,,PPT54,001,2022-07-15_12h01.55.598,ABstudy,2022.1.4,59.92875668179853,
AB_Prac,Lag5_T1P_T2P,5,P,P,5,10,4,5,15,washing machine,Did you see the washing machine?,0.5,0.016,JPG\,waterbottle03,wheel01,flashlight02b,zucchini01,washingmachine,headphones02b,nutcracker01,paintroller01,paperclip03,stapler06,ribbon04,electricrazor,bottleofredwine01,pitabread,pot02a,blankImage,blankImage,washingmachine,,,,,,,,0,5,5,4,,,,,,,,,,,,,,,85.03836210002191,86.05050260014832,86.03383049997501,86.6278763001319,86.6278763001319,None,left,0.38234460004605353,94.11735270009376,None,94.11735270009376,None,94.52506070001982,None,left,0.3749301000498235,94.52506070001982,None,,,,,,,,,,,,,,,,,,,,,,,,,,,,,,,,,,,,,,,,,,,,,,,PPT54,001,2022-07-15_12h01.55.598,ABstudy,2022.1.4,59.92875668179853,
AB_Prac,Lag1_T1P_T2P,1,P,P,8,9,7,5,14,Tennis racket,Did you see the Tennis racket?,0.5,0.016,JPG\,coconut,computermouse06,croissant01,deodorant02a,pillow01a,peanut01,boot02b,tennisracket,stapler03b,crayon,eggplant,marker01a,plant01,radish01,blankImage,blankImage,blankImage,tennisracket,,,,,,,,0,6,6,0,,,,,,,,,,,,,,,95.0257930001244,96.027140900027,96.01043180003762,96.65052820020355,96.65052820020355,None,left,0.4402995998971164,103.53988880012184,None,103.53988880012184,None,104.00173150002956,None,left,0.3217681001406163,104.00173150002956,None,,,,,,,,,,,,,,,,,,,,,,,,,,,,,,,,,,,,,,,,,,,,,,,PPT54,001,2022-07-15_12h01.55.598,ABstudy,2022.1.4,59.92875668179853,
AB_Prac,Lag5_T1A_T2A,5,A,A,6,11,5,5,16,castle,Did you see the castle?,0.5,0.016,JPG\,tape02a,englishmuffin,flask,ladle02a,monitor,peach01,keychain,squeegee01b,telephone01b,whisk,walkman,syringe02,baguette01,coaster,box01a,coffeepot03a,blankImage,None,,,,,,,,0,7,7,11,,,,,,,,,,,,,,,104.35700660012662,105.36952080018818,105.35290760011412,105.96381910005584,105.96381910005584,None,right,0.6088346000760794,113.99452599999495,None,113.99452599999495,None,114.62879690015689,None,right,0.2864514999091625,114.62879690015689,None,,,,,,,,,,,,,,,,,,,,,,,,,,,,,,,,,,,,,,,,,,,,,,,PPT54,001,2022-07-15_12h01.55.598,ABstudy,2022.1.4,59.92875668179853,
AB_Prac,Lag5_T1P_T2A,5,P,A,6,11,5,5,16,Wheat,Did you see the Wheat?,0.5,0.016,JPG\,bottleopener01,dentalfloss03b,cooler01,icecreamcone01a,paperclip01b,wheat,pencilsharpener02a,plasticbasket01a,toycar04,apricot,hairclip02,rock01a,honeydewmelon,antenna,blackberry,cardboardbox,blankImage,wheat,,,,,,,,0,8,8,7,,,,,,,,,,,,,,,114.95401760004461,115.9634416999761,115.94678880018182,116.52041370002553,116.52041370002553,None,left,0.6733995000831783,124.5297285001725,None,124.5297285001725,None,125.22261890000664,None,right,0.5339315999299288,125.22261890000664,None,,,,,,,,,,,,,,,,,,,,,,,,,,,,,,,,,,,,,,,,,,,,,,,PPT54,001,2022-07-15_12h01.55.598,ABstudy,2022.1.4,59.92875668179853,
AB_Prac,Lag5_T1P_T2P,5,P,P,5,10,4,5,15,Vulture,Did you see the Vulture?,0.5,0.016,JPG\,shorts01,toast,ramekin01,bib,vulture,cracker02,date,glasses01a,hat03b,stapler01,measuringtape01,nail,pill,drum01,starfish01,blankImage,blankImage,vulture,,,,,,,,0,9,9,3,,,,,,,,,,,,,,,125.86800620006397,126.87457270012237,126.85786970006302,127.45418680016883,127.45418680016883,None,left,0.3990688999183476,134.92460920009762,None,134.92460920009762,None,135.34999300003983,None,left,0.3012008999940008,135.34999300003983,None,,,,,,,,,,,,,,,,,,,,,,,,,,,,,,,,,,,,,,,,,,,,,,,PPT54,001,2022-07-15_12h01.55.598,ABstudy,2022.1.4,59.92875668179853,
AB_Prac,Lag5_T1P_T2P,5,P,P,7,12,6,3,15,vacuum,Did you see the vacuum?,0.5,0.016,JPG\,fork07b,lightbulb01,manshoe,saw02b,shoelace,soap03a,vacuumcleaner01,floortile01,necklace,doll,cabbage,stapler03a,hanger02a,laptop01a,nailpolish03b,blankImage,blankImage,vacuumcleaner01,,,,,,,,0,10,10,2,,,,,,,,,,,,,,,135.69098700000905,136.70086710015312,136.6842628000304,137.25835130014457,137.25835130014457,None,left,0.41981550003401935,144.78480310016312,None,144.78480310016312,None,145.22606510017067,None,left,0.2647506999783218,145.22606510017067,None,,,,,,,,,,,,,,,,,,,,,,,,,,,,,,,,,,,,,,,,,,,,,,,PPT54,001,2022-07-15_12h01.55.598,ABstudy,2022.1.4,59.92875668179853,
AB_Prac,Lag1_T1P_T2A,1,P,A,5,6,4,5,11,Webcam,Did you see the Webcam?,0.5,0.016,JPG\,pictureframe04,binder03b,straw,adjustablewrench01b,webcam,cane,hairdryer02a,icepack,kitchenscale01a,lifejacket,piggybank,blankImage,blankImage,blankImage,blankImage,blankImage,blankImage,webcam,,,,,,,,0,11,11,6,,,,,,,,,,,,,,,145.58709500008263,146.5940692999866,146.57742660003714,147.19044210016727,147.19044210016727,None,left,0.5807376999873668,152.62308980012313,None,152.62308980012313,None,153.23407550016418,None,right,0.3132060000207275,153.23407550016418,None,,,,,,,,,,,,,,,,,,,,,,,,,,,,,,,,,,,,,,,,,,,,,,,PPT54,001,2022-07-15_12h01.55.598,ABstudy,2022.1.4,59.92875668179853,
,,,,,,,,,,,,,,,,,,,,,,,,,,,,,,,,,,,,,,,,,,,,,,,,,,,,,,,,,,,,,,,,,,,,,,,,,,,,153.56787620019168,None,space,13.683256800053641,153.56787620019168,None,,,,,,,,,,,,,,,,,,,,,,,,,,,,,,,,,,,,,,,,,PPT54,001,2022-07-15_12h01.55.598,ABstudy,2022.1.4,59.92875668179853,
AB,Lag1_T1P_T2P,1,P,P,7,8,6,3,11,Sand castle,Did you see the Sand castle?,0.12,0.016,JPG\,thermometer02b,candle08b,comb02a,toothbrush03b,brick,computerkeyboard02,sandcastle,stapler06,candy,birthdaycandle,clock04,blankImage,blankImage,blankImage,blankImage,blankImage,blankImage,sandcastle,,,,,,,,,,,,0,0,0,70,,,,,,,,,,,,,,,,,,,,,,,,,,,,,,,,,,,168.0226065001916,169.03289000014775,169.0162462000735,169.62514450005256,169.62514450005256,None,170.98093229997903,None,right,1.6060395000968128,170.98093229997903,None,172.60387980006635,None,left,0.3753931999672204,172.60387980006635,None,,,,,,,,,,,,,,,,,,,,,,,PPT54,001,2022-07-15_12h01.55.598,ABstudy,2022.1.4,59.92875668179853,
AB,Lag5_T1A_T2A,5,A,A,6,11,5,5,16,shrimp,Did you see the shrimp?,0.12,0.016,JPG\,speaker04,sewingmachine01a,eraser,violin,globe,belt02a,sunglasses04,cymbal,cd,greenolive,alligator,pear01,watch02a,screwdriver04b,banana01,cigarette,blankImage,rollerblade,,,,,,,,,,,,0,1,1,300,,,,,,,,,,,,,,,,,,,,,,,,,,,,,,,,,,,173.03834460000508,174.03822910017334,174.02153800008819,174.617162700044,174.617162700044,None,176.53839440015145,None,right,1.0172160998918116,176.53839440015145,None,177.57495749997906,None,right,0.34881310001946986,177.57495749997906,None,,,,,,,,,,,,,,,,,,,,,,,PPT54,001,2022-07-15_12h01.55.598,ABstudy,2022.1.4,59.92875668179853,
AB,Lag1_T1P_T2P,1,P,P,5,6,4,4,10,skateboard,Did you see the skateboard?,0.12,0.016,JPG\,binoculars01b,cymbal,pizza,candy,skateboard,stapler05,grape01,thermometer02b,speaker04,lemon02,blankImage,blankImage,blankImage,blankImage,blankImage,blankImage,blankImage,skateboard,,,,,,,,,,,,0,2,2,25,,,,,,,,,,,,,,,,,,,,,,,,,,,,,,,,,,,177.95200020004995,178.95929979998618,178.94261260004714,179.52766899997368,179.52766899997368,None,180.82844720012508,None,left,0.43099469994194806,180.82844720012508,None,181.27861939999275,None,left,0.30113650020211935,181.27861939999275,None,,,,,,,,,,,,,,,,,,,,,,,PPT54,001,2022-07-15_12h01.55.598,ABstudy,2022.1.4,59.92875668179853,
AB,Lag1_T1P_T2A,1,P,A,8,9,7,5,14,Fridge,Did you see the Fridge?,0.12,0.016,JPG\,cherry01,cymbal,envelope03a,foosballtable,shirt02,cellphone,sewingmachine01a,fridge,battery02b,apple07,pencil01,screwdriver04b,strawberry,sunglasses04,blankImage,blankImage,blankImage,fridge,,,,,,,,,,,,0,3,3,173,,,,,,,,,,,,,,,,,,,,,,,,,,,,,,,,,,,181.62784139998257,182.6299637001939,182.61334480019286,183.21772280009463,183.21772280009463,None,184.8856784000527,None,right,0.6612064000219107,184.8856784000527,None,185.56611020001583,None,left,0.5891658999025822,185.56611020001583,None,,,,,,,,,,,,,,,,,,,,,,,PPT54,001,2022-07-15_12h01.55.598,ABstudy,2022.1.4,59.92875668179853,
AB,Lag5_T1A_T2P,5,A,P,6,11,5,5,16,bed,Did you see the bed?,0.12,0.016,JPG\,cellphone,tomato01,comb02a,candy,celery,cucumber,toaster01,fan,feather03a,pen04b,stapler03b,blueberry01,plate01b,cherry01,baseball01a,candle08b,blankImage,toolbox02,,,,,,,,,,,,0,4,4,274,,,,,,,,,,,,,,,,,,,,,,,,,,,,,,,,,,,186.18575060018338,187.20106960018165,187.16766080004163,187.74727210006677,187.74727210006677,None,189.7293343001511,None,right,1.0737378001213074,189.7293343001511,None,190.82146160001867,None,left,0.5025355000980198,190.82146160001867,None,,,,,,,,,,,,,,,,,,,,,,,PPT54,001,2022-07-15_12h01.55.598,ABstudy,2022.1.4,59.92875668179853,
AB,Lag5_T1P_T2P,5,P,P,7,12,6,5,17,flamingo,Did you see the flamingo?,0.12,0.016,JPG\,pig,belt02a,rice,screwdriver04b,candle01,apple07,flamingo,pear01,feather03a,match,thermometer02b,stapler06,lemon02,violin,medal02b,pineapple01a,blankImage,flamingo,,,,,,,,,,,,0,5,5,153,,,,,,,,,,,,,,,,,,,,,,,,,,,,,,,,,,,191.3588853001129,192.37305910000578,192.35631030006334,192.8571963000577,192.8434370001778,None,194.89981380011886,None,left,0.31899680010974407,194.89981380011886,None,195.24232940003276,None,left,0.26481850002892315,195.24232940003276,None,,,,,,,,,,,,,,,,,,,,,,,PPT54,001,2022-07-15_12h01.55.598,ABstudy,2022.1.4,59.92875668179853,
AB,Lag5_T1P_T2P,5,P,P,7,12,6,5,17,American football helmet,Did you see the American football helmet?,0.12,0.016,JPG\,alligator,banana01,apple07,tomato01,button01,spoon01,footballhelmet,fork03c,slipper03b,potato02b,grape01,stapler03b,teabag,screwdriver04b,hammer01,tennisball01b,blankImage,footballhelmet,,,,,,,,,,,,0,6,6,148,,,,,,,,,,,,,,,,,,,,,,,,,,,,,,,,,,,195.587861899985,196.59393650013953,196.57725100009702,197.07795440009795,197.07795440009795,None,199.04665090003982,None,left,0.3016835998278111,199.04665090003982,None,199.38098140014336,None,left,0.22991340002045035,199.38098140014336,None,,,,,,,,,,,,,,,,,,,,,,,PPT54,001,2022-07-15_12h01.55.598,ABstudy,2022.1.4,59.92875668179853,
AB,Lag5_T1P_T2A,5,P,A,6,11,5,5,16,World map,Did you see the World map?,0.12,0.016,JPG\,cigarette,pig,banana01,strawberry,clock01a,worldmap,spoon01,blueberry01,battery02b,pineapple01a,chain01,paintbrush01,candy,pen04b,teabag,birthdaycandle,blankImage,worldmap,,,,,,,,,,,,0,7,7,205,,,,,,,,,,,,,,,,,,,,,,,,,,,,,,,,,,,199.63701510010287,200.64794680010527,200.63127220002934,201.21071620006114,201.21071620006114,None,203.07323780003935,None,left,0.5142776998691261,203.07323780003935,None,203.617581800092,None,right,0.2579647998791188,203.617581800092,None,,,,,,,,,,,,,,,,,,,,,,,PPT54,001,2022-07-15_12h01.55.598,ABstudy,2022.1.4,59.92875668179853,
AB,Lag5_T1P_T2P,5,P,P,6,11,5,4,15,punching bag,Did you see the punching bag?,0.12,0.016,JPG\,foosballtable,cigarette,pen04b,birthdaycandle,hammer01,punchingbag,binoculars01b,chain01,potato02b,cauliflower01,stapler04b,ashtray01,scarf,cellphone,calculator01,blankImage,blankImage,punchingbag,,,,,,,,,,,,0,8,8,156,,,,,,,,,,,,,,,,,,,,,,,,,,,,,,,,,,,203.90757800010033,204.91883750003763,204.90208799997345,205.40269270003773,205.40269270003773,None,207.3330799001269,None,left,0.32635050010867417,207.3330799001269,None,207.68823590013199,None,left,0.2753035998903215,207.68823590013199,None,,,,,,,,,,,,,,,,,,,,,,,PPT54,001,2022-07-15_12h01.55.598,ABstudy,2022.1.4,59.92875668179853,
AB,Lag5_T1P_T2P,5,P,P,5,10,4,5,15,Safe,Did you see the Safe?,0.12,0.016,JPG\,candle01,shirt02,brick,orange,safe,toothbrush03b,pizza,thermometer02b,book01b,stapler01,sewingmachine01a,toaster01,candy,cymbal,potato02b,blankImage,blankImage,safe,,,,,,,,,,,,0,9,9,159,,,,,,,,,,,,,,,,,,,,,,,,,,,,,,,,,,,207.99399040010758,209.00628020009026,208.98952850000933,209.56305019999854,209.56305019999854,None,211.4259285000153,None,left,0.33759590005502105,211.4259285000153,None,211.7921794001013,None,left,0.24326569982804358,211.7921794001013,None,,,,,,,,,,,,,,,,,,,,,,,PPT54,001,2022-07-15_12h01.55.598,ABstudy,2022.1.4,59.92875668179853,
AB,Lag1_T1P_T2P,1,P,P,7,8,6,3,11,cloud,Did you see the cloud?,0.12,0.016,JPG\,lighter01,hammer01,spoon01,chain01,cymbal,sponge01,cloud,stapler06,pig,watermelon01,cauliflower01,blankImage,blankImage,blankImage,blankImage,blankImage,blankImage,cloud,,,,,,,,,,,,0,10,10,36,,,,,,,,,,,,,,,,,,,,,,,,,,,,,,,,,,,212.0616527001839,213.07681050011888,213.04346960014664,213.65752340015024,213.65752340015024,None,214.97729620011523,None,left,0.4421322999987751,214.97729620011523,None,215.44550830009393,None,left,0.2706707001198083,215.44550830009393,None,,,,,,,,,,,,,,,,,,,,,,,PPT54,001,2022-07-15_12h01.55.598,ABstudy,2022.1.4,59.92875668179853,
AB,Lag5_T1P_T2P,5,P,P,7,12,6,4,16,flower,Did you see the flower?,0.12,0.016,JPG\,cucumber,sponge01,alligator,pear01,ashtray01,hammer01,hibiscusflower02,battery02b,fork03c,binoculars01b,mushroom01,stapler01,leaf02a,acorn,comb02a,screwdriver04b,blankImage,hibiscusflower02,,,,,,,,,,,,0,11,11,132,,,,,,,,,,,,,,,,,,,,,,,,,,,,,,,,,,,215.7500299999956,216.76393730007112,216.74724550009705,217.31586390011944,217.31586390011944,None,219.2324380001519,None,left,0.29991919989697635,219.2324380001519,None,219.55016230000183,None,left,0.26937819994054735,219.55016230000183,None,,,,,,,,,,,,,,,,,,,,,,,PPT54,001,2022-07-15_12h01.55.598,ABstudy,2022.1.4,59.92875668179853,
AB,Lag1_T1P_T2P,1,P,P,7,8,6,3,11,tree,Did you see the tree?,0.12,0.016,JPG\,pear01,clock01a,cymbal,match,ashtray01,globe,tree,stapler03b,lemon02,pen04b,dice05a,blankImage,blankImage,blankImage,blankImage,blankImage,blankImage,tree,,,,,,,,,,,,0,12,12,51,,,,,,,,,,,,,,,,,,,,,,,,,,,,,,,,,,,219.85281680012122,220.8517374000512,220.8351694000885,221.41178190009668,221.41178190009668,None,222.7543443001341,None,left,0.3772862998303026,222.7543443001341,None,223.15351980016567,None,left,0.2490832000039518,223.15351980016567,None,,,,,,,,,,,,,,,,,,,,,,,PPT54,001,2022-07-15_12h01.55.598,ABstudy,2022.1.4,59.92875668179853,
AB,Lag5_T1A_T2P,5,A,P,8,13,7,5,18,fish,Did you see the fish?,0.12,0.016,JPG\,scissors01,grape01,mushroom01,toiletpaper01a,greenolive,pizza,cigarette,ashtray01,carrot01,pineapple01a,foosballtable,lipstick02a,stapler04b,tambourine02,potato02b,violin,blankImage,chimney,,,,,,,,,,,,0,13,13,283,,,,,,,,,,,,,,,,,,,,,,,,,,,,,,,,,,,223.42013840004802,224.42146580014378,224.40483910008334,224.98776870011352,224.98776870011352,None,226.96975699998438,None,right,1.5052078000735492,226.96975699998438,None,228.4921327000484,None,left,0.318682299926877,228.4921327000484,None,,,,,,,,,,,,,,,,,,,,,,,PPT54,001,2022-07-15_12h01.55.598,ABstudy,2022.1.4,59.92875668179853,
AB,Lag1_T1P_T2P,1,P,P,6,7,5,5,12,snowman,Did you see the snowman?,0.12,0.016,JPG\,comb02a,watch02a,scissors01,dice05a,tableknife02,snowman,stapler03a,printer02,dandelion,spoon01,ashtray01,battery02b,blankImage,blankImage,blankImage,blankImage,blankImage,snowman,,,,,,,,,,,,0,14,14,4,,,,,,,,,,,,,,,,,,,,,,,,,,,,,,,,,,,228.8447924000211,229.8601709001232,229.82682369998656,230.40479580010287,230.40479580010287,None,231.88899250002578,None,left,0.3138420998584479,231.88899250002578,None,232.22934840014204,None,left,0.2454071999527514,232.22934840014204,None,,,,,,,,,,,,,,,,,,,,,,,PPT54,001,2022-07-15_12h01.55.598,ABstudy,2022.1.4,59.92875668179853,
AB,Lag5_T1P_T2P,5,P,P,7,12,6,4,16,window,Did you see the window?,0.12,0.016,JPG\,cigarette,pig,banana01,strawberry,clock01a,plate01b,dormer,blueberry01,battery02b,pineapple01a,chain01,stapler01,candy,pen04b,teabag,birthdaycandle,blankImage,dormer,,,,,,,,,,,,0,15,15,170,,,,,,,,,,,,,,,,,,,,,,,,,,,,,,,,,,,232.50081590004265,233.51394970016554,233.4972889001947,234.07573290006258,234.07573290006258,None,235.93306510010734,None,left,0.3497415999881923,235.93306510010734,None,236.29993019998074,None,left,0.40728579997085035,236.29993019998074,None,,,,,,,,,,,,,,,,,,,,,,,PPT54,001,2022-07-15_12h01.55.598,ABstudy,2022.1.4,59.92875668179853,
AB,Lag1_T1A_T2A,1,A,A,5,6,4,3,9,Pigeon,Did you see the Pigeon?,0.12,0.016,JPG\,candle01,paintbrush01,scissors01,fan,microscope,toothbrush03b,candle08b,watermelon01,teabag,blankImage,blankImage,blankImage,blankImage,blankImage,blankImage,blankImage,blankImage,floorlamp,,,,,,,,,,,,0,16,16,286,,,,,,,,,,,,,,,,,,,,,,,,,,,,,,,,,,,236.79576930007897,237.80162610020489,237.78489510016516,238.36919790017419,238.36919790017419,None,239.43370470008813,None,right,0.7136605000123382,239.43370470008813,None,240.17056370014325,None,right,0.6089569998439401,240.17056370014325,None,,,,,,,,,,,,,,,,,,,,,,,PPT54,001,2022-07-15_12h01.55.598,ABstudy,2022.1.4,59.92875668179853,
AB,Lag1_T1A_T2P,1,A,P,5,6,4,5,11,rake,Did you see the rake?,0.12,0.016,JPG\,candy,brownsugar,dice05a,cd,sock01a,stapler01,button01,potato02b,feather03a,grape01,dandelion,blankImage,blankImage,blankImage,blankImage,blankImage,blankImage,greatwhiteshark,,,,,,,,,,,,0,17,17,256,,,,,,,,,,,,,,,,,,,,,,,,,,,,,,,,,,,240.80741080013104,241.8222338000778,241.78889830014668,242.38165049999952,242.38165049999952,None,243.67282700003125,None,right,0.7623274999205023,243.67282700003125,None,244.45959350001067,None,left,0.6158366999588907,244.45959350001067,None,,,,,,,,,,,,,,,,,,,,,,,PPT54,001,2022-07-15_12h01.55.598,ABstudy,2022.1.4,59.92875668179853,
AB,Lag5_T1P_T2P,5,P,P,7,12,6,3,15,Rollerblade,Did you see the Rollerblade?,0.12,0.016,JPG\,hammer01,sponge01,toaster01,cherry01,feather03a,mushroom01,rollerblade,pencil01,tennisball01b,brick,clock04,stapler06,teabag,garlic01a,envelope03a,blankImage,blankImage,rollerblade,,,,,,,,,,,,0,18,18,116,,,,,,,,,,,,,,,,,,,,,,,,,,,,,,,,,,,245.10224030003883,246.10947560006753,246.09276620019227,246.69264270015992,246.69264270015992,None,248.4810344001744,None,left,0.2657998998183757,248.4810344001744,None,248.7793404001277,None,left,0.2552172001451254,248.7793404001277,None,,,,,,,,,,,,,,,,,,,,,,,PPT54,001,2022-07-15_12h01.55.598,ABstudy,2022.1.4,59.92875668179853,
AB,Lag1_T1P_T2P,1,P,P,8,9,7,5,14,Waterfall,Did you see the Waterfall?,0.12,0.016,JPG\,pizza,watch02a,greenolive,cucumber,match,violin,scissors01,waterfall,stapler03a,cherry01,ring01,cigarette,microscope,cellphone,blankImage,blankImage,blankImage,waterfall,,,,,,,,,,,,0,19,19,52,,,,,,,,,,,,,,,,,,,,,,,,,,,,,,,,,,,249.0675898999907,250.08010360016488,250.06340680015273,250.66080860001966,250.66080860001966,None,252.31527130003087,None,left,0.5442288999911398,252.31527130003087,None,252.88307890016586,None,left,0.27133919997140765,252.88307890016586,None,,,,,,,,,,,,,,,,,,,,,,,PPT54,001,2022-07-15_12h01.55.598,ABstudy,2022.1.4,59.92875668179853,
AB,Lag1_T1P_T2P,1,P,P,6,7,5,3,10,drum sticks,Did you see the drum sticks?,0.12,0.016,JPG\,pineapple01a,tennisball01b,computerkeyboard02,feather03a,belt02a,drumstick,stapler03b,blueberry01,medal02b,alligator,blankImage,blankImage,blankImage,blankImage,blankImage,blankImage,blankImage,drumstick,,,,,,,,,,,,0,20,20,61,,,,,,,,,,,,,,,,,,,,,,,,,,,,,,,,,,,253.1858773001004,254.20109180011787,254.1676984000951,254.7570514001418,254.7570514001418,None,255.90291370009072,None,left,0.4196814000606537,255.90291370009072,None,256.3541000999976,None,left,0.2172083999030292,256.3541000999976,None,,,,,,,,,,,,,,,,,,,,,,,PPT54,001,2022-07-15_12h01.55.598,ABstudy,2022.1.4,59.92875668179853,
AB,Lag5_T1P_T2A,5,P,A,8,13,7,5,18,telescope,Did you see the telescope?,0.12,0.016,JPG\,globe,broccoli01a,binoculars01b,iron01b,avocado01,dandelion,pineapple01a,handheldtelescope,fan,pizza,celery,blueberry01,sewingmachine01a,dice05a,watermelon01,candy,blankImage,handheldtelescope,,,,,,,,,,,,0,21,21,228,,,,,,,,,,,,,,,,,,,,,,,,,,,,,,,,,,,256.61037230002694,257.6217041001655,257.6050448000897,258.21808190015145,258.21808190015145,None,260.1203232000116,None,left,0.4990377000067383,260.1203232000116,None,260.6409689001739,None,left,0.24153889995068312,260.6409689001739,None,,,,,,,,,,,,,,,,,,,,,,,PPT54,001,2022-07-15_12h01.55.598,ABstudy,2022.1.4,59.92875668179853,
AB,Lag5_T1P_T2P,5,P,P,6,11,5,5,16,keys,Did you see the keys?,0.12,0.016,JPG\,toiletpaper01a,mushroom01,medal02b,sandal,rice,foldingchair,feather03a,pizza,candle08b,garlic01a,stapler01,belt02a,cigarette,violin,lemon02,fork03c,blankImage,foldingchair,,,,,,,,,,,,0,22,22,125,,,,,,,,,,,,,,,,,,,,,,,,,,,,,,,,,,,260.9109208001755,261.9255797001533,261.8922131001018,262.4823267001193,262.4823267001193,None,264.4621702001896,None,right,0.9568992999847978,264.4621702001896,None,265.4456672000233,None,left,0.26237719994969666,265.4456672000233,None,,,,,,,,,,,,,,,,,,,,,,,PPT54,001,2022-07-15_12h01.55.598,ABstudy,2022.1.4,59.92875668179853,
AB,Lag1_T1P_T2P,1,P,P,5,6,4,3,9,mail box,Did you see the mail box?,0.12,0.016,JPG\,watermelon01,banana01,ring01,pencil01,mailbox02,stapler04b,cucumber,thermometer02b,key01,blankImage,blankImage,blankImage,blankImage,blankImage,blankImage,blankImage,blankImage,mailbox02,,,,,,,,,,,,0,23,23,21,,,,,,,,,,,,,,,,,,,,,,,,,,,,,,,,,,,265.79832970001735,266.81392320012674,266.7972222000826,267.4209877999965,267.4209877999965,None,268.37771450006403,None,left,0.9848441001959145,268.37771450006403,None,269.3829075000249,None,right,0.7718802001327276,269.3829075000249,None,,,,,,,,,,,,,,,,,,,,,,,PPT54,001,2022-07-15_12h01.55.598,ABstudy,2022.1.4,59.92875668179853,
AB,Lag1_T1P_T2P,1,P,P,8,9,7,4,13,Bird House,Did you see the Bird House?,0.12,0.016,JPG\,toiletpaper01a,mushroom01,medal02b,sandal,rice,cd,feather03a,birdhouse,stapler01,garlic01a,toaster01,belt02a,cigarette,blankImage,blankImage,blankImage,blankImage,birdhouse,,,,,,,,,,,,0,24,24,77,,,,,,,,,,,,,,,,,,,,,,,,,,,,,,,,,,,270.19116790010594,271.20128200016916,271.1846057001967,271.77028110018,271.77028110018,None,273.39337650011294,None,left,0.5935572001617402,273.39337650011294,None,274.0041163000278,None,right,0.583648500032723,274.0041163000278,None,,,,,,,,,,,,,,,,,,,,,,,PPT54,001,2022-07-15_12h01.55.598,ABstudy,2022.1.4,59.92875668179853,
AB,Lag1_T1P_T2P,1,P,P,7,8,6,3,11,Daddy Long Legs,Did you see the Daddy Long Legs?,0.12,0.016,JPG\,lighter01,hammer01,spoon01,chain01,cymbal,sponge01,daddylonglegs,stapler03b,pig,watermelon01,cauliflower01,blankImage,blankImage,blankImage,blankImage,blankImage,blankImage,daddylonglegs,,,,,,,,,,,,0,25,25,86,,,,,,,,,,,,,,,,,,,,,,,,,,,,,,,,,,,274.6113085001707,275.6224865000695,275.60602750000544,276.1915198001079,276.1915198001079,None,277.5255868001841,None,left,0.5176993999630213,277.5255868001841,None,278.07548720017076,None,left,0.2316476001869887,278.07548720017076,None,,,,,,,,,,,,,,,,,,,,,,,PPT54,001,2022-07-15_12h01.55.598,ABstudy,2022.1.4,59.92875668179853,
AB,Lag5_T1P_T2A,5,P,A,7,12,6,5,17,corn,Did you see the corn?,0.12,0.016,JPG\,avocado01,pingpongpaddle01c,match,cauliflower01,paintbrush01,clock01a,corn02,cd,balloon01b,cellphone,watch02a,pear01,toaster01,sponge01,orange,blueberry01,blankImage,corn02,,,,,,,,,,,,0,26,26,210,,,,,,,,,,,,,,,,,,,,,,,,,,,,,,,,,,,278.3343184001278,279.34274870017543,279.32598890014924,279.9068619001191,279.9068619001191,None,281.87991850008257,None,left,0.6592578999698162,281.87991850008257,None,282.56275370018557,None,right,0.3683207998983562,282.56275370018557,None,,,,,,,,,,,,,,,,,,,,,,,PPT54,001,2022-07-15_12h01.55.598,ABstudy,2022.1.4,59.92875668179853,
AB,Lag5_T1A_T2P,5,A,P,7,12,6,5,17,Rollerblade,Did you see the Rollerblade?,0.12,0.016,JPG\,binoculars01b,cymbal,pizza,candy,paintbrush01,sponge01,grape01,thermometer02b,speaker04,lemon02,lipstick02a,stapler03b,candle01,8ball,plate01b,pen04b,blankImage,lion,,,,,,,,,,,,0,27,27,266,,,,,,,,,,,,,,,,,,,,,,,,,,,,,,,,,,,282.9684789001476,283.9808603001293,283.96426900010556,284.5594810000621,284.5594810000621,None,286.51213730010204,None,right,1.0906358000356704,286.51213730010204,None,287.63438699999824,None,left,0.20852169999852777,287.63438699999824,None,,,,,,,,,,,,,,,,,,,,,,,PPT54,001,2022-07-15_12h01.55.598,ABstudy,2022.1.4,59.92875668179853,
AB,Lag5_T1P_T2P,5,P,P,7,12,6,5,17,tie,Did you see the tie?,0.12,0.016,JPG\,iron01b,orange,birthdaycandle,potato02b,cauliflower01,pencil01,tie02,candle08b,celery,tableknife02,pen04b,stapler06,ring01,rice,lemon02,tomato01,blankImage,tie02,,,,,,,,,,,,0,28,28,161,,,,,,,,,,,,,,,,,,,,,,,,,,,,,,,,,,,287.8704234000761,288.8855842000339,288.85227470006794,289.43891070014797,289.43891070014797,None,291.4031471000053,None,left,0.23963850014843047,291.4031471000053,None,291.67172230011784,None,left,0.2433912002015859,291.67172230011784,None,,,,,,,,,,,,,,,,,,,,,,,PPT54,001,2022-07-15_12h01.55.598,ABstudy,2022.1.4,59.92875668179853,
AB,Lag1_T1P_T2P,1,P,P,5,6,4,5,11,football,Did you see the football?,0.12,0.016,JPG\,globe,belt02a,sponge01,violin,soccerball,stapler01,clock01a,microscope,balloon01b,scarf,teabag,blankImage,blankImage,blankImage,blankImage,blankImage,blankImage,soccerball,,,,,,,,,,,,0,29,29,26,,,,,,,,,,,,,,,,,,,,,,,,,,,,,,,,,,,291.940890799975,292.956277300138,292.9229948001448,293.5099172000773,293.5099172000773,None,294.8395202001557,None,left,0.1473343998659402,294.8395202001557,None,295.008569000056,None,left,0.16217410005629063,295.008569000056,None,,,,,,,,,,,,,,,,,,,,,,,PPT54,001,2022-07-15_12h01.55.598,ABstudy,2022.1.4,59.92875668179853,
AB,Lag5_T1P_T2P,5,P,P,5,10,4,5,15,hockey puck,Did you see the hockey puck?,0.12,0.016,JPG\,chain01,pen04b,birthdaycandle,watermelon01,hockeypuck,scissors01,measuringcup01,candle01,hammer01,stapler06,ashtray01,feather03a,sewingmachine01a,thermometer02b,alligator,blankImage,blankImage,hockeypuck,,,,,,,,,,,,0,30,30,110,,,,,,,,,,,,,,,,,,,,,,,,,,,,,,,,,,,295.1990799000487,296.20956089999527,296.1929258001037,296.7658731001429,296.7658731001429,None,298.49917740002275,None,right,0.7274799000006169,298.49917740002275,None,299.24616870004684,None,left,0.18052880000323057,299.24616870004684,None,,,,,,,,,,,,,,,,,,,,,,,PPT54,001,2022-07-15_12h01.55.598,ABstudy,2022.1.4,59.92875668179853,
AB,Lag1_T1P_T2P,1,P,P,8,9,7,3,12,cactus,Did you see the cactus?,0.12,0.016,JPG\,tennisball01b,paintbrush01,medal02b,apple07,speaker04,iron01b,avocado01,cactus,stapler03b,toiletpaper01a,watermelon01,candle01,blankImage,blankImage,blankImage,blankImage,blankImage,cactus,,,,,,,,,,,,0,31,31,58,,,,,,,,,,,,,,,,,,,,,,,,,,,,,,,,,,,299.45031099999323,300.4638896000106,300.4473298001103,301.02421490009874,301.02421490009874,None,302.498632500181,None,left,0.7838540999218822,302.498632500181,None,303.2999440000858,None,right,0.1835430001374334,303.2999440000858,None,,,,,,,,,,,,,,,,,,,,,,,PPT54,001,2022-07-15_12h01.55.598,ABstudy,2022.1.4,59.92875668179853,
AB,Lag5_T1P_T2P,5,P,P,6,11,5,3,14,ladder,Did you see the ladder?,0.12,0.016,JPG\,celery,orange,scissors01,balloon01b,avocado01,stepladder,mushroom01,sewingmachine01a,lighter01,dice05a,stapler01,fan,cd,sock01a,blankImage,blankImage,blankImage,stepladder,,,,,,,,,,,,0,32,32,119,,,,,,,,,,,,,,,,,,,,,,,,,,,,,,,,,,,303.50149659998715,304.5010922001675,304.4844045001082,305.0641032999847,305.0641032999847,None,306.78495980007574,None,left,0.34595709992572665,306.78495980007574,None,307.1537337000482,None,left,0.16214739996939898,307.1537337000482,None,,,,,,,,,,,,,,,,,,,,,,,PPT54,001,2022-07-15_12h01.55.598,ABstudy,2022.1.4,59.92875668179853,
AB,Lag5_T1P_T2P,5,P,P,7,12,6,3,15,Eye patch,Did you see the Eye patch?,0.12,0.016,JPG\,candle01,paintbrush01,scissors01,fan,microscope,toothbrush03b,eyepatch,watermelon01,teabag,pencil01,lemon02,stapler05,shirt02,cauliflower01,cd,blankImage,blankImage,eyepatch,,,,,,,,,,,,0,33,33,108,,,,,,,,,,,,,,,,,,,,,,,,,,,,,,,,,,,307.3424916001968,308.35499420017004,308.3382863001898,308.9074037000537,308.9074037000537,None,310.7321348001715,None,left,0.39015539991669357,310.7321348001715,None,311.14110070001334,None,right,0.4618438999168575,311.14110070001334,None,,,,,,,,,,,,,,,,,,,,,,,PPT54,001,2022-07-15_12h01.55.598,ABstudy,2022.1.4,59.92875668179853,
AB,Lag5_T1P_T2P,5,P,P,6,11,5,4,15,saxophone,Did you see the saxophone?,0.12,0.016,JPG\,pizza,strawberry,potato02b,speaker04,battery02b,saxophone,dice05a,cellphone,globe,banana01,stapler03b,baseball01a,toaster01,broom01,ring01,blankImage,blankImage,saxophone,,,,,,,,,,,,0,34,34,117,,,,,,,,,,,,,,,,,,,,,,,,,,,,,,,,,,,311.686755400151,312.69264000002295,312.6759049000684,313.2701634000987,313.2701634000987,None,315.0107258001808,None,left,0.2564255998004228,315.0107258001808,None,315.2952419000212,None,left,0.2192476000636816,315.2952419000212,None,,,,,,,,,,,,,,,,,,,,,,,PPT54,001,2022-07-15_12h01.55.598,ABstudy,2022.1.4,59.92875668179853,
AB,Lag1_T1A_T2P,1,A,P,6,7,5,5,12,Piano,Did you see the Piano?,0.12,0.016,JPG\,toiletpaper01a,mushroom01,medal02b,sandal,rice,cd,stapler01,pizza,candle08b,garlic01a,toaster01,belt02a,blankImage,blankImage,blankImage,blankImage,blankImage,moose,,,,,,,,,,,,0,35,35,239,,,,,,,,,,,,,,,,,,,,,,,,,,,,,,,,,,,315.5455222001765,316.5465900001582,316.5299782999791,317.16175119997934,317.16175119997934,None,318.62485090014525,None,right,1.0745262000709772,318.62485090014525,None,319.7177258001175,None,right,0.19753299979493022,319.7177258001175,None,,,,,,,,,,,,,,,,,,,,,,,PPT54,001,2022-07-15_12h01.55.598,ABstudy,2022.1.4,59.92875668179853,
AB,Lag1_T1A_T2P,1,A,P,5,6,4,4,10,Bull,Did you see the Bull?,0.12,0.016,JPG\,celery,pencil01,fan,foosballtable,iron01b,stapler01,potato02b,fork03c,button01,pineapple01a,blankImage,blankImage,blankImage,blankImage,blankImage,blankImage,blankImage,spiderweb,,,,,,,,,,,,0,36,36,244,,,,,,,,,,,,,,,,,,,,,,,,,,,,,,,,,,,319.94430000009015,320.9506806000136,320.93395230011083,321.5100321001373,321.5100321001373,None,322.70611550007015,None,right,0.6488459999673069,322.70611550007015,None,323.38731450005434,None,right,0.2314037000760436,323.38731450005434,None,,,,,,,,,,,,,,,,,,,,,,,PPT54,001,2022-07-15_12h01.55.598,ABstudy,2022.1.4,59.92875668179853,
AB,Lag5_T1P_T2P,5,P,P,7,12,6,4,16,Wolf,Did you see the Wolf?,0.12,0.016,JPG\,brick,eraser,cucumber,ashtray01,thermometer02b,binoculars01b,greywolf,screwdriver04b,grape01,brownsugar,battery02b,stapler03b,dice05a,avocado01,birthdaycandle,watch02a,blankImage,greywolf,,,,,,,,,,,,0,37,37,89,,,,,,,,,,,,,,,,,,,,,,,,,,,,,,,,,,,323.64211670006625,324.6546422999818,324.63818930019625,325.222870600177,325.222870600177,None,327.15683820005506,None,left,0.31850939989089966,327.15683820005506,None,327.49226920004,None,right,0.2704706999938935,327.49226920004,None,,,,,,,,,,,,,,,,,,,,,,,PPT54,001,2022-07-15_12h01.55.598,ABstudy,2022.1.4,59.92875668179853,
AB,Lag5_T1P_T2A,5,P,A,7,12,6,4,16,Bear,Did you see the Bear?,0.12,0.016,JPG\,comb02a,key01,medal02b,battery02b,lighter01,microscope,grizzly,sandal,pig,cellphone,computerkeyboard02,calculator01,cymbal,clock04,cucumber,avocado01,blankImage,grizzly,,,,,,,,,,,,0,38,38,213,,,,,,,,,,,,,,,,,,,,,,,,,,,,,,,,,,,327.79387650010176,328.80867770011537,328.77532060001977,329.35263690003194,329.35263690003194,None,331.28479439998046,None,left,0.38212820002809167,331.28479439998046,None,331.6950579001568,None,left,0.4198973998427391,331.6950579001568,None,,,,,,,,,,,,,,,,,,,,,,,PPT54,001,2022-07-15_12h01.55.598,ABstudy,2022.1.4,59.92875668179853,
AB,Lag1_T1P_T2P,1,P,P,6,7,5,4,11,American football,Did you see the American football?,0.12,0.016,JPG\,toaster01,garlic01a,faucet,fan,comb02a,football,stapler06,watch02a,onion,blueberry01,toiletpaper01a,blankImage,blankImage,blankImage,blankImage,blankImage,blankImage,football,,,,,,,,,,,,0,39,39,12,,,,,,,,,,,,,,,,,,,,,,,,,,,,,,,,,,,332.1958214000333,333.19656230020337,333.17991120018996,333.77353940019384,333.77353940019384,None,335.1155942999758,None,left,0.6069676999468356,335.1155942999758,None,335.74894369998947,None,right,0.166422100039199,335.74894369998947,None,,,,,,,,,,,,,,,,,,,,,,,PPT54,001,2022-07-15_12h01.55.598,ABstudy,2022.1.4,59.92875668179853,
AB,Lag1_T1P_T2P,1,P,P,8,9,7,5,14,helicopter,Did you see the helicopter?,0.12,0.016,JPG\,broom01,globe,cellphone,tableknife02,cauliflower01,scissors01,ring01,helicopter,stapler01,toaster01,cigarette,grape01,microscope,cucumber,blankImage,blankImage,blankImage,helicopter,,,,,,,,,,,,0,40,40,85,,,,,,,,,,,,,,,,,,,,,,,,,,,,,,,,,,,335.9364907001145,336.9498151000589,336.9331646000501,337.5529704000801,337.4832248999737,None,339.30600610002875,None,left,0.14493450010195374,339.30600610002875,None,339.4707639000844,None,left,0.18758950009942055,339.4707639000844,None,,,,,,,,,,,,,,,,,,,,,,,PPT54,001,2022-07-15_12h01.55.598,ABstudy,2022.1.4,59.92875668179853,
AB,Lag1_T1A_T2P,1,A,P,5,6,4,3,9,Spider,Did you see the Spider?,0.12,0.016,JPG\,pen04b,speaker04,lighter01,cherry01,8ball,stapler04b,sock01a,toothbrush03b,broom01,blankImage,blankImage,blankImage,blankImage,blankImage,blankImage,blankImage,blankImage,bridge,,,,,,,,,,,,0,41,41,250,,,,,,,,,,,,,,,,,,,,,,,,,,,,,,,,,,,339.6916288000066,340.7039978001267,340.6873306001071,341.2529068000149,341.2529068000149,None,342.3784817000851,None,left,0.4401503000408411,342.3784817000851,None,342.83936189999804,None,left,0.8840067000128329,342.83936189999804,None,,,,,,,,,,,,,,,,,,,,,,,PPT54,001,2022-07-15_12h01.55.598,ABstudy,2022.1.4,59.92875668179853,
AB,Lag1_T1P_T2A,1,P,A,6,7,5,5,12,Barn,Did you see the Barn?,0.12,0.016,JPG\,celery,pencil01,fan,foosballtable,iron01b,barn,potato02b,fork03c,button01,pineapple01a,baseball01a,printer02,blankImage,blankImage,blankImage,blankImage,blankImage,barn,,,,,,,,,,,,0,42,42,181,,,,,,,,,,,,,,,,,,,,,,,,,,,,,,,,,,,343.7425457001664,344.75803180015646,344.7243574000895,345.29253500001505,345.29253500001505,None,346.832097500097,None,left,0.44236750015988946,346.832097500097,None,347.2937871001195,None,right,0.20476750005036592,347.2937871001195,None,,,,,,,,,,,,,,,,,,,,,,,PPT54,001,2022-07-15_12h01.55.598,ABstudy,2022.1.4,59.92875668179853,
AB,Lag1_T1P_T2P,1,P,P,7,8,6,5,13,disco ball,Did you see the disco ball?,0.12,0.016,JPG\,candle01,paintbrush01,scissors01,fan,microscope,toothbrush03b,discoball,stapler03b,teabag,pencil01,lemon02,ashtray01,shirt02,blankImage,blankImage,blankImage,blankImage,discoball,,,,,,,,,,,,0,43,43,60,,,,,,,,,,,,,,,,,,,,,,,,,,,,,,,,,,,347.52972700004466,348.5451639001258,348.5118225000333,349.08547529997304,349.08547529997304,None,350.7446266000625,None,left,0.35404379991814494,350.7446266000625,None,351.13106260006316,None,right,0.31897099991329014,351.13106260006316,None,,,,,,,,,,,,,,,,,,,,,,,PPT54,001,2022-07-15_12h01.55.598,ABstudy,2022.1.4,59.92875668179853,
AB,Lag1_T1P_T2P,1,P,P,7,8,6,3,11,harmonica,Did you see the harmonica?,0.12,0.016,JPG\,cucumber,ring01,lipstick02a,microscope,violin,garlic01a,harmonica,stapler03b,cherry01,sewingmachine01a,belt02a,blankImage,blankImage,blankImage,blankImage,blankImage,blankImage,harmonica,,,,,,,,,,,,0,44,44,43,,,,,,,,,,,,,,,,,,,,,,,,,,,,,,,,,,,351.4865173001308,352.49891140009277,352.48222250002436,353.0628703001421,353.0628703001421,None,354.5091496000532,None,left,0.38993129995651543,354.5091496000532,None,354.9181171001401,None,right,0.5648403000086546,354.9181171001401,None,,,,,,,,,,,,,,,,,,,,,,,PPT54,001,2022-07-15_12h01.55.598,ABstudy,2022.1.4,59.92875668179853,
AB,Lag5_T1A_T2P,5,A,P,5,10,4,4,14,mail box,Did you see the mail box?,0.12,0.016,JPG\,button01,celery,birthdaycandle,apple07,avocado01,tennisball01b,dice05a,teabag,clock01a,stapler05,tomato01,scarf,orange,battery02b,blankImage,blankImage,blankImage,jeep,,,,,,,,,,,,0,45,45,263,,,,,,,,,,,,,,,,,,,,,,,,,,,,,,,,,,,355.50754490005784,356.51967369997874,356.5030822001863,357.10240330011584,357.10240330011584,None,358.7771534000058,None,right,0.6973240999504924,358.7771534000058,None,359.50554370018654,None,left,0.41734410007484257,359.50554370018654,None,,,,,,,,,,,,,,,,,,,,,,,PPT54,001,2022-07-15_12h01.55.598,ABstudy,2022.1.4,59.92875668179853,
AB,Lag5_T1P_T2P,5,P,P,5,10,4,5,15,penguin,Did you see the penguin?,0.12,0.016,JPG\,watermelon01,cigarette,pintofbeer,cymbal,penguin,feather03a,cherry01,broom01,battery02b,stapler05,baseball01a,iron01b,garlic01a,computerkeyboard02,pig,blankImage,blankImage,penguin,,,,,,,,,,,,0,46,46,137,,,,,,,,,,,,,,,,,,,,,,,,,,,,,,,,,,,359.9422168000601,360.95731880003586,360.92392710014246,361.52796820015647,361.52796820015647,None,363.2596128000878,None,left,0.35894430009648204,363.2596128000878,None,363.6434547000099,None,left,0.39138060016557574,363.6434547000099,None,,,,,,,,,,,,,,,,,,,,,,,PPT54,001,2022-07-15_12h01.55.598,ABstudy,2022.1.4,59.92875668179853,
AB,Lag5_T1P_T2P,5,P,P,6,11,5,5,16,table,Did you see the table?,0.12,0.016,JPG\,birthdaycandle,mushroom01,strawberry,match,cherry01,table01,hammer01,thermometer02b,sock01a,ring01,stapler06,banana01,toiletpaper01a,key01,sponge01,teabag,blankImage,table01,,,,,,,,,,,,0,47,47,144,,,,,,,,,,,,,,,,,,,,,,,,,,,,,,,,,,,364.0641253001522,365.07822740008123,365.0614744001068,365.5619381000288,365.5453053000383,None,367.64784310013056,None,left,0.675163600128144,367.64784310013056,None,368.34806050010957,None,left,0.5505268999841064,368.34806050010957,None,,,,,,,,,,,,,,,,,,,,,,,PPT54,001,2022-07-15_12h01.55.598,ABstudy,2022.1.4,59.92875668179853,
AB,Lag1_T1P_T2P,1,P,P,6,7,5,3,10,elephant,Did you see the elephant?,0.12,0.016,JPG\,clock01a,grape01,plate01b,key01,screwdriver04b,africanelephant,stapler03b,iron01b,toothbrush03b,comb02a,blankImage,blankImage,blankImage,blankImage,blankImage,blankImage,blankImage,africanelephant,,,,,,,,,,,,0,48,48,31,,,,,,,,,,,,,,,,,,,,,,,,,,,,,,,,,,,368.9277657000348,369.93291270011105,369.91618060017936,370.52399520017207,370.52399520017207,None,371.75183610012755,None,left,0.6431535000447184,371.75183610012755,None,372.4190498001408,None,left,0.19940820010378957,372.4190498001408,None,,,,,,,,,,,,,,,,,,,,,,,PPT54,001,2022-07-15_12h01.55.598,ABstudy,2022.1.4,59.92875668179853,
AB,Lag5_T1P_T2P,5,P,P,6,11,5,3,14,shower head,Did you see the shower head?,0.12,0.016,JPG\,belt02a,measuringcup01,spoon01,chain01,greenolive,showerhead01,computerkeyboard02,onion,fan,strawberry,stapler01,broom01,binoculars01b,ashtray01,blankImage,blankImage,blankImage,showerhead01,,,,,,,,,,,,0,49,49,98,,,,,,,,,,,,,,,,,,,,,,,,,,,,,,,,,,,372.6409329001326,373.6535202001687,373.6368072000332,374.22137619997375,374.22137619997375,None,375.97044280008413,None,left,0.3363612999673933,375.97044280008413,None,376.3393139000982,None,left,0.23943359986878932,376.3393139000982,None,,,,,,,,,,,,,,,,,,,,,,,PPT54,001,2022-07-15_12h01.55.598,ABstudy,2022.1.4,59.92875668179853,
AB,Lag5_T1A_T2P,5,A,P,6,11,5,5,16,baseball bat,Did you see the baseball bat?,0.12,0.016,JPG\,avocado01,aceofdiamond,match,cauliflower01,paintbrush01,clock01a,pig,cd,balloon01b,cellphone,stapler01,pear01,toaster01,sponge01,orange,blueberry01,blankImage,stool01,,,,,,,,,,,,0,50,50,273,,,,,,,,,,,,,,,,,,,,,,,,,,,,,,,,,,,376.60852990020066,377.62407030002214,377.5907861001324,378.17629390000366,378.17629390000366,None,380.15037879999727,None,right,0.7882209999952465,380.15037879999727,None,380.96194180008024,None,right,0.32045369991101325,380.96194180008024,None,,,,,,,,,,,,,,,,,,,,,,,PPT54,001,2022-07-15_12h01.55.598,ABstudy,2022.1.4,59.92875668179853,
AB,Lag1_T1P_T2P,1,P,P,7,8,6,4,12,Christmas Tree,Did you see the Christmas Tree?,0.12,0.016,JPG\,sandal,fan,printer02,cellphone,mushroom01,candle08b,firtree,stapler03a,lamp04a,hammer01,teabag,aceofdiamond,blankImage,blankImage,blankImage,blankImage,blankImage,firtree,,,,,,,,,,,,0,51,51,6,,,,,,,,,,,,,,,,,,,,,,,,,,,,,,,,,,,381.3180906001944,382.32884309999645,382.3122066000942,382.91017300006934,382.91017300006934,None,384.4012941000983,None,left,0.9214411000721157,384.4012941000983,None,385.3496565001551,None,right,0.37297790008597076,385.3496565001551,None,,,,,,,,,,,,,,,,,,,,,,,PPT54,001,2022-07-15_12h01.55.598,ABstudy,2022.1.4,59.92875668179853,
AB,Lag5_T1A_T2P,5,A,P,5,10,4,3,13,License Plate,Did you see the License Plate?,0.12,0.016,JPG\,tomato01,pen04b,shirt02,carrot01,lamp04a,key01,pizza,avocado01,sewingmachine01a,stapler06,iron01b,book01b,chain01,blankImage,blankImage,blankImage,blankImage,porcupine,,,,,,,,,,,,0,52,52,270,,,,,,,,,,,,,,,,,,,,,,,,,,,,,,,,,,,385.76280820020474,386.76655480009504,386.7499363999814,387.32879010005854,387.32879010005854,None,388.88617900013924,None,right,0.6845943999942392,388.88617900013924,None,389.60227650008164,None,left,0.5679400998633355,389.60227650008164,None,,,,,,,,,,,,,,,,,,,,,,,PPT54,001,2022-07-15_12h01.55.598,ABstudy,2022.1.4,59.92875668179853,
AB,Lag5_T1P_T2P,5,P,P,5,10,4,5,15,sword fish,Did you see the sword fish?,0.12,0.016,JPG\,scissors01,balloon01b,eraser,feather03a,swordfish,candle01,measuringcup01,calculator01,thermometer02b,stapler04b,pear01,carrot01,globe,baseball01a,leaf02a,blankImage,blankImage,swordfish,,,,,,,,,,,,0,53,53,160,,,,,,,,,,,,,,,,,,,,,,,,,,,,,,,,,,,390.19171360018663,391.20436080009677,391.18763700011186,391.756760600023,391.756760600023,None,393.6403467000928,None,left,0.32249150006100535,393.6403467000928,None,393.9904834001791,None,left,0.22816310008056462,393.9904834001791,None,,,,,,,,,,,,,,,,,,,,,,,PPT54,001,2022-07-15_12h01.55.598,ABstudy,2022.1.4,59.92875668179853,
AB,Lag5_T1P_T2P,5,P,P,6,11,5,3,14,Poker chips,Did you see the Poker chips?,0.12,0.016,JPG\,iron01b,brick,broccoli01a,balloon01b,tomato01,pokerchips,sandal,teabag,scissors01,pineapple01a,stapler04b,measuringcup01,sock01a,book01b,blankImage,blankImage,blankImage,pokerchips,,,,,,,,,,,,0,54,54,154,,,,,,,,,,,,,,,,,,,,,,,,,,,,,,,,,,,394.24309550016187,395.25830650003627,395.2250202000141,395.8064205001574,395.8064205001574,None,397.5747227000538,None,left,0.8199996999464929,397.5747227000538,None,398.4114274000749,None,right,0.16838379995897412,398.4114274000749,None,,,,,,,,,,,,,,,,,,,,,,,PPT54,001,2022-07-15_12h01.55.598,ABstudy,2022.1.4,59.92875668179853,
AB,Lag1_T1P_T2P,1,P,P,7,8,6,4,12,trophy,Did you see the trophy?,0.12,0.016,JPG\,cherry01,cymbal,envelope03a,foosballtable,shirt02,cellphone,trophy01,stapler04b,battery02b,apple07,pencil01,screwdriver04b,blankImage,blankImage,blankImage,blankImage,blankImage,trophy01,,,,,,,,,,,,0,55,55,74,,,,,,,,,,,,,,,,,,,,,,,,,,,,,,,,,,,398.61725650005974,399.6293490000535,399.6126560000703,400.2054236000404,400.2054236000404,None,401.65649910015054,None,left,0.282270000083372,401.65649910015054,None,401.96602210006677,None,left,0.1977200999390334,401.96602210006677,None,,,,,,,,,,,,,,,,,,,,,,,PPT54,001,2022-07-15_12h01.55.598,ABstudy,2022.1.4,59.92875668179853,
AB,Lag1_T1P_T2P,1,P,P,6,7,5,4,11,no parking sign,Did you see the no parking sign?,0.12,0.016,JPG\,fork03c,belt02a,grape01,computerkeyboard02,lemon02,parkingsign,stapler05,toiletpaper01a,toaster01,lipstick02a,book01b,blankImage,blankImage,blankImage,blankImage,blankImage,blankImage,parkingsign,,,,,,,,,,,,0,56,56,47,,,,,,,,,,,,,,,,,,,,,,,,,,,,,,,,,,,402.1913848000113,403.1994107000064,403.18273880006745,403.75638970010914,403.75638970010914,None,405.1023862999864,None,left,0.44389980006963015,405.1023862999864,None,405.5703006000258,None,right,0.5039846999570727,405.5703006000258,None,,,,,,,,,,,,,,,,,,,,,,,PPT54,001,2022-07-15_12h01.55.598,ABstudy,2022.1.4,59.92875668179853,
AB,Lag5_T1P_T2A,5,P,A,5,10,4,3,13,cork,Did you see the cork?,0.12,0.016,JPG\,clock01a,grape01,plate01b,key01,cork02,feather03a,pineapple01a,iron01b,toothbrush03b,comb02a,broom01,toaster01,pizza,blankImage,blankImage,blankImage,blankImage,cork02,,,,,,,,,,,,0,57,57,209,,,,,,,,,,,,,,,,,,,,,,,,,,,,,,,,,,,406.10482000000775,407.11999280005693,407.0865619000979,407.6716559000779,407.6716559000779,None,409.2949018001091,None,left,0.6998280000407249,409.2949018001091,None,410.02309820009395,None,right,0.17174350004643202,410.02309820009395,None,,,,,,,,,,,,,,,,,,,,,,,PPT54,001,2022-07-15_12h01.55.598,ABstudy,2022.1.4,59.92875668179853,
AB,Lag1_T1A_T2A,1,A,A,6,7,5,5,12,flamingo,Did you see the flamingo?,0.12,0.016,JPG\,chain01,pen04b,birthdaycandle,watermelon01,broom01,scissors01,measuringcup01,candle01,hammer01,calculator01,ashtray01,feather03a,blankImage,blankImage,blankImage,blankImage,blankImage,witchhat,,,,,,,,,,,,0,58,58,288,,,,,,,,,,,,,,,,,,,,,,,,,,,,,,,,,,,410.2286884000059,411.2410165001638,411.2243512000423,411.83870550012216,411.83870550012216,None,413.27454970008694,None,right,0.7915147000458091,413.27454970008694,None,414.0937626999803,None,right,0.24520929995924234,414.0937626999803,None,,,,,,,,,,,,,,,,,,,,,,,PPT54,001,2022-07-15_12h01.55.598,ABstudy,2022.1.4,59.92875668179853,
AB,Lag1_T1A_T2P,1,A,P,5,6,4,3,9,chimney,Did you see the chimney?,0.12,0.016,JPG\,cucumber,sponge01,alligator,pear01,ashtray01,stapler06,clock04,battery02b,fork03c,blankImage,blankImage,blankImage,blankImage,blankImage,blankImage,blankImage,blankImage,trophy01,,,,,,,,,,,,0,59,59,246,,,,,,,,,,,,,,,,,,,,,,,,,,,,,,,,,,,414.36441360018216,415.3781638001092,415.36148790013976,415.9468115000054,415.9468115000054,None,417.0516392001882,None,right,0.6061505998950452,417.0516392001882,None,417.68141210009344,None,left,0.21711960015818477,417.68141210009344,None,,,,,,,,,,,,,,,,,,,,,,,PPT54,001,2022-07-15_12h01.55.598,ABstudy,2022.1.4,59.92875668179853,
AB,Lag1_T1A_T2P,1,A,P,8,9,7,4,13,Christmas tree,Did you see the Christmas tree?,0.12,0.016,JPG\,broom01,globe,cellphone,tableknife02,cauliflower01,scissors01,ring01,alligator,stapler03a,toaster01,cigarette,grape01,microscope,blankImage,blankImage,blankImage,blankImage,windmill,,,,,,,,,,,,0,60,60,247,,,,,,,,,,,,,,,,,,,,,,,,,,,,,,,,,,,417.9362641000189,418.9485218001064,418.9318536000792,419.5080117001198,419.5080117001198,None,421.0819068001583,None,right,0.7047395000699908,421.0819068001583,None,421.81813710019924,None,left,0.19249720009975135,421.81813710019924,None,,,,,,,,,,,,,,,,,,,,,,,PPT54,001,2022-07-15_12h01.55.598,ABstudy,2022.1.4,59.92875668179853,
AB,Lag5_T1P_T2P,5,P,P,7,12,6,5,17,Badminton Racket,Did you see the Badminton Racket?,0.12,0.016,JPG\,paintbrush01,dice05a,watermelon01,broccoli01a,hammer01,leaf02a,badmintonracket,tennisball01b,lemon02,fan,lipstick02a,stapler04b,envelope03a,sponge01,foosballtable,orange,blankImage,badmintonracket,,,,,,,,,,,,0,61,61,163,,,,,,,,,,,,,,,,,,,,,,,,,,,,,,,,,,,422.04147140006535,423.0527799001429,423.0359577999916,423.5958188001532,423.5958188001532,None,425.628316400107,None,left,0.2786920000799,425.628316400107,None,425.9388731000945,None,left,0.17550190002657473,425.9388731000945,None,,,,,,,,,,,,,,,,,,,,,,,PPT54,001,2022-07-15_12h01.55.598,ABstudy,2022.1.4,59.92875668179853,
AB,Lag1_T1A_T2P,1,A,P,7,8,6,5,13,Horseshoe,Did you see the Horseshoe?,0.12,0.016,JPG\,leaf02a,apple07,cd,pineapple01a,envelope03a,paintbrush01,pig,stapler06,rice,feather03a,lemon02,balloon01b,avocado01,blankImage,blankImage,blankImage,blankImage,rooster,,,,,,,,,,,,0,62,62,241,,,,,,,,,,,,,,,,,,,,,,,,,,,,,,,,,,,426.14477250003256,427.15675620012917,427.1401973001193,427.7059462000616,427.7059462000616,None,429.291068200022,None,right,0.5672732000239193,429.291068200022,None,429.8757366000209,None,left,0.2230029001366347,429.8757366000209,None,,,,,,,,,,,,,,,,,,,,,,,PPT54,001,2022-07-15_12h01.55.598,ABstudy,2022.1.4,59.92875668179853,
AB,Lag5_T1P_T2P,5,P,P,5,10,4,3,13,bathtub,Did you see the bathtub?,0.12,0.016,JPG\,belt02a,sunglasses04,computerkeyboard02,cherry01,bathtub,eraser,watch02a,dice05a,blueberry01,stapler04b,match,leaf02a,iron01b,blankImage,blankImage,blankImage,blankImage,bathtub,,,,,,,,,,,,0,63,63,103,,,,,,,,,,,,,,,,,,,,,,,,,,,,,,,,,,,430.1263498000335,431.127795800101,431.11116660013795,431.73929000017233,431.73929000017233,None,433.2891977999825,None,left,0.2725815998855978,433.2891977999825,None,433.58085270016454,None,left,0.18966239993460476,433.58085270016454,None,,,,,,,,,,,,,,,,,,,,,,,PPT54,001,2022-07-15_12h01.55.598,ABstudy,2022.1.4,59.92875668179853,
AB,Lag1_T1P_T2P,1,P,P,8,9,7,5,14,finger print,Did you see the finger print?,0.12,0.016,JPG\,chain01,pen04b,birthdaycandle,watermelon01,broom01,scissors01,measuringcup01,fingerprint,stapler01,calculator01,ashtray01,feather03a,sewingmachine01a,thermometer02b,blankImage,blankImage,blankImage,fingerprint,,,,,,,,,,,,0,64,64,62,,,,,,,,,,,,,,,,,,,,,,,,,,,,,,,,,,,433.8007239000872,434.8142063000705,434.79755220003426,435.39935970003717,435.39935970003717,None,437.09889020002447,None,left,0.21515149995684624,437.09889020002447,None,437.33359140018,None,left,0.18826680001802742,437.33359140018,None,,,,,,,,,,,,,,,,,,,,,,,PPT54,001,2022-07-15_12h01.55.598,ABstudy,2022.1.4,59.92875668179853,
AB,Lag5_T1P_T2P,5,P,P,5,10,4,4,14,Salt shaker,Did you see the Salt shaker?,0.12,0.016,JPG\,fork03c,belt02a,grape01,computerkeyboard02,saltshaker03a,printer02,broom01,toiletpaper01a,toaster01,stapler01,book01b,blueberry01,spoon01,apple07,blankImage,blankImage,blankImage,saltshaker03a,,,,,,,,,,,,0,65,65,96,,,,,,,,,,,,,,,,,,,,,,,,,,,,,,,,,,,437.60758300009184,438.618202800164,438.60149560007267,439.17585390014574,439.17585390014574,None,440.82685280009173,None,left,0.3839071001857519,440.82685280009173,None,441.23719940008596,None,left,0.16635740012861788,441.23719940008596,None,,,,,,,,,,,,,,,,,,,,,,,PPT54,001,2022-07-15_12h01.55.598,ABstudy,2022.1.4,59.92875668179853,
AB,Lag5_T1P_T2A,5,P,A,5,10,4,3,13,martini glass,Did you see the martini glass?,0.12,0.016,JPG\,brick,eraser,cucumber,ashtray01,martiniglass01b,binoculars01b,lipstick02a,screwdriver04b,grape01,brownsugar,battery02b,iron01b,dice05a,blankImage,blankImage,blankImage,blankImage,martiniglass01b,,,,,,,,,,,,0,66,66,217,,,,,,,,,,,,,,,,,,,,,,,,,,,,,,,,,,,441.4230440000538,442.43870070017874,442.4053261000663,442.99299619998783,442.99299619998783,None,444.67651260015555,None,right,0.5582991999108344,444.67651260015555,None,445.25807010009885,None,right,0.2316909001674503,445.25807010009885,None,,,,,,,,,,,,,,,,,,,,,,,PPT54,001,2022-07-15_12h01.55.598,ABstudy,2022.1.4,59.92875668179853,
AB,Lag5_T1P_T2P,5,P,P,6,11,5,5,16,sword,Did you see the sword?,0.12,0.016,JPG\,chain01,speaker04,avocado01,watermelon01,scarf,sword01,lamp04a,fork03c,toaster01,slipper03b,stapler03a,cucumber,teabag,ashtray01,computerkeyboard02,book01b,blankImage,sword01,,,,,,,,,,,,0,67,67,143,,,,,,,,,,,,,,,,,,,,,,,,,,,,,,,,,,,445.51292430004105,446.5264175001066,446.5098229001742,447.1476873999927,447.0786019000225,None,449.013927299995,None,left,0.3326761000789702,449.013927299995,None,449.3787293001078,None,left,0.1838373001664877,449.3787293001078,None,,,,,,,,,,,,,,,,,,,,,,,PPT54,001,2022-07-15_12h01.55.598,ABstudy,2022.1.4,59.92875668179853,
AB,Lag1_T1P_T2P,1,P,P,8,9,7,5,14,giraffe,Did you see the giraffe?,0.12,0.016,JPG\,pencil01,foosballtable,banana01,lipstick02a,toaster01,grape01,key01,giraffe,stapler03b,pineapple01a,strawberry,teabag,dandelion,paintbrush01,blankImage,blankImage,blankImage,giraffe,,,,,,,,,,,,0,68,68,0,,,,,,,,,,,,,,,,,,,,,,,,,,,,,,,,,,,449.5808717000764,450.58003249997273,450.5633944000583,451.1415158000309,451.1415158000309,None,452.87279920000583,None,left,0.31298839999362826,452.87279920000583,None,453.2154628999997,None,left,0.17040190007537603,453.2154628999997,None,,,,,,,,,,,,,,,,,,,,,,,PPT54,001,2022-07-15_12h01.55.598,ABstudy,2022.1.4,59.92875668179853,
AB,Lag1_T1P_T2A,1,P,A,8,9,7,5,14,Ceiling fan,Did you see the Ceiling fan?,0.12,0.016,JPG\,cucumber,sponge01,alligator,pear01,ashtray01,hammer01,clock04,ceilingfan01,fork03c,binoculars01b,mushroom01,broccoli01a,leaf02a,acorn,blankImage,blankImage,blankImage,ceilingfan01,,,,,,,,,,,,0,69,69,183,,,,,,,,,,,,,,,,,,,,,,,,,,,,,,,,,,,453.41679280018434,454.4166847001761,454.4007571002003,454.9635302000679,454.9635302000679,None,456.6045643000398,None,right,0.669721300015226,456.6045643000398,None,457.30342920008115,None,right,0.338939500041306,457.30342920008115,None,,,,,,,,,,,,,,,,,,,,,,,PPT54,001,2022-07-15_12h01.55.598,ABstudy,2022.1.4,59.92875668179853,
AB,Lag5_T1P_T2P,5,P,P,8,13,7,4,17,butterfly,Did you see the butterfly?,0.12,0.016,JPG\,speaker04,sewingmachine01a,eraser,violin,globe,belt02a,sunglasses04,butterfly,cd,greenolive,alligator,pear01,stapler01,screwdriver04b,banana01,cigarette,blankImage,butterfly,,,,,,,,,,,,0,70,70,126,,,,,,,,,,,,,,,,,,,,,,,,,,,,,,,,,,,457.71077490015887,458.72133450000547,458.70464160013944,459.2866949001327,459.2866949001327,None,461.1877070001792,None,left,0.3741110998671502,461.1877070001792,None,461.5922403000295,None,right,0.4175692000426352,461.5922403000295,None,,,,,,,,,,,,,,,,,,,,,,,PPT54,001,2022-07-15_12h01.55.598,ABstudy,2022.1.4,59.92875668179853,
AB,Lag5_T1P_T2P,5,P,P,5,10,4,4,14,bell,Did you see the bell?,0.12,0.016,JPG\,teabag,envelope03a,cellphone,apple07,callbell,orange,brownsugar,book01b,hammer01,stapler03b,toaster01,calculator01,globe,battery02b,blankImage,blankImage,blankImage,callbell,,,,,,,,,,,,0,71,71,147,,,,,,,,,,,,,,,,,,,,,,,,,,,,,,,,,,,462.0438725000713,463.0589674001094,463.0256203999743,463.6033250000328,463.6033250000328,None,465.3702954000328,None,left,0.33606289979070425,465.3702954000328,None,465.7285092000384,None,left,0.2178643001243472,465.7285092000384,None,,,,,,,,,,,,,,,,,,,,,,,PPT54,001,2022-07-15_12h01.55.598,ABstudy,2022.1.4,59.92875668179853,
AB,Lag5_T1P_T2P,5,P,P,7,12,6,3,15,marble,Did you see the marble?,0.12,0.016,JPG\,cigarette,ashtray01,envelope03a,sandal,chain01,cucumber,marble,tomato01,dandelion,candle01,lemon02,stapler03b,potato02b,cymbal,clock01a,blankImage,blankImage,marble,,,,,,,,,,,,0,72,72,146,,,,,,,,,,,,,,,,,,,,,,,,,,,,,,,,,,,465.9819500001613,466.99633690016344,466.9796153001953,467.55897580017336,467.55897580017336,None,469.4133477001451,None,left,0.4695814000442624,469.4133477001451,None,469.9007904001046,None,left,0.50928739993833,469.9007904001046,None,,,,,,,,,,,,,,,,,,,,,,,PPT54,001,2022-07-15_12h01.55.598,ABstudy,2022.1.4,59.92875668179853,
AB,Lag1_T1P_T2A,1,P,A,8,9,7,5,14,Parrot,Did you see the Parrot?,0.12,0.016,JPG\,candy,brownsugar,dice05a,cd,sock01a,blueberry01,button01,parrot01,feather03a,grape01,dandelion,scissors01,watch02a,candle08b,blankImage,blankImage,blankImage,parrot01,,,,,,,,,,,,0,73,73,192,,,,,,,,,,,,,,,,,,,,,,,,,,,,,,,,,,,470.44512140005827,471.451213600114,471.43461530003697,472.0145798001904,472.0145798001904,None,473.7276157999877,None,left,0.41053860005922616,473.7276157999877,None,474.1701758999843,None,right,0.6957344000693411,474.1701758999843,None,,,,,,,,,,,,,,,,,,,,,,,PPT54,001,2022-07-15_12h01.55.598,ABstudy,2022.1.4,59.92875668179853,
AB,Lag1_T1P_T2P,1,P,P,7,8,6,5,13,tiger,Did you see the tiger?,0.12,0.016,JPG\,globe,broccoli01a,binoculars01b,iron01b,avocado01,dandelion,tiger02,stapler03b,fan,pizza,celery,blueberry01,sewingmachine01a,blankImage,blankImage,blankImage,blankImage,tiger02,,,,,,,,,,,,0,74,74,50,,,,,,,,,,,,,,,,,,,,,,,,,,,,,,,,,,,474.89151520002633,475.9049251000397,475.8882871000096,476.5061852000654,476.5061852000654,None,478.0656257001683,None,left,0.19336659996770322,478.0656257001683,None,478.2910252001602,None,left,0.2946440998930484,478.2910252001602,None,,,,,,,,,,,,,,,,,,,,,,,PPT54,001,2022-07-15_12h01.55.598,ABstudy,2022.1.4,59.92875668179853,
AB,Lag1_T1A_T2P,1,A,P,8,9,7,5,14,clock,Did you see the clock?,0.12,0.016,JPG\,speaker04,sewingmachine01a,eraser,violin,globe,belt02a,sunglasses04,cymbal,stapler01,greenolive,alligator,pear01,watch02a,screwdriver04b,blankImage,blankImage,blankImage,peacock,,,,,,,,,,,,0,75,75,240,,,,,,,,,,,,,,,,,,,,,,,,,,,,,,,,,,,478.6074367000256,479.60878710006364,479.5922187000979,480.20003260020167,480.20003260020167,None,481.89238680014387,None,right,0.7653042001184076,481.89238680014387,None,482.67869210010394,None,left,0.2510675999801606,482.67869210010394,None,,,,,,,,,,,,,,,,,,,,,,,PPT54,001,2022-07-15_12h01.55.598,ABstudy,2022.1.4,59.92875668179853,
AB,Lag5_T1P_T2P,5,P,P,7,12,6,5,17,Pigeon,Did you see the Pigeon?,0.12,0.016,JPG\,strawberry,leaf02a,clock04,candle01,avocado01,paintbrush01,pigeon,brownsugar,ring01,lemon02,fork03c,stapler01,cauliflower01,tableknife02,tennisball01b,thermometer02b,blankImage,pigeon,,,,,,,,,,,,0,76,76,151,,,,,,,,,,,,,,,,,,,,,,,,,,,,,,,,,,,482.9670888001565,483.97997810016386,483.9633145001717,484.5807996999938,484.5807996999938,None,486.5306428000331,None,left,0.29562780004926026,486.5306428000331,None,486.849486600142,None,left,0.17676179995760322,486.849486600142,None,,,,,,,,,,,,,,,,,,,,,,,PPT54,001,2022-07-15_12h01.55.598,ABstudy,2022.1.4,59.92875668179853,
AB,Lag5_T1A_T2A,5,A,A,7,12,6,3,15,Christmas lights,Did you see the Christmas lights?,0.12,0.016,JPG\,toiletpaper01a,mushroom01,medal02b,sandal,rice,cd,feather03a,pizza,candle08b,garlic01a,toaster01,belt02a,cigarette,violin,lemon02,blankImage,blankImage,rockbass,,,,,,,,,,,,0,77,77,299,,,,,,,,,,,,,,,,,,,,,,,,,,,,,,,,,,,487.0551440999843,488.06732280016877,488.0507116999943,488.6372929001227,488.6372929001227,None,490.46473340014927,None,right,0.7454550999682397,490.46473340014927,None,491.23724050004967,None,left,0.2283476998563856,491.23724050004967,None,,,,,,,,,,,,,,,,,,,,,,,PPT54,001,2022-07-15_12h01.55.598,ABstudy,2022.1.4,59.92875668179853,
AB,Lag5_T1P_T2P,5,P,P,8,13,7,3,16,Chefs hat,Did you see the Chefs hat?,0.12,0.016,JPG\,rice,watermelon01,tableknife02,scarf,computerkeyboard02,cauliflower01,battery02b,chefshat,book01b,sandal,sponge01,microscope,stapler01,fork03c,thermometer02b,apple07,blankImage,chefshat,,,,,,,,,,,,0,78,78,128,,,,,,,,,,,,,,,,,,,,,,,,,,,,,,,,,,,491.49412010004744,492.50509009999223,492.48849540017545,493.0695505000185,493.0695505000185,None,495.0719379000366,None,right,0.8823131998069584,495.0719379000366,None,495.9751628001686,None,left,0.17109200009144843,495.9751628001686,None,,,,,,,,,,,,,,,,,,,,,,,PPT54,001,2022-07-15_12h01.55.598,ABstudy,2022.1.4,59.92875668179853,
AB,Lag1_T1P_T2A,1,P,A,6,7,5,3,10,Dragon fly,Did you see the Dragon fly?,0.12,0.016,JPG\,leaf02a,pear01,measuringcup01,cigarette,fan,dragonfly01,teabag,tableknife02,ring01,pencil01,blankImage,blankImage,blankImage,blankImage,blankImage,blankImage,blankImage,dragonfly01,,,,,,,,,,,,0,79,79,185,,,,,,,,,,,,,,,,,,,,,,,,,,,,,,,,,,,496.17967790015973,497.19280200009234,497.17609810014255,497.750587800052,497.750587800052,None,499.00893400004134,None,left,0.6169322000350803,499.00893400004134,None,499.645089100115,None,right,0.18909360002726316,499.645089100115,None,,,,,,,,,,,,,,,,,,,,,,,PPT54,001,2022-07-15_12h01.55.598,ABstudy,2022.1.4,59.92875668179853,
AB,Lag1_T1P_T2P,1,P,P,5,6,4,5,11,Guitar case,Did you see the Guitar case?,0.12,0.016,JPG\,broccoli01a,scissors01,toothbrush03b,foosballtable,guitarcase,stapler05,hammer01,toiletpaper01a,cd,garlic01a,carrot01,blankImage,blankImage,blankImage,blankImage,blankImage,blankImage,guitarcase,,,,,,,,,,,,0,80,80,14,,,,,,,,,,,,,,,,,,,,,,,,,,,,,,,,,,,499.8685376001522,500.8799487000797,500.86325710010715,501.44702080008574,501.44702080008574,None,502.79130010004155,None,left,0.4671802001539618,502.79130010004155,None,503.28258130000904,None,left,0.5431663000490516,503.28258130000904,None,,,,,,,,,,,,,,,,,,,,,,,PPT54,001,2022-07-15_12h01.55.598,ABstudy,2022.1.4,59.92875668179853,
AB,Lag1_T1P_T2A,1,P,A,5,6,4,4,10,paper airplane,Did you see the paper airplane?,0.12,0.016,JPG\,thermometer02b,avocado01,scissors01,tennisball01b,paperairplane,banana01,strawberry,cigarette,potato02b,pineapple01a,blankImage,blankImage,blankImage,blankImage,blankImage,blankImage,blankImage,paperairplane,,,,,,,,,,,,0,81,81,191,,,,,,,,,,,,,,,,,,,,,,,,,,,,,,,,,,,503.8543112000916,504.86747770011425,504.85081110009924,505.46569199999794,505.46569199999794,None,506.6830090000294,None,left,0.6481854000594467,506.6830090000294,None,507.35325699998066,None,right,0.12099900003522635,507.35325699998066,None,,,,,,,,,,,,,,,,,,,,,,,PPT54,001,2022-07-15_12h01.55.598,ABstudy,2022.1.4,59.92875668179853,
AB,Lag5_T1P_T2P,5,P,P,8,13,7,5,18,bed,Did you see the bed?,0.12,0.016,JPG\,pencil01,broccoli01a,button01,sponge01,watermelon01,lipstick02a,comb02a,bed,lighter01,sock01a,spoon01,blueberry01,stapler04b,onion,grape01,avocado01,blankImage,bed,,,,,,,,,,,,0,82,82,124,,,,,,,,,,,,,,,,,,,,,,,,,,,,,,,,,,,507.5058741001412,508.52111890004016,508.4878179000225,509.05424370011315,509.05424370011315,None,511.0032038001809,None,left,0.343059099977836,511.0032038001809,None,511.373880200088,None,left,0.18021570006385446,511.373880200088,None,,,,,,,,,,,,,,,,,,,,,,,PPT54,001,2022-07-15_12h01.55.598,ABstudy,2022.1.4,59.92875668179853,
AB,Lag1_T1P_T2A,1,P,A,6,7,5,5,12,foot,Did you see the foot?,0.12,0.016,JPG\,watermelon01,cigarette,weight04a,cymbal,cauliflower01,foot,cherry01,broom01,battery02b,key01,baseball01a,iron01b,blankImage,blankImage,blankImage,blankImage,blankImage,foot,,,,,,,,,,,,0,83,83,188,,,,,,,,,,,,,,,,,,,,,,,,,,,,,,,,,,,511.57533110002987,512.5749706001952,512.5582668001298,513.1463256001007,513.1463256001007,None,514.5975352001842,None,left,0.7004766999743879,514.5975352001842,None,515.3283691001125,None,right,0.1534933999646455,515.3283691001125,None,,,,,,,,,,,,,,,,,,,,,,,PPT54,001,2022-07-15_12h01.55.598,ABstudy,2022.1.4,59.92875668179853,
AB,Lag1_T1P_T2P,1,P,P,8,9,7,3,12,bridge,Did you see the bridge?,0.12,0.016,JPG\,speaker04,sewingmachine01a,eraser,violin,globe,belt02a,sunglasses04,bridge,stapler01,greenolive,alligator,pear01,blankImage,blankImage,blankImage,blankImage,blankImage,bridge,,,,,,,,,,,,0,84,84,78,,,,,,,,,,,,,,,,,,,,,,,,,,,,,,,,,,,515.5198083000723,516.5286898000631,516.5120445000939,517.0880991001613,517.0880991001613,None,518.5765989001375,None,left,0.3936538000125438,518.5765989001375,None,518.999179400038,None,left,0.17927390011027455,518.999179400038,None,,,,,,,,,,,,,,,,,,,,,,,PPT54,001,2022-07-15_12h01.55.598,ABstudy,2022.1.4,59.92875668179853,
AB,Lag5_T1A_T2P,5,A,P,5,10,4,5,15,parachute,Did you see the parachute?,0.12,0.016,JPG\,binoculars01b,speaker04,sandal,envelope03a,plate01b,comb02a,battery02b,chain01,measuringcup01,stapler03b,medal02b,lamp04a,tennisball01b,pizza,cigarette,blankImage,blankImage,knee,,,,,,,,,,,,0,85,85,264,,,,,,,,,,,,,,,,,,,,,,,,,,,,,,,,,,,519.2101052000653,520.2156969001517,520.198975100182,520.7742653000169,520.7742653000169,None,522.610314300051,None,right,2.679671199992299,522.610314300051,None,525.3216691000853,None,left,1.6078200999181718,525.3216691000853,None,,,,,,,,,,,,,,,,,,,,,,,PPT54,001,2022-07-15_12h01.55.598,ABstudy,2022.1.4,59.92875668179853,
AB,Lag5_T1P_T2A,5,P,A,6,11,5,3,14,toy truck,Did you see the toy truck?,0.12,0.016,JPG\,globe,belt02a,sponge01,violin,fork03c,bluecheese,clock01a,microscope,balloon01b,scarf,teabag,pen04b,brick,brownsugar,blankImage,blankImage,blankImage,bluecheese,,,,,,,,,,,,0,86,86,204,,,,,,,,,,,,,,,,,,,,,,,,,,,,,,,,,,,526.960344000021,527.9737809000071,527.9571047001518,528.5412030001171,528.5412030001171,None,530.1424279001076,None,right,0.8525026000570506,530.1424279001076,None,531.0268679000437,None,right,3.6226576999761164,531.0268679000437,None,,,,,,,,,,,,,,,,,,,,,,,PPT54,001,2022-07-15_12h01.55.598,ABstudy,2022.1.4,59.92875668179853,
AB,Lag1_T1P_T2P,1,P,P,7,8,6,5,13,dream catcher,Did you see the dream catcher?,0.12,0.016,JPG\,clock01a,cellphone,toaster01,toothbrush03b,cauliflower01,microscope,dreamcatcher,stapler05,scarf,clock04,sponge01,iron01b,watch02a,blankImage,blankImage,blankImage,blankImage,dreamcatcher,,,,,,,,,,,,0,87,87,81,,,,,,,,,,,,,,,,,,,,,,,,,,,,,,,,,,,534.6812199000269,535.681635600049,535.6647332999855,536.2952655002009,536.2952655002009,None,537.8384448001161,None,left,0.4675478001590818,537.8384448001161,None,538.3339195000008,None,right,0.3481527999974787,538.3339195000008,None,,,,,,,,,,,,,,,,,,,,,,,PPT54,001,2022-07-15_12h01.55.598,ABstudy,2022.1.4,59.92875668179853,
AB,Lag1_T1P_T2P,1,P,P,6,7,5,4,11,Bow,Did you see the Bow?,0.12,0.016,JPG\,broom01,plate01b,scissors01,garlic01a,paintbrush01,bow,stapler03a,shirt02,speaker04,celery,sandal,blankImage,blankImage,blankImage,blankImage,blankImage,blankImage,bow,,,,,,,,,,,,0,88,88,53,,,,,,,,,,,,,,,,,,,,,,,,,,,,,,,,,,,538.7036253002007,539.7188159001525,539.6854826000053,540.2665397999808,540.2665397999808,None,541.6510128001682,None,left,0.470495100133121,541.6510128001682,None,542.1393815001938,None,right,0.8864432000555098,542.1393815001938,None,,,,,,,,,,,,,,,,,,,,,,,PPT54,001,2022-07-15_12h01.55.598,ABstudy,2022.1.4,59.92875668179853,
AB,Lag5_T1A_T2P,5,A,P,7,12,6,3,15,hockey puck,Did you see the hockey puck?,0.12,0.016,JPG\,toiletpaper01a,lipstick02a,potato02b,speaker04,globe,strawberry,carrot01,plate01b,sock01a,candle08b,pen04b,stapler04b,foosballtable,brick,pear01,blankImage,blankImage,frisbee,,,,,,,,,,,,0,89,89,260,,,,,,,,,,,,,,,,,,,,,,,,,,,,,,,,,,,543.0672451001592,544.0735453001689,544.0569208001252,544.6433141999878,544.6433141999878,None,546.4397661001422,None,right,0.7224237001501024,546.4397661001422,None,547.1929326001555,None,right,1.6406864998862147,547.1929326001555,None,,,,,,,,,,,,,,,,,,,,,,,PPT54,001,2022-07-15_12h01.55.598,ABstudy,2022.1.4,59.92875668179853,
AB,Lag1_T1A_T2A,1,A,A,8,9,7,4,13,Recycling bin,Did you see the Recycling bin?,0.12,0.016,JPG\,brick,plate01b,pen04b,toaster01,screwdriver04b,candle01,envelope03a,feather03a,pig,ring01,orange,clock01a,lighter01,blankImage,blankImage,blankImage,blankImage,bumpercar,,,,,,,,,,,,0,90,90,292,,,,,,,,,,,,,,,,,,,,,,,,,,,,,,,,,,,548.8626106001902,549.8621026000474,549.8454287000932,550.4292674001772,550.4292674001772,None,551.9907840001397,None,right,0.7947037999983877,551.9907840001397,None,552.8150277000386,None,right,0.7955843999516219,552.8150277000386,None,,,,,,,,,,,,,,,,,,,,,,,PPT54,001,2022-07-15_12h01.55.598,ABstudy,2022.1.4,59.92875668179853,
AB,Lag1_T1P_T2P,1,P,P,8,9,7,3,12,apron,Did you see the apron?,0.12,0.016,JPG\,avocado01,tambourine02,match,cauliflower01,paintbrush01,clock01a,pig,apron,stapler03a,cellphone,watch02a,pear01,blankImage,blankImage,blankImage,blankImage,blankImage,apron,,,,,,,,,,,,0,91,91,32,,,,,,,,,,,,,,,,,,,,,,,,,,,,,,,,,,,553.6356470000464,554.6502071002033,554.6170115000568,555.2174339001067,555.2174339001067,None,556.6933666002005,None,left,0.364221999887377,556.6933666002005,None,557.0861659001093,None,right,0.75581040000543,557.0861659001093,None,,,,,,,,,,,,,,,,,,,,,,,PPT54,001,2022-07-15_12h01.55.598,ABstudy,2022.1.4,59.92875668179853,
AB,Lag5_T1A_T2P,5,A,P,7,12,6,4,16,scooter,Did you see the scooter?,0.12,0.016,JPG\,cigarette,pig,banana01,strawberry,clock01a,plate01b,spoon01,blueberry01,battery02b,pineapple01a,chain01,stapler05,candy,pen04b,teabag,birthdaycandle,blankImage,1nose,,,,,,,,,,,,0,92,92,268,,,,,,,,,,,,,,,,,,,,,,,,,,,,,,,,,,,557.875747299986,558.8875188999809,558.8708313000388,559.4546576000284,559.4546576000284,None,561.3068659000564,None,right,0.6470981000456959,561.3068659000564,None,561.9742922000587,None,left,0.25166229996830225,561.9742922000587,None,,,,,,,,,,,,,,,,,,,,,,,PPT54,001,2022-07-15_12h01.55.598,ABstudy,2022.1.4,59.92875668179853,
AB,Lag1_T1P_T2P,1,P,P,8,9,7,4,13,Doughnut,Did you see the Doughnut?,0.12,0.016,JPG\,brick,eraser,cucumber,ashtray01,thermometer02b,binoculars01b,lipstick02a,donut,stapler01,brownsugar,battery02b,iron01b,dice05a,blankImage,blankImage,blankImage,blankImage,donut,,,,,,,,,,,,0,93,93,39,,,,,,,,,,,,,,,,,,,,,,,,,,,,,,,,,,,562.2628403999843,563.2756008000579,563.2589140001219,563.8376611000858,563.8376611000858,None,565.4631751000416,None,left,0.4109562998637557,565.4631751000416,None,565.8964425001759,None,right,0.3055900998879224,565.8964425001759,None,,,,,,,,,,,,,,,,,,,,,,,PPT54,001,2022-07-15_12h01.55.598,ABstudy,2022.1.4,59.92875668179853,
AB,Lag1_T1P_T2P,1,P,P,5,6,4,5,11,beaver,Did you see the beaver?,0.12,0.016,JPG\,belt02a,sunglasses04,computerkeyboard02,cherry01,beaver,stapler03a,watch02a,dice05a,blueberry01,spoon01,match,blankImage,blankImage,blankImage,blankImage,blankImage,blankImage,beaver,,,,,,,,,,,,0,94,94,55,,,,,,,,,,,,,,,,,,,,,,,,,,,,,,,,,,,566.2979778000154,567.3129528001882,567.2963357002009,567.8884474001825,567.8884474001825,None,569.1767010001931,None,left,0.36182700004428625,569.1767010001931,None,569.5650116000324,None,right,0.24578600004315376,569.5650116000324,None,,,,,,,,,,,,,,,,,,,,,,,PPT54,001,2022-07-15_12h01.55.598,ABstudy,2022.1.4,59.92875668179853,
AB,Lag5_T1P_T2P,5,P,P,6,11,5,5,16,microwave,Did you see the microwave?,0.12,0.016,JPG\,pen04b,speaker04,lighter01,cherry01,weight04a,microwave,sock01a,toothbrush03b,broom01,sewingmachine01a,stapler06,iron01b,clock01a,sandal,cd,blueberry01,blankImage,microwave,,,,,,,,,,,,0,95,95,136,,,,,,,,,,,,,,,,,,,,,,,,,,,,,,,,,,,569.8384587001055,570.8497540000826,570.8328596001957,571.3983157000039,571.3983157000039,None,573.445579700172,None,left,0.2837787999305874,573.445579700172,None,573.7521594001446,None,left,0.2185957001056522,573.7521594001446,None,,,,,,,,,,,,,,,,,,,,,,,PPT54,001,2022-07-15_12h01.55.598,ABstudy,2022.1.4,59.92875668179853,
AB,Lag5_T1P_T2P,5,P,P,7,12,6,4,16,Recycling bin,Did you see the Recycling bin?,0.12,0.016,JPG\,broccoli01a,scissors01,toothbrush03b,foosballtable,iron01b,brick,recyclingbin,toiletpaper01a,cd,garlic01a,carrot01,stapler03a,envelope03a,battery02b,balloon01b,broom01,blankImage,recyclingbin,,,,,,,,,,,,0,96,96,157,,,,,,,,,,,,,,,,,,,,,,,,,,,,,,,,,,,574.0065564000979,575.0206647000741,575.0039398001973,575.5998676000163,575.5998676000163,None,577.5267055002041,None,left,0.4667652000207454,577.5267055002041,None,578.0235915000085,None,left,0.13799550011754036,578.0235915000085,None,,,,,,,,,,,,,,,,,,,,,,,PPT54,001,2022-07-15_12h01.55.598,ABstudy,2022.1.4,59.92875668179853,
AB,Lag1_T1P_T2P,1,P,P,8,9,7,4,13,bowling ball,Did you see the bowling ball?,0.12,0.016,JPG\,dandelion,pineapple01a,broom01,pen04b,sock01a,sandal,foosballtable,bowlingball,stapler01,toothbrush03b,celery,candle08b,tennisball01b,blankImage,blankImage,blankImage,blankImage,bowlingball,,,,,,,,,,,,0,97,97,7,,,,,,,,,,,,,,,,,,,,,,,,,,,,,,,,,,,578.1952047999948,579.2082434000913,579.1915451001842,579.6921312999912,579.6921312999912,None,581.3417105001863,None,left,0.4034736000467092,581.3417105001863,None,581.7768667000346,None,right,0.3288634999189526,581.7768667000346,None,,,,,,,,,,,,,,,,,,,,,,,PPT54,001,2022-07-15_12h01.55.598,ABstudy,2022.1.4,59.92875668179853,
AB,Lag5_T1A_T2P,5,A,P,5,10,4,4,14,duck,Did you see the duck?,0.12,0.016,JPG\,brick,eraser,cucumber,ashtray01,thermometer02b,binoculars01b,lipstick02a,screwdriver04b,grape01,stapler04b,battery02b,iron01b,dice05a,avocado01,blankImage,blankImage,blankImage,barrel01,,,,,,,,,,,,0,98,98,280,,,,,,,,,,,,,,,,,,,,,,,,,,,,,,,,,,,582.1297022001818,583.1451698001474,583.1118478002027,583.7047305000015,583.7047305000015,None,585.4549351001624,None,left,0.378757799975574,585.4549351001624,None,585.8646325001027,None,left,0.6729351000394672,585.8646325001027,None,,,,,,,,,,,,,,,,,,,,,,,PPT54,001,2022-07-15_12h01.55.598,ABstudy,2022.1.4,59.92875668179853,
AB,Lag5_T1P_T2P,5,P,P,8,13,7,5,18,hand,Did you see the hand?,0.12,0.016,JPG\,foosballtable,candy,envelope03a,microscope,pencil01,leaf02a,scissors01,hand01b,grape01,dandelion,pineapple01a,hammer01,stapler03a,thermometer02b,ring01,sewingmachine01a,blankImage,hand01b,,,,,,,,,,,,0,99,99,131,,,,,,,,,,,,,,,,,,,,,,,,,,,,,,,,,,,586.5676028002053,587.5831524000969,587.5497560000513,588.0502711001318,588.0502711001318,None,590.1146226001438,None,left,0.30270220013335347,590.1146226001438,None,590.4358167001046,None,left,0.18945519998669624,590.4358167001046,None,,,,,,,,,,,,,,,,,,,,,,,PPT54,001,2022-07-15_12h01.55.598,ABstudy,2022.1.4,59.92875668179853,
AB,Lag1_T1P_T2P,1,P,P,8,9,7,3,12,Eiffel tower,Did you see the Eiffel tower?,0.12,0.016,JPG\,celery,tennisball01b,calculator01,pear01,screw02,orange,button01,eiffeltower,stapler03b,apple07,iron01b,brownsugar,blankImage,blankImage,blankImage,blankImage,blankImage,eiffeltower,,,,,,,,,,,,0,100,100,40,,,,,,,,,,,,,,,,,,,,,,,,,,,,,,,,,,,590.6544894999824,591.6538530001417,591.6370989000425,592.217247800203,592.217247800203,None,593.611926499987,None,left,0.4936439001467079,593.611926499987,None,594.1227694000117,None,left,0.18374069989658892,594.1227694000117,None,,,,,,,,,,,,,,,,,,,,,,,PPT54,001,2022-07-15_12h01.55.598,ABstudy,2022.1.4,59.92875668179853,
AB,Lag1_T1A_T2P,1,A,P,8,9,7,3,12,seal,Did you see the seal?,0.12,0.016,JPG\,dice05a,watch02a,pig,lighter01,button01,strawberry,paintbrush01,microscope,stapler03a,pen04b,feather03a,8ball,blankImage,blankImage,blankImage,blankImage,blankImage,hockeystick,,,,,,,,,,,,0,101,101,235,,,,,,,,,,,,,,,,,,,,,,,,,,,,,,,,,,,594.367099000141,595.3739788001403,595.3573259001132,595.9451874000952,595.9451874000952,None,597.3480024000164,None,right,0.7901237001642585,597.3480024000164,None,598.1615643000696,None,right,0.6398453998845071,598.1615643000696,None,,,,,,,,,,,,,,,,,,,,,,,PPT54,001,2022-07-15_12h01.55.598,ABstudy,2022.1.4,59.92875668179853,
AB,Lag1_T1P_T2A,1,P,A,5,6,4,4,10,bird,Did you see the bird?,0.12,0.016,JPG\,toaster01,scarf,toiletpaper01a,calculator01,swallow,sewingmachine01a,fan,teabag,strawberry,balloon01b,blankImage,blankImage,blankImage,blankImage,blankImage,blankImage,blankImage,swallow,,,,,,,,,,,,0,102,102,195,,,,,,,,,,,,,,,,,,,,,,,,,,,,,,,,,,,598.8365386000369,599.8457220001146,599.8290538000874,600.4186806001235,600.4186806001235,None,601.6744824000634,None,left,0.583196499850601,601.6744824000634,None,602.2820226000622,None,right,0.23946439987048507,602.2820226000622,None,,,,,,,,,,,,,,,,,,,,,,,PPT54,001,2022-07-15_12h01.55.598,ABstudy,2022.1.4,59.92875668179853,
AB,Lag1_T1A_T2P,1,A,P,5,6,4,3,9,microphone,Did you see the microphone?,0.12,0.016,JPG\,hammer01,sponge01,toaster01,cherry01,feather03a,stapler06,measuringcup01,pencil01,tennisball01b,blankImage,blankImage,blankImage,blankImage,blankImage,blankImage,blankImage,blankImage,cactus,,,,,,,,,,,,0,103,103,230,,,,,,,,,,,,,,,,,,,,,,,,,,,,,,,,,,,602.5500529001001,603.5657297000289,603.5322992000729,604.1100433000829,604.1100433000829,None,605.2271009001415,None,right,0.5102828999515623,605.2271009001415,None,605.7674039001577,None,left,0.18616340006701648,605.7674039001577,None,,,,,,,,,,,,,,,,,,,,,,,PPT54,001,2022-07-15_12h01.55.598,ABstudy,2022.1.4,59.92875668179853,
AB,Lag1_T1P_T2P,1,P,P,8,9,7,4,13,dart board,Did you see the dart board?,0.12,0.016,JPG\,rice,watermelon01,tableknife02,scarf,computerkeyboard02,cauliflower01,battery02b,dartboard,stapler01,sandal,sponge01,microscope,tomato01,blankImage,blankImage,blankImage,blankImage,dartboard,,,,,,,,,,,,0,104,104,80,,,,,,,,,,,,,,,,,,,,,,,,,,,,,,,,,,,605.9868935002014,607.0022644000128,606.9689412000589,607.5609442000277,607.5609442000277,None,609.1809563001152,None,left,0.22886460018344223,609.1809563001152,None,609.4380814000033,None,left,0.21177409985102713,609.4380814000033,None,,,,,,,,,,,,,,,,,,,,,,,PPT54,001,2022-07-15_12h01.55.598,ABstudy,2022.1.4,59.92875668179853,
AB,Lag1_T1A_T2P,1,A,P,7,8,6,3,11,Fox,Did you see the Fox?,0.12,0.016,JPG\,toaster01,chain01,sponge01,baseball01a,carrot01,belt02a,book01b,stapler03b,grape01,brick,celery,blankImage,blankImage,blankImage,blankImage,blankImage,blankImage,fingerprint,,,,,,,,,,,,0,105,105,234,,,,,,,,,,,,,,,,,,,,,,,,,,,,,,,,,,,609.6736714001745,610.6892614001408,610.6559543001931,611.2459200001322,611.2459200001322,None,612.666728900047,None,right,0.44728410011157393,612.666728900047,None,613.1417159000412,None,left,0.20411330019123852,613.1417159000412,None,,,,,,,,,,,,,,,,,,,,,,,PPT54,001,2022-07-15_12h01.55.598,ABstudy,2022.1.4,59.92875668179853,
AB,Lag1_T1A_T2P,1,A,P,6,7,5,3,10,curtain,Did you see the curtain?,0.12,0.016,JPG\,carrot01,greenolive,fork03c,chain01,ashtray01,watermelon01,stapler06,printer02,comb02a,toaster01,blankImage,blankImage,blankImage,blankImage,blankImage,blankImage,blankImage,birdhouse,,,,,,,,,,,,0,106,106,249,,,,,,,,,,,,,,,,,,,,,,,,,,,,,,,,,,,613.3776589001063,614.3929537001532,614.3595416001044,614.939887000015,614.939887000015,None,616.2167768999934,None,right,0.4408859999384731,616.2167768999934,None,616.6801277000923,None,left,0.18501439993269742,616.6801277000923,None,,,,,,,,,,,,,,,,,,,,,,,PPT54,001,2022-07-15_12h01.55.598,ABstudy,2022.1.4,59.92875668179853,
AB,Lag1_T1P_T2P,1,P,P,8,9,7,4,13,mattress,Did you see the mattress?,0.12,0.016,JPG\,button01,celery,birthdaycandle,apple07,avocado01,tennisball01b,dice05a,mattress,stapler01,feather03a,tomato01,scarf,orange,blankImage,blankImage,blankImage,blankImage,mattress,,,,,,,,,,,,0,107,107,22,,,,,,,,,,,,,,,,,,,,,,,,,,,,,,,,,,,616.8977844000328,617.9132330000866,617.8797924001701,618.4836064002011,618.4836064002011,None,620.1494014000054,None,left,1.7412611001636833,620.1494014000054,None,621.9170884999912,None,right,0.7725835999008268,621.9170884999912,None,,,,,,,,,,,,,,,,,,,,,,,PPT54,001,2022-07-15_12h01.55.598,ABstudy,2022.1.4,59.92875668179853,
AB,Lag5_T1P_T2P,5,P,P,6,11,5,4,15,shovel,Did you see the shovel?,0.12,0.016,JPG\,carrot01,watch02a,clock04,microscope,toiletpaper01a,shovel01,alligator,ring01,brick,watermelon01,stapler03b,pencil01,measuringcup01,balloon01b,computerkeyboard02,blankImage,blankImage,shovel01,,,,,,,,,,,,0,108,108,139,,,,,,,,,,,,,,,,,,,,,,,,,,,,,,,,,,,622.7201497000642,623.7356165000238,623.7022316001821,624.2852919001598,624.2852919001598,None,626.0860964001622,None,left,0.7807956000324339,626.0860964001622,None,626.8889645000454,None,right,0.6088366999756545,626.8889645000454,None,,,,,,,,,,,,,,,,,,,,,,,PPT54,001,2022-07-15_12h01.55.598,ABstudy,2022.1.4,59.92875668179853,
AB,Lag5_T1A_T2P,5,A,P,5,10,4,4,14,Chefs hat,Did you see the Chefs hat?,0.12,0.016,JPG\,candle01,fork03c,plate01b,violin,computerkeyboard02,candy,calculator01,paintbrush01,cherry01,stapler06,teabag,banana01,cd,lighter01,blankImage,blankImage,blankImage,horseshoe,,,,,,,,,,,,0,109,109,278,,,,,,,,,,,,,,,,,,,,,,,,,,,,,,,,,,,627.5290815001354,628.5402057999745,628.5239433001261,629.1590958000161,629.1590958000161,None,630.8180840001442,None,right,0.44783199997618794,630.8180840001442,None,631.2933662000578,None,left,0.19657049980014563,631.2933662000578,None,,,,,,,,,,,,,,,,,,,,,,,PPT54,001,2022-07-15_12h01.55.598,ABstudy,2022.1.4,59.92875668179853,
AB,Lag1_T1A_T2A,1,A,A,8,9,7,4,13,sword fish,Did you see the sword fish?,0.12,0.016,JPG\,pizza,strawberry,potato02b,speaker04,battery02b,iron01b,dice05a,cellphone,globe,banana01,medal02b,baseball01a,toaster01,blankImage,blankImage,blankImage,blankImage,ear,,,,,,,,,,,,0,110,110,295,,,,,,,,,,,,,,,,,,,,,,,,,,,,,,,,,,,631.5118700000457,632.5111442001071,632.4945110001136,633.0872643999755,633.0872643999755,None,634.7008774001151,None,right,0.47701220004819334,634.7008774001151,None,635.1972535999957,None,right,0.5648351002018899,635.1972535999957,None,,,,,,,,,,,,,,,,,,,,,,,PPT54,001,2022-07-15_12h01.55.598,ABstudy,2022.1.4,59.92875668179853,
AB,Lag1_T1A_T2P,1,A,P,6,7,5,3,10,Jellyfish,Did you see the Jellyfish?,0.12,0.016,JPG\,thermometer02b,avocado01,scissors01,tennisball01b,medal02b,banana01,stapler01,cigarette,potato02b,pineapple01a,blankImage,blankImage,blankImage,blankImage,blankImage,blankImage,blankImage,firehydrant,,,,,,,,,,,,0,111,111,255,,,,,,,,,,,,,,,,,,,,,,,,,,,,,,,,,,,635.7931161001325,636.799023900181,636.7823051000014,637.3968708000612,637.3968708000612,None,638.7038783000316,None,right,0.449258100008592,638.7038783000316,None,639.1843106001616,None,right,0.18470590002834797,639.1843106001616,None,,,,,,,,,,,,,,,,,,,,,,,PPT54,001,2022-07-15_12h01.55.598,ABstudy,2022.1.4,59.92875668179853,
AB,Lag1_T1P_T2P,1,P,P,8,9,7,3,12,Sheep,Did you see the Sheep?,0.12,0.016,JPG\,celery,orange,scissors01,balloon01b,avocado01,printer02,mushroom01,sheep,stapler03b,dice05a,ashtray01,fan,blankImage,blankImage,blankImage,blankImage,blankImage,sheep,,,,,,,,,,,,0,112,112,71,,,,,,,,,,,,,,,,,,,,,,,,,,,,,,,,,,,639.4037864999846,640.4188375000376,640.3854882000014,640.9739055000246,640.9739055000246,None,642.4550171000883,None,left,0.5783745998051018,642.4550171000883,None,643.0547960000113,None,right,0.7144790999591351,643.0547960000113,None,,,,,,,,,,,,,,,,,,,,,,,PPT54,001,2022-07-15_12h01.55.598,ABstudy,2022.1.4,59.92875668179853,
AB,Lag1_T1P_T2P,1,P,P,5,6,4,5,11,owl,Did you see the owl?,0.12,0.016,JPG\,cellphone,tomato01,comb02a,candy,barnowl,stapler03a,toaster01,fan,feather03a,pen04b,lemon02,blankImage,blankImage,blankImage,blankImage,blankImage,blankImage,barnowl,,,,,,,,,,,,0,113,113,33,,,,,,,,,,,,,,,,,,,,,,,,,,,,,,,,,,,643.7913006001618,644.8066645001527,644.7732137001585,645.3531151001807,645.3531151001807,None,646.7606741001364,None,left,0.40949660004116595,646.7606741001364,None,647.1922557000071,None,left,0.16179740009829402,647.1922557000071,None,,,,,,,,,,,,,,,,,,,,,,,PPT54,001,2022-07-15_12h01.55.598,ABstudy,2022.1.4,59.92875668179853,
AB,Lag5_T1P_T2P,5,P,P,5,10,4,3,13,lollipop,Did you see the lollipop?,0.12,0.016,JPG\,brownsugar,candle01,match,printer02,lollipop04,balloon01b,belt02a,potato02b,computerkeyboard02,stapler03a,rice,mushroom01,pencil01,blankImage,blankImage,blankImage,blankImage,lollipop04,,,,,,,,,,,,0,114,114,112,,,,,,,,,,,,,,,,,,,,,,,,,,,,,,,,,,,647.3780831000768,648.3934930001851,648.3600745000876,648.8605792999733,648.8605792999733,None,650.5376071999781,None,left,0.7116384000983089,650.5376071999781,None,651.2798768000212,None,right,0.1452639999333769,651.2798768000212,None,,,,,,,,,,,,,,,,,,,,,,,PPT54,001,2022-07-15_12h01.55.598,ABstudy,2022.1.4,59.92875668179853,
AB,Lag1_T1P_T2P,1,P,P,6,7,5,3,10,cupcake,Did you see the cupcake?,0.12,0.016,JPG\,printer02,leaf02a,cauliflower01,sock01a,brownsugar,cupcake,stapler01,orange,belt02a,shirt02,blankImage,blankImage,blankImage,blankImage,blankImage,blankImage,blankImage,cupcake,,,,,,,,,,,,0,115,115,38,,,,,,,,,,,,,,,,,,,,,,,,,,,,,,,,,,,651.4527247999795,652.4640068002045,652.4473486000206,653.037724800175,653.037724800175,None,654.2349117000122,None,left,0.4701537999790162,654.2349117000122,None,654.7348005999811,None,right,0.5547394999302924,654.7348005999811,None,,,,,,,,,,,,,,,,,,,,,,,PPT54,001,2022-07-15_12h01.55.598,ABstudy,2022.1.4,59.92875668179853,
AB,Lag1_T1P_T2P,1,P,P,5,6,4,3,9,kangaroo,Did you see the kangaroo?,0.12,0.016,JPG\,candle01,shirt02,brick,orange,kangaroo,stapler03a,pizza,thermometer02b,book01b,blankImage,blankImage,blankImage,blankImage,blankImage,blankImage,blankImage,blankImage,kangaroo,,,,,,,,,,,,0,116,116,16,,,,,,,,,,,,,,,,,,,,,,,,,,,,,,,,,,,655.3194309000392,656.3348229001276,656.3013921000529,656.8712832999881,656.8712832999881,None,657.9833381001372,None,left,1.018138499930501,657.9833381001372,None,659.0209506000392,None,right,0.2844040000345558,659.0209506000392,None,,,,,,,,,,,,,,,,,,,,,,,PPT54,001,2022-07-15_12h01.55.598,ABstudy,2022.1.4,59.92875668179853,
AB,Lag1_T1P_T2P,1,P,P,7,8,6,3,11,Moose,Did you see the Moose?,0.12,0.016,JPG\,sock01a,spoon01,alligator,comb02a,printer02,medal02b,moose,stapler03a,greenolive,computerkeyboard02,cauliflower01,blankImage,blankImage,blankImage,blankImage,blankImage,blankImage,moose,,,,,,,,,,,,0,117,117,67,,,,,,,,,,,,,,,,,,,,,,,,,,,,,,,,,,,659.3410817000549,660.3556927000172,660.3222795000765,660.9002118001226,660.9002118001226,None,662.2887349000666,None,left,0.2015114000532776,662.2887349000666,None,662.5075425000396,None,left,0.14952170010656118,662.5075425000396,None,,,,,,,,,,,,,,,,,,,,,,,PPT54,001,2022-07-15_12h01.55.598,ABstudy,2022.1.4,59.92875668179853,
AB,Lag5_T1A_T2P,5,A,P,5,10,4,3,13,flower,Did you see the flower?,0.12,0.016,JPG\,cucumber,ring01,lipstick02a,microscope,violin,garlic01a,celery,lighter01,cherry01,stapler03a,belt02a,key01,binoculars01b,blankImage,blankImage,blankImage,blankImage,christmastree,,,,,,,,,,,,0,118,118,284,,,,,,,,,,,,,,,,,,,,,,,,,,,,,,,,,,,662.6900933000725,663.6922043000814,663.6588984001428,664.2393573999871,664.2393573999871,None,665.8814813001081,None,right,0.6721635998692364,665.8814813001081,None,666.5782133000903,None,left,0.383568599820137,666.5782133000903,None,,,,,,,,,,,,,,,,,,,,,,,PPT54,001,2022-07-15_12h01.55.598,ABstudy,2022.1.4,59.92875668179853,
AB,Lag1_T1P_T2P,1,P,P,5,6,4,4,10,Ladybug,Did you see the Ladybug?,0.12,0.016,JPG\,key01,apple07,ring01,leaf02a,ladybug03,stapler04b,violin,sponge01,baseball01a,thermometer02b,blankImage,blankImage,blankImage,blankImage,blankImage,blankImage,blankImage,ladybug03,,,,,,,,,,,,0,119,119,65,,,,,,,,,,,,,,,,,,,,,,,,,,,,,,,,,,,666.9857365000062,667.9969216000754,667.9802202000283,668.5714102000929,668.5714102000929,None,669.8129741000012,None,left,0.2766030998900533,669.8129741000012,None,670.1151354999747,None,left,0.0952749999705702,670.1151354999747,None,,,,,,,,,,,,,,,,,,,,,,,PPT54,001,2022-07-15_12h01.55.598,ABstudy,2022.1.4,59.92875668179853,
AB,Lag5_T1P_T2P,5,P,P,8,13,7,5,18,Ping pong Table,Did you see the Ping pong Table?,0.12,0.016,JPG\,shirt02,match,screw02,foosballtable,blueberry01,pineapple01a,sewingmachine01a,pingpongtable,button01,comb02a,dice05a,measuringcup01,stapler04b,printer02,carrot01,watermelon01,blankImage,pingpongtable,,,,,,,,,,,,0,120,120,152,,,,,,,,,,,,,,,,,,,,,,,,,,,,,,,,,,,670.2368112001568,671.2497235999908,671.2330455000047,671.8335488999728,671.8335488999728,None,673.7542588000651,None,left,0.29559200000949204,673.7542588000651,None,674.0690886999946,None,left,0.14793459977954626,674.0690886999946,None,,,,,,,,,,,,,,,,,,,,,,,PPT54,001,2022-07-15_12h01.55.598,ABstudy,2022.1.4,59.92875668179853,
AB,Lag1_T1P_T2P,1,P,P,8,9,7,4,13,ladder,Did you see the ladder?,0.12,0.016,JPG\,cigarette,fork03c,greenolive,broccoli01a,avocado01,tennisball01b,balloon01b,ladder,stapler03b,fan,clock01a,strawberry,envelope03a,blankImage,blankImage,blankImage,blankImage,ladder,,,,,,,,,,,,0,121,121,45,,,,,,,,,,,,,,,,,,,,,,,,,,,,,,,,,,,674.2381755001843,675.2535722001921,675.2201629001647,675.7954164000694,675.7954164000694,None,677.4022334001493,None,left,0.19078220007941127,677.4022334001493,None,677.6227553000208,None,left,0.2503041001036763,677.6227553000208,None,,,,,,,,,,,,,,,,,,,,,,,PPT54,001,2022-07-15_12h01.55.598,ABstudy,2022.1.4,59.92875668179853,
AB,Lag5_T1P_T2P,5,P,P,5,10,4,5,15,funnel,Did you see the funnel?,0.12,0.016,JPG\,pineapple01a,tennisball01b,computerkeyboard02,feather03a,funnel,acorn,violin,blueberry01,medal02b,stapler01,greenolive,screwdriver04b,potato02b,fork03c,cymbal,blankImage,blankImage,funnel,,,,,,,,,,,,0,122,122,109,,,,,,,,,,,,,,,,,,,,,,,,,,,,,,,,,,,677.8948747999966,678.9074841002002,678.8907956001349,679.4855751001742,679.4855751001742,None,681.2116527999751,None,right,0.8377471000421792,681.2116527999751,None,682.0780176999979,None,left,0.1714999999385327,682.0780176999979,None,,,,,,,,,,,,,,,,,,,,,,,PPT54,001,2022-07-15_12h01.55.598,ABstudy,2022.1.4,59.92875668179853,
AB,Lag1_T1P_T2P,1,P,P,8,9,7,5,14,lawn mower,Did you see the lawn mower?,0.12,0.016,JPG\,battery02b,sunglasses04,pear01,tennisball01b,clock01a,speaker04,binoculars01b,lawnmower,stapler05,pineapple01a,avocado01,grape01,blueberry01,violin,blankImage,blankImage,blankImage,lawnmower,,,,,,,,,,,,0,123,123,46,,,,,,,,,,,,,,,,,,,,,,,,,,,,,,,,,,,682.2878169000614,683.2948080000933,683.2780166000593,683.8537600000855,683.8537600000855,None,685.5928343001287,None,left,0.04055789997801185,685.5928343001287,None,685.664585800143,None,left,0.25646180007606745,685.664585800143,None,,,,,,,,,,,,,,,,,,,,,,,PPT54,001,2022-07-15_12h01.55.598,ABstudy,2022.1.4,59.92875668179853,
AB,Lag5_T1P_T2P,5,P,P,5,10,4,4,14,duck,Did you see the duck?,0.12,0.016,JPG\,celery,pencil01,fan,foosballtable,duck01,shirt02,potato02b,fork03c,button01,stapler03a,baseball01a,printer02,cauliflower01,dandelion,blankImage,blankImage,blankImage,duck01,,,,,,,,,,,,0,124,124,130,,,,,,,,,,,,,,,,,,,,,,,,,,,,,,,,,,,685.9550434001721,686.9651924001519,686.9485198000912,687.5377959001344,687.5377959001344,None,689.1340871001594,None,left,0.27577129984274507,689.1340871001594,None,689.4344120000023,None,left,0.16753229987807572,689.4344120000023,None,,,,,,,,,,,,,,,,,,,,,,,PPT54,001,2022-07-15_12h01.55.598,ABstudy,2022.1.4,59.92875668179853,
AB,Lag5_T1P_T2P,5,P,P,6,11,5,3,14,wrench,Did you see the wrench?,0.12,0.016,JPG\,cherry01,cymbal,envelope03a,foosballtable,shirt02,stubbywrench01a,sewingmachine01a,candle08b,battery02b,apple07,stapler03b,screwdriver04b,strawberry,sunglasses04,blankImage,blankImage,blankImage,stubbywrench01a,,,,,,,,,,,,0,125,125,122,,,,,,,,,,,,,,,,,,,,,,,,,,,,,,,,,,,689.6918957000598,690.702077300055,690.6855361000635,691.2585192001425,691.2585192001425,None,692.903080600081,None,left,0.3148441999219358,692.903080600081,None,693.238284900086,None,left,0.14747709990479052,693.238284900086,None,,,,,,,,,,,,,,,,,,,,,,,PPT54,001,2022-07-15_12h01.55.598,ABstudy,2022.1.4,59.92875668179853,
AB,Lag5_T1P_T2P,5,P,P,7,12,6,3,15,lips,Did you see the lips?,0.12,0.016,JPG\,cigarette,fork03c,greenolive,broccoli01a,avocado01,tennisball01b,lip,leaf02a,pig,fan,clock01a,stapler03a,envelope03a,birthdaycandle,teabag,blankImage,blankImage,lip,,,,,,,,,,,,0,126,126,95,,,,,,,,,,,,,,,,,,,,,,,,,,,,,,,,,,,693.4109975001775,694.4228166001849,694.4061422999948,694.9837683001533,694.9837683001533,None,696.8281740001403,None,left,0.3010140999685973,696.8281740001403,None,697.1594195000362,None,left,0.20180730009451509,697.1594195000362,None,,,,,,,,,,,,,,,,,,,,,,,PPT54,001,2022-07-15_12h01.55.598,ABstudy,2022.1.4,59.92875668179853,
AB,Lag1_T1A_T2P,1,A,P,8,9,7,4,13,Fireplace,Did you see the Fireplace?,0.12,0.016,JPG\,scissors01,ashtray01,garlic01a,medal02b,cigarette,candle08b,leaf02a,envelope03a,stapler06,rice,toiletpaper01a,greenolive,cymbal,blankImage,blankImage,blankImage,blankImage,dartboard,,,,,,,,,,,,0,127,127,252,,,,,,,,,,,,,,,,,,,,,,,,,,,,,,,,,,,697.4034892001655,698.4099587001838,698.3932694001123,698.9624869001564,698.9624869001564,None,700.4619682000484,None,right,0.6998815999832004,700.4619682000484,None,701.1795203001238,None,right,0.2947281999513507,701.1795203001238,None,,,,,,,,,,,,,,,,,,,,,,,PPT54,001,2022-07-15_12h01.55.598,ABstudy,2022.1.4,59.92875668179853,
AB,Lag5_T1P_T2P,5,P,P,7,12,6,3,15,mail box,Did you see the mail box?,0.12,0.016,JPG\,key01,apple07,ring01,leaf02a,hammer01,tableknife02,postalmailbox01,sponge01,baseball01a,thermometer02b,celery,stapler06,grape01,cucumber,tennisball01b,blankImage,blankImage,postalmailbox01,,,,,,,,,,,,0,128,128,113,,,,,,,,,,,,,,,,,,,,,,,,,,,,,,,,,,,701.4987072001677,702.5142350001261,702.4807679001242,703.0564349000342,703.0564349000342,None,704.8691853000782,None,left,0.3804413001053035,704.8691853000782,None,705.2667461000383,None,left,0.19105260004289448,705.2667461000383,None,,,,,,,,,,,,,,,,,,,,,,,PPT54,001,2022-07-15_12h01.55.598,ABstudy,2022.1.4,59.92875668179853,
AB,Lag5_T1P_T2P,5,P,P,5,10,4,5,15,Ipad,Did you see the Ipad?,0.12,0.016,JPG\,fork03c,toothbrush03b,cellphone,fan,ipad02,clock01a,ring01,eraser,sunglasses04,stapler06,violin,brownsugar,blueberry01,pear01,pencil01,blankImage,blankImage,ipad02,,,,,,,,,,,,0,129,129,150,,,,,,,,,,,,,,,,,,,,,,,,,,,,,,,,,,,705.488587200176,706.5013658001553,706.4846386001445,707.0568844000809,707.0568844000809,None,708.8837774000131,None,left,0.03756149997934699,708.8837774000131,None,708.953788400162,None,left,0.19176079984754324,708.953788400162,None,,,,,,,,,,,,,,,,,,,,,,,PPT54,001,2022-07-15_12h01.55.598,ABstudy,2022.1.4,59.92875668179853,
AB,Lag1_T1A_T2A,1,A,A,8,9,7,3,12,punching bag,Did you see the punching bag?,0.12,0.016,JPG\,key01,apple07,ring01,leaf02a,hammer01,tableknife02,violin,sponge01,baseball01a,thermometer02b,celery,calculator01,blankImage,blankImage,blankImage,blankImage,blankImage,bathtub,,,,,,,,,,,,0,130,130,291,,,,,,,,,,,,,,,,,,,,,,,,,,,,,,,,,,,709.2202285001986,710.2216969002038,710.2050305001903,710.7846326001454,710.7846326001454,None,712.1857990000863,None,right,0.7674570002127439,712.1857990000863,None,712.9744420000352,None,right,0.4025516000110656,712.9744420000352,None,,,,,,,,,,,,,,,,,,,,,,,PPT54,001,2022-07-15_12h01.55.598,ABstudy,2022.1.4,59.92875668179853,
AB,Lag1_T1P_T2A,1,P,A,7,8,6,3,11,Armadillo,Did you see the Armadillo?,0.12,0.016,JPG\,clock01a,cellphone,toaster01,toothbrush03b,cauliflower01,microscope,armadillo,paintbrush01,scarf,clock04,sponge01,blankImage,blankImage,blankImage,blankImage,blankImage,blankImage,armadillo,,,,,,,,,,,,0,131,131,180,,,,,,,,,,,,,,,,,,,,,,,,,,,,,,,,,,,713.410738900071,714.4258814000059,714.3925249001477,714.9776258000638,714.9776258000638,None,716.3193636999931,None,right,0.5948789999820292,716.3193636999931,None,716.9452370000072,None,right,1.7598681000526994,716.9452370000072,None,,,,,,,,,,,,,,,,,,,,,,,PPT54,001,2022-07-15_12h01.55.598,ABstudy,2022.1.4,59.92875668179853,
AB,Lag5_T1A_T2P,5,A,P,7,12,6,4,16,church,Did you see the church?,0.12,0.016,JPG\,printer02,leaf02a,cauliflower01,sock01a,brownsugar,paintbrush01,pig,orange,belt02a,shirt02,key01,stapler06,cigarette,scissors01,envelope03a,blueberry01,blankImage,ant,,,,,,,,,,,,0,132,132,279,,,,,,,,,,,,,,,,,,,,,,,,,,,,,,,,,,,718.7881348000374,719.7975829001516,719.7809113999829,720.3699751000386,720.3699751000386,None,722.2579104001634,None,right,0.7445312000345439,722.2579104001634,None,723.0344647001475,None,left,0.18300149985589087,723.0344647001475,None,,,,,,,,,,,,,,,,,,,,,,,PPT54,001,2022-07-15_12h01.55.598,ABstudy,2022.1.4,59.92875668179853,
AB,Lag5_T1P_T2P,5,P,P,5,10,4,5,15,mouse,Did you see the mouse?,0.12,0.016,JPG\,pineapple01a,leaf02a,grape01,toiletpaper01a,mouse,tennisball01b,spoon01,chain01,pig,stapler03a,ring01,lemon02,dice05a,pizza,potato02b,blankImage,blankImage,mouse,,,,,,,,,,,,0,133,133,94,,,,,,,,,,,,,,,,,,,,,,,,,,,,,,,,,,,723.2369440000039,724.2522824001499,724.2189689001534,724.8054770000745,724.8054770000745,None,726.7392236001324,None,left,0.31104180007241666,726.7392236001324,None,727.0720081999898,None,left,0.18526400020346045,727.0720081999898,None,,,,,,,,,,,,,,,,,,,,,,,PPT54,001,2022-07-15_12h01.55.598,ABstudy,2022.1.4,59.92875668179853,
AB,Lag1_T1P_T2A,1,P,A,7,8,6,4,12,bird,Did you see the bird?,0.12,0.016,JPG\,speaker04,sewingmachine01a,eraser,violin,globe,belt02a,tern,cymbal,cd,greenolive,alligator,pear01,blankImage,blankImage,blankImage,blankImage,blankImage,tern,,,,,,,,,,,,0,134,134,177,,,,,,,,,,,,,,,,,,,,,,,,,,,,,,,,,,,727.2912964001298,728.3065194999799,728.2731858000625,728.8676491000224,728.8676491000224,None,730.3349731001072,None,left,0.45769900013692677,730.3349731001072,None,730.8255311001558,None,right,0.21545540005899966,730.8255311001558,None,,,,,,,,,,,,,,,,,,,,,,,PPT54,001,2022-07-15_12h01.55.598,ABstudy,2022.1.4,59.92875668179853,
AB,Lag5_T1A_T2P,5,A,P,6,11,5,3,14,keys,Did you see the keys?,0.12,0.016,JPG\,pencil01,microscope,banana01,computerkeyboard02,celery,cellphone,scissors01,sock01a,book01b,onion,stapler03a,binoculars01b,baseball01a,iron01b,blankImage,blankImage,blankImage,treadmill,,,,,,,,,,,,0,135,135,275,,,,,,,,,,,,,,,,,,,,,,,,,,,,,,,,,,,731.0614589001052,732.0767253001686,732.0433906000108,732.6433368001599,732.6433368001599,None,734.4000171001535,None,right,0.577426299918443,734.4000171001535,None,734.9965776000172,None,left,0.19697479996830225,734.9965776000172,None,,,,,,,,,,,,,,,,,,,,,,,PPT54,001,2022-07-15_12h01.55.598,ABstudy,2022.1.4,59.92875668179853,
AB,Lag1_T1A_T2P,1,A,P,5,6,4,3,9,barrel,Did you see the barrel?,0.12,0.016,JPG\,clock01a,cellphone,toaster01,toothbrush03b,cauliflower01,stapler01,comb02a,paintbrush01,scarf,blankImage,blankImage,blankImage,blankImage,blankImage,blankImage,blankImage,blankImage,sheep,,,,,,,,,,,,0,136,136,243,,,,,,,,,,,,,,,,,,,,,,,,,,,,,,,,,,,735.2171356000472,736.2309664001223,736.2143008001149,736.8038892000914,736.8038892000914,None,737.9127686000429,None,right,1.344073000131175,737.9127686000429,None,739.2841527001001,None,left,0.2046204002108425,739.2841527001001,None,,,,,,,,,,,,,,,,,,,,,,,PPT54,001,2022-07-15_12h01.55.598,ABstudy,2022.1.4,59.92875668179853,
