TrialType,CondType,Lag,T1_PA,T2_PA,T1Loc,T2Loc,PreDistractor,PostDistractor,TotalImg,cueWord,T1cue,StimLength,isi,PicFolder,Img1,Img2,Img3,Img4,Img5,Img6,Img7,Img8,Img9,Img10,Img11,Img12,Img13,Img14,Img15,Img16,Img17,T1_Identity,ImageType,T1PA,T2PA,Picture,Image,FullPathName,FilePath,Practice_Trials.thisRepN,Practice_Trials.thisTrialN,Practice_Trials.thisN,Practice_Trials.thisIndex,trials.thisRepN,trials.thisTrialN,trials.thisN,trials.thisIndex,trials_2.thisRepN,trials_2.thisTrialN,trials_2.thisN,trials_2.thisIndex,Practice_Ins.started,Practice_Ins.stopped,End_Prac_Ins.keys,End_Prac_Ins.rt,End_Prac_Ins.started,End_Prac_Ins.stopped,text_2.started,text_2.stopped,Fixation_Cross_2.started,Fixation_Cross_2.stopped,Rapid_Image_Present_2.started,Rapid_Image_Present_2.stopped,key_resp.keys,key_resp.rt,key_resp.started,key_resp.stopped,T1Response_2.started,T1Response_2.stopped,T2Response_2.started,T2Response_2.stopped,key_resp_4.keys,key_resp_4.rt,key_resp_4.started,key_resp_4.stopped,text.started,text.stopped,End_Instructions.keys,End_Instructions.rt,End_Instructions.started,End_Instructions.stopped,text_5.started,text_5.stopped,FC.started,FC.stopped,Rapid_Image_Present.started,Rapid_Image_Present.stopped,T1Response.started,T1Response.stopped,key_resp_2.keys,key_resp_2.rt,key_resp_2.started,key_resp_2.stopped,T2Response.started,T2Response.stopped,key_resp_3.keys,key_resp_3.rt,key_resp_3.started,key_resp_3.stopped,text_6.started,text_6.stopped,Fin_ins.keys,Fin_ins.rt,Fin_ins.started,Fin_ins.stopped,MemTest.started,MemTest.stopped,MemResponse.keys,MemResponse.rt,MemResponse.started,MemResponse.stopped,Display.started,Display.stopped,text_7.started,text_7.stopped,endOfExperiment.started,endOfExperiment.stopped,key_resp_5.keys,key_resp_5.rt,key_resp_5.started,key_resp_5.stopped,participant,session,date,expName,psychopyVersion,frameRate,
,,,,,,,,,,,,,,,,,,,,,,,,,,,,,,,,,,,,,,,,,,,,,,,,,,,,24.503482200205326,None,space,42.314499399857596,24.503482200205326,None,,,,,,,,,,,,,,,,,,,,,,,,,,,,,,,,,,,,,,,,,,,,,,,,,,,,,,,,,,,,,,,,,PPT53,001,2022-07-13_14h56.37.337,ABstudy,2022.1.4,59.9220055375777,
AB_Prac,Lag1_T1P_T2A,1,P,A,5,6,4,5,11,Webcam,Did you see the Webcam?,0.5,0.016,JPG\,pictureframe04,binder03b,straw,adjustablewrench01b,webcam,cane,hairdryer02a,icepack,kitchenscale01a,lifejacket,piggybank,blankImage,blankImage,blankImage,blankImage,blankImage,blankImage,webcam,,,,,,,,0,0,0,6,,,,,,,,,,,,,,,66.90826750011183,67.9225482000038,67.90588010009378,68.54703560005873,68.54703560005873,None,left,1.3474917998537421,73.99710170016624,None,73.99710170016624,None,75.36596590001136,None,right,1.7075139998923987,75.36596590001136,None,,,,,,,,,,,,,,,,,,,,,,,,,,,,,,,,,,,,,,,,,,,,,,,PPT53,001,2022-07-13_14h56.37.337,ABstudy,2022.1.4,59.9220055375777,
AB_Prac,Lag1_T1P_T2P,1,P,P,6,7,5,5,12,triangle,Did you see the triangle?,0.5,0.016,JPG\,ginger,mousetrap,plum01,slipper01b,dropper01,triangle,stapler04b,pants,raspberry01,rope03,scale01a,vase01,blankImage,blankImage,blankImage,blankImage,blankImage,triangle,,,,,,,,0,1,1,1,,,,,,,,,,,,,,,77.15653470018879,78.16611570003442,78.1327595000621,78.7302054001484,78.7302054001484,None,left,0.819632199825719,84.69304840010591,None,84.69304840010591,None,85.53999180020764,None,left,1.3013480997178704,85.53999180020764,None,,,,,,,,,,,,,,,,,,,,,,,,,,,,,,,,,,,,,,,,,,,,,,,PPT53,001,2022-07-13_14h56.37.337,ABstudy,2022.1.4,59.9220055375777,
AB_Prac,Lag1_T1P_T2A,1,P,A,8,9,7,5,14,flower,Did you see the flower?,0.5,0.016,JPG\,razor01,axe01,binder03b,bowl01,kettle01,lettuce,lime,plasticflower01b,mitten04,pencilcase01,plunger02,strawbasket01,toothpick02,wallet02a,blankImage,blankImage,blankImage,plasticflower01b,,,,,,,,0,2,2,5,,,,,,,,,,,,,,,86.85906520020217,87.85925360000692,87.84252130007371,88.43635160010308,88.43635160010308,None,left,1.0580219000112265,95.47908290009946,None,95.47908290009946,None,96.56757300021127,None,right,1.0031920997425914,96.56757300021127,None,,,,,,,,,,,,,,,,,,,,,,,,,,,,,,,,,,,,,,,,,,,,,,,PPT53,001,2022-07-13_14h56.37.337,ABstudy,2022.1.4,59.9220055375777,
AB_Prac,Lag5_T1P_T2A,5,P,A,6,11,5,5,16,Wheat,Did you see the Wheat?,0.5,0.016,JPG\,bottleopener01,dentalfloss03b,cooler01,icecreamcone01a,paperclip01b,wheat,pencilsharpener02a,plasticbasket01a,toycar04,apricot,hairclip02,rock01a,honeydewmelon,antenna,blackberry,cardboardbox,blankImage,wheat,,,,,,,,0,3,3,7,,,,,,,,,,,,,,,97.60444820020348,98.61959460005164,98.58623890019953,99.16902470006607,99.16902470006607,None,left,1.3210893999785185,107.19182160007767,None,107.19182160007767,None,108.5296014000196,None,right,0.8152935998514295,108.5296014000196,None,,,,,,,,,,,,,,,,,,,,,,,,,,,,,,,,,,,,,,,,,,,,,,,PPT53,001,2022-07-13_14h56.37.337,ABstudy,2022.1.4,59.9220055375777,
AB_Prac,Lag5_T1A_T2P,5,A,P,6,11,5,3,14,dog,Did you see the dog?,0.5,0.016,JPG\,bucket01a,doorlock,cookiecutter,fireextinguisher01,gluestick,highlighter02b,sportbag,spraybottle01,suitcase,thread02,stapler05,walnut01c,icecubetray01a,vikingmask01b,blankImage,blankImage,blankImage,None,,,,,,,,0,4,4,9,,,,,,,,,,,,,,,109.36762070003897,110.38155840011314,110.36482430016622,111.04782750015147,110.95513540017419,None,right,1.1712967997882515,117.95755170006305,None,117.95755170006305,None,119.15697680017911,None,right,1.083572099916637,119.15697680017911,None,,,,,,,,,,,,,,,,,,,,,,,,,,,,,,,,,,,,,,,,,,,,,,,PPT53,001,2022-07-13_14h56.37.337,ABstudy,2022.1.4,59.9220055375777,
AB_Prac,Lag5_T1P_T2P,5,P,P,5,10,4,5,15,washing machine,Did you see the washing machine?,0.5,0.016,JPG\,waterbottle03,wheel01,flashlight02b,zucchini01,washingmachine,headphones02b,nutcracker01,paintroller01,paperclip03,stapler06,ribbon04,electricrazor,bottleofredwine01,pitabread,pot02a,blankImage,blankImage,washingmachine,,,,,,,,0,5,5,4,,,,,,,,,,,,,,,120.26360530010425,121.27567050000653,121.25897220009938,121.85300450003706,121.85300450003706,None,right,1.27219929988496,129.39324390003458,None,129.39324390003458,None,130.68493960006163,None,left,1.0602464000694454,130.68493960006163,None,,,,,,,,,,,,,,,,,,,,,,,,,,,,,,,,,,,,,,,,,,,,,,,PPT53,001,2022-07-13_14h56.37.337,ABstudy,2022.1.4,59.9220055375777,
AB_Prac,Lag5_T1A_T2A,5,A,A,6,11,5,5,16,castle,Did you see the castle?,0.5,0.016,JPG\,tape02a,englishmuffin,flask,ladle02a,monitor,peach01,keychain,squeegee01b,telephone01b,whisk,walkman,syringe02,baguette01,coaster,box01a,coffeepot03a,blankImage,None,,,,,,,,0,6,6,11,,,,,,,,,,,,,,,131.7716034001205,132.7869423001539,132.75359680014662,133.37323430017568,133.37323430017568,None,right,0.993906700052321,141.41515000001527,None,141.41515000001527,None,142.43015990010463,None,right,0.6431536998134106,142.43015990010463,None,,,,,,,,,,,,,,,,,,,,,,,,,,,,,,,,,,,,,,,,,,,,,,,PPT53,001,2022-07-13_14h56.37.337,ABstudy,2022.1.4,59.9220055375777,
AB_Prac,Lag5_T1P_T2P,5,P,P,5,10,4,5,15,Vulture,Did you see the Vulture?,0.5,0.016,JPG\,shorts01,toast,ramekin01,bib,vulture,cracker02,date,glasses01a,hat03b,stapler01,measuringtape01,nail,pill,drum01,starfish01,blankImage,blankImage,vulture,,,,,,,,0,7,7,3,,,,,,,,,,,,,,,143.20484410016797,144.21561610000208,144.19889090000652,144.9127397001721,144.9127397001721,None,left,0.9087098001036793,152.19574340013787,None,152.19574340013787,None,153.12403570022434,None,left,0.6769058997742832,153.12403570022434,None,,,,,,,,,,,,,,,,,,,,,,,,,,,,,,,,,,,,,,,,,,,,,,,PPT53,001,2022-07-13_14h56.37.337,ABstudy,2022.1.4,59.9220055375777,
AB_Prac,Lag1_T1A_T2A,1,A,A,8,9,7,3,12,Moose,Did you see the Moose?,0.5,0.016,JPG\,clothespin03b,corkscrew03a,drillbit03a,fusilli03a,needlenosepliers01,perfume01a,pistachio,scrubbingbrush05b,spatula03,toothpastetube,hinge,toydinosaur,blankImage,blankImage,blankImage,blankImage,blankImage,None,,,,,,,,0,8,8,10,,,,,,,,,,,,,,,153.8293646001257,154.84256710018963,154.82595570012927,155.41541630006395,155.41541630006395,None,right,1.5539192999713123,161.4227428000886,None,161.4227428000886,None,163.00044620013796,None,right,0.9363144999369979,163.00044620013796,None,,,,,,,,,,,,,,,,,,,,,,,,,,,,,,,,,,,,,,,,,,,,,,,PPT53,001,2022-07-13_14h56.37.337,ABstudy,2022.1.4,59.9220055375777,
AB_Prac,Lag5_T1P_T2A,5,P,A,6,11,5,5,16,bread,Did you see the bread?,0.5,0.016,JPG\,cleaver01,clipboard,dustpan,hikingshoe01,notebook03a,baguette01,playingcard,pliers02b,styrofoamcup,rollingpin01a,swimgoggles,wineglass01,fryingpan02a,safetypin,syringe01,thimble,blankImage,baguette01,,,,,,,,0,9,9,8,,,,,,,,,,,,,,,163.97180830012076,164.98589060013182,164.96930870017968,165.55536040011793,165.55536040011793,None,left,0.9296275998931378,173.54438960016705,None,173.54438960016705,None,174.4953321001958,None,right,0.6568225999362767,174.4953321001958,None,,,,,,,,,,,,,,,,,,,,,,,,,,,,,,,,,,,,,,,,,,,,,,,PPT53,001,2022-07-13_14h56.37.337,ABstudy,2022.1.4,59.9220055375777,
AB_Prac,Lag1_T1P_T2P,1,P,P,8,9,7,5,14,Tennis racket,Did you see the Tennis racket?,0.5,0.016,JPG\,coconut,computermouse06,croissant01,deodorant02a,pillow01a,peanut01,boot02b,tennisracket,stapler03b,crayon,eggplant,marker01a,plant01,radish01,blankImage,blankImage,blankImage,tennisracket,,,,,,,,0,10,10,0,,,,,,,,,,,,,,,175.18989450018853,176.19706450006925,176.18039560015313,176.80320100020617,176.80320100020617,None,left,0.9125908999703825,183.77646350022405,None,183.77646350022405,None,184.7055524000898,None,left,1.871777500025928,184.7055524000898,None,,,,,,,,,,,,,,,,,,,,,,,,,,,,,,,,,,,,,,,,,,,,,,,PPT53,001,2022-07-13_14h56.37.337,ABstudy,2022.1.4,59.9220055375777,
AB_Prac,Lag5_T1P_T2P,5,P,P,7,12,6,3,15,vacuum,Did you see the vacuum?,0.5,0.016,JPG\,fork07b,lightbulb01,manshoe,saw02b,shoelace,soap03a,vacuumcleaner01,floortile01,necklace,doll,cabbage,stapler03a,hanger02a,laptop01a,nailpolish03b,blankImage,blankImage,vacuumcleaner01,,,,,,,,0,11,11,2,,,,,,,,,,,,,,,186.6141338001471,187.62514210003428,187.6084175000433,188.20222420012578,188.20222420012578,None,left,0.7184873998630792,195.70614320016466,None,195.70614320016466,None,196.450563600054,None,left,0.5740093998610973,196.450563600054,None,,,,,,,,,,,,,,,,,,,,,,,,,,,,,,,,,,,,,,,,,,,,,,,PPT53,001,2022-07-13_14h56.37.337,ABstudy,2022.1.4,59.9220055375777,
,,,,,,,,,,,,,,,,,,,,,,,,,,,,,,,,,,,,,,,,,,,,,,,,,,,,,,,,,,,,,,,,,,,,,,,,,,,,197.05118010006845,None,space,38.06926440005191,197.05118010006845,None,,,,,,,,,,,,,,,,,,,,,,,,,,,,,,,,,,,,,,,,,PPT53,001,2022-07-13_14h56.37.337,ABstudy,2022.1.4,59.9220055375777,
AB,Lag1_T1P_T2P,1,P,P,5,6,4,4,10,skateboard,Did you see the skateboard?,0.12,0.016,JPG\,binoculars01b,cymbal,pizza,candy,skateboard,stapler05,grape01,thermometer02b,speaker04,lemon02,blankImage,blankImage,blankImage,blankImage,blankImage,blankImage,blankImage,skateboard,,,,,,,,,,,,0,0,0,25,,,,,,,,,,,,,,,,,,,,,,,,,,,,,,,,,,,235.8771772000473,236.8908139001578,236.85739430016838,237.49598410003819,237.49598410003819,None,238.69623890006915,None,left,0.9204956998582929,238.69623890006915,None,239.64654320012778,None,right,1.3296291998121887,239.64654320012778,None,,,,,,,,,,,,,,,,,,,,,,,PPT53,001,2022-07-13_14h56.37.337,ABstudy,2022.1.4,59.9220055375777,
AB,Lag5_T1P_T2P,5,P,P,6,11,5,4,15,Bumper car,Did you see the Bumper car?,0.12,0.016,JPG\,eraser,measuringcup01,chain01,birthdaycandle,ring01,bumpercar,weight04a,pig,cauliflower01,celery,stapler01,sunglasses04,greenolive,candy,strawberry,blankImage,blankImage,bumpercar,,,,,,,,,,,,0,1,1,104,,,,,,,,,,,,,,,,,,,,,,,,,,,,,,,,,,,241.019357400015,242.02906550001353,242.01237070001662,242.597038900014,242.597038900014,None,244.44560920004733,None,right,0.9947722000069916,244.44560920004733,None,245.46585170016624,None,left,1.29522499977611,245.46585170016624,None,,,,,,,,,,,,,,,,,,,,,,,PPT53,001,2022-07-13_14h56.37.337,ABstudy,2022.1.4,59.9220055375777,
AB,Lag5_T1P_T2A,5,P,A,5,10,4,3,13,cork,Did you see the cork?,0.12,0.016,JPG\,clock01a,grape01,plate01b,key01,cork02,feather03a,pineapple01a,iron01b,toothbrush03b,comb02a,broom01,toaster01,pizza,blankImage,blankImage,blankImage,blankImage,cork02,,,,,,,,,,,,0,2,2,209,,,,,,,,,,,,,,,,,,,,,,,,,,,,,,,,,,,246.7863387002144,247.80181990005076,247.76845070021227,248.3814796002116,248.3814796002116,None,250.03444500011392,None,left,0.9653882998973131,250.03444500011392,None,251.02159330016002,None,right,0.6505922998767346,251.02159330016002,None,,,,,,,,,,,,,,,,,,,,,,,PPT53,001,2022-07-13_14h56.37.337,ABstudy,2022.1.4,59.9220055375777,
AB,Lag5_T1P_T2P,5,P,P,8,13,7,5,18,spice rack,Did you see the spice rack?,0.12,0.016,JPG\,lamp04a,broccoli01a,alligator,garlic01a,dandelion,brownsugar,avocado01,spicerack,leaf02a,cellphone,medal02b,cd,stapler05,sunglasses04,strawberry,eraser,blankImage,spicerack,,,,,,,,,,,,0,3,3,140,,,,,,,,,,,,,,,,,,,,,,,,,,,,,,,,,,,251.6908575000707,252.68970730016008,252.67327600019053,253.23962130001746,253.23962130001746,None,255.24553710012697,None,right,1.1788115999661386,255.24553710012697,None,256.4436151001137,None,left,0.7088163997977972,256.4436151001137,None,,,,,,,,,,,,,,,,,,,,,,,PPT53,001,2022-07-13_14h56.37.337,ABstudy,2022.1.4,59.9220055375777,
AB,Lag1_T1A_T2P,1,A,P,7,8,6,5,13,Ant,Did you see the Ant?,0.12,0.016,JPG\,rice,watermelon01,tableknife02,scarf,computerkeyboard02,cauliflower01,battery02b,stapler03b,book01b,sandal,sponge01,microscope,tomato01,blankImage,blankImage,blankImage,blankImage,sandcastle,,,,,,,,,,,,0,4,4,242,,,,,,,,,,,,,,,,,,,,,,,,,,,,,,,,,,,257.1947038001381,258.1957941001747,258.1790866001975,258.8363654999994,258.8363654999994,None,260.39348530001007,None,right,1.4393058000132442,260.39348530001007,None,261.86552150011994,None,left,0.5590766998939216,261.86552150011994,None,,,,,,,,,,,,,,,,,,,,,,,PPT53,001,2022-07-13_14h56.37.337,ABstudy,2022.1.4,59.9220055375777,
AB,Lag1_T1P_T2P,1,P,P,8,9,7,4,13,ladder,Did you see the ladder?,0.12,0.016,JPG\,cigarette,fork03c,greenolive,broccoli01a,avocado01,tennisball01b,balloon01b,ladder,stapler03b,fan,clock01a,strawberry,envelope03a,blankImage,blankImage,blankImage,blankImage,ladder,,,,,,,,,,,,0,5,5,45,,,,,,,,,,,,,,,,,,,,,,,,,,,,,,,,,,,262.4643369000405,263.4670613000635,263.43371760006994,264.0113516000565,264.0113516000565,None,265.70225150021724,None,left,1.1701986999250948,265.70225150021724,None,266.90402920008637,None,left,0.5765625999774784,266.90402920008637,None,,,,,,,,,,,,,,,,,,,,,,,PPT53,001,2022-07-13_14h56.37.337,ABstudy,2022.1.4,59.9220055375777,
AB,Lag5_T1P_T2P,5,P,P,8,13,7,4,17,Accordion,Did you see the Accordion?,0.12,0.016,JPG\,toiletpaper01a,lipstick02a,potato02b,speaker04,globe,strawberry,carrot01,accordion01,sock01a,candle08b,pen04b,calculator01,stapler01,brick,pear01,fork03c,blankImage,accordion01,,,,,,,,,,,,0,6,6,162,,,,,,,,,,,,,,,,,,,,,,,,,,,,,,,,,,,267.51021750015207,268.5222614000086,268.5056157000363,269.1041071000509,269.1041071000509,None,271.00753790000454,None,left,1.0495088999159634,271.00753790000454,None,272.07582170004025,None,right,0.6039200997911394,272.07582170004025,None,,,,,,,,,,,,,,,,,,,,,,,PPT53,001,2022-07-13_14h56.37.337,ABstudy,2022.1.4,59.9220055375777,
AB,Lag5_T1A_T2P,5,A,P,8,13,7,4,17,wrench,Did you see the wrench?,0.12,0.016,JPG\,clock01a,grape01,plate01b,key01,screwdriver04b,feather03a,pineapple01a,iron01b,toothbrush03b,comb02a,broom01,toaster01,stapler05,garlic01a,match,ashtray01,blankImage,seal,,,,,,,,,,,,0,7,7,272,,,,,,,,,,,,,,,,,,,,,,,,,,,,,,,,,,,272.7132353000343,273.7274559000507,273.71075730002485,274.2994080001954,274.2994080001954,None,276.2526148001198,None,right,1.6832484998740256,276.2526148001198,None,277.96487390017137,None,right,0.4119494999758899,277.96487390017137,None,,,,,,,,,,,,,,,,,,,,,,,PPT53,001,2022-07-13_14h56.37.337,ABstudy,2022.1.4,59.9220055375777,
AB,Lag1_T1A_T2A,1,A,A,5,6,4,4,10,rose,Did you see the rose?,0.12,0.016,JPG\,sock01a,spoon01,alligator,comb02a,printer02,medal02b,lamp04a,cymbal,greenolive,computerkeyboard02,blankImage,blankImage,blankImage,blankImage,blankImage,blankImage,blankImage,cruiseship,,,,,,,,,,,,0,8,8,293,,,,,,,,,,,,,,,,,,,,,,,,,,,,,,,,,,,278.41379650007,279.41630950011313,279.38292700005695,279.96871190005913,279.96871190005913,None,281.1836965000257,None,right,2.329044400015846,281.1836965000257,None,283.53727460000664,None,right,1.2631977999117225,283.53727460000664,None,,,,,,,,,,,,,,,,,,,,,,,PPT53,001,2022-07-13_14h56.37.337,ABstudy,2022.1.4,59.9220055375777,
AB,Lag1_T1P_T2P,1,P,P,5,6,4,5,11,Light switch,Did you see the Light switch?,0.12,0.016,JPG\,iron01b,orange,birthdaycandle,potato02b,lightswitch01,stapler03b,key01,candle08b,celery,tableknife02,pen04b,blankImage,blankImage,blankImage,blankImage,blankImage,blankImage,lightswitch01,,,,,,,,,,,,0,9,9,18,,,,,,,,,,,,,,,,,,,,,,,,,,,,,,,,,,,284.82414310006425,285.8233368000947,285.80653130006976,286.43445600010455,286.43445600010455,None,287.79249490005895,None,left,1.5282048999797553,287.79249490005895,None,289.3430034001358,None,left,0.46546370000578463,289.3430034001358,None,,,,,,,,,,,,,,,,,,,,,,,PPT53,001,2022-07-13_14h56.37.337,ABstudy,2022.1.4,59.9220055375777,
AB,Lag5_T1P_T2P,5,P,P,6,11,5,3,14,Poker chips,Did you see the Poker chips?,0.12,0.016,JPG\,iron01b,brick,broccoli01a,balloon01b,tomato01,pokerchips,sandal,teabag,scissors01,pineapple01a,stapler04b,measuringcup01,sock01a,book01b,blankImage,blankImage,blankImage,pokerchips,,,,,,,,,,,,0,10,10,154,,,,,,,,,,,,,,,,,,,,,,,,,,,,,,,,,,,289.83738910011016,290.84444250003435,290.8290265002288,291.3987708000932,291.3987708000932,None,293.13793470012024,None,left,0.7181530997622758,293.13793470012024,None,293.88090350013226,None,left,0.39916149992495775,293.88090350013226,None,,,,,,,,,,,,,,,,,,,,,,,PPT53,001,2022-07-13_14h56.37.337,ABstudy,2022.1.4,59.9220055375777,
AB,Lag5_T1P_T2A,5,P,A,8,13,7,3,16,leaf blower,Did you see the leaf blower?,0.12,0.016,JPG\,printer02,leaf02a,cauliflower01,sock01a,brownsugar,paintbrush01,pig,leafblower01,belt02a,shirt02,key01,match,cigarette,scissors01,envelope03a,blueberry01,blankImage,leafblower01,,,,,,,,,,,,0,11,11,216,,,,,,,,,,,,,,,,,,,,,,,,,,,,,,,,,,,294.29807180003263,295.2992912000045,295.282429800136,295.8743159000296,295.8743159000296,None,297.79291130020283,None,right,1.8390555998776108,297.79291130020283,None,299.65334440022707,None,right,0.7069015998858958,299.65334440022707,None,,,,,,,,,,,,,,,,,,,,,,,PPT53,001,2022-07-13_14h56.37.337,ABstudy,2022.1.4,59.9220055375777,
AB,Lag1_T1A_T2P,1,A,P,8,9,7,4,13,Fireplace,Did you see the Fireplace?,0.12,0.016,JPG\,scissors01,ashtray01,garlic01a,medal02b,cigarette,candle08b,leaf02a,envelope03a,stapler06,rice,toiletpaper01a,greenolive,cymbal,blankImage,blankImage,blankImage,blankImage,dartboard,,,,,,,,,,,,0,12,12,252,,,,,,,,,,,,,,,,,,,,,,,,,,,,,,,,,,,300.39749900018796,301.40501730004326,301.3882735001389,301.95554500003345,301.95554500003345,None,303.4936864001211,None,right,1.4346276998985559,303.4936864001211,None,304.95861950004473,None,left,0.2816752998623997,304.95861950004473,None,,,,,,,,,,,,,,,,,,,,,,,PPT53,001,2022-07-13_14h56.37.337,ABstudy,2022.1.4,59.9220055375777,
AB,Lag5_T1P_T2A,5,P,A,7,12,6,3,15,helmet,Did you see the helmet?,0.12,0.016,JPG\,fork03c,belt02a,grape01,computerkeyboard02,lemon02,printer02,skihelmet01,toiletpaper01a,toaster01,lipstick02a,book01b,blueberry01,spoon01,apple07,avocado01,blankImage,blankImage,skihelmet01,,,,,,,,,,,,0,13,13,225,,,,,,,,,,,,,,,,,,,,,,,,,,,,,,,,,,,305.2624359000474,306.27658070018515,306.2599204001017,306.83889670018107,306.83889670018107,None,308.69042460015044,None,left,2.0533044000621885,308.69042460015044,None,310.76419310015626,None,right,1.1478200999554247,310.76419310015626,None,,,,,,,,,,,,,,,,,,,,,,,PPT53,001,2022-07-13_14h56.37.337,ABstudy,2022.1.4,59.9220055375777,
AB,Lag1_T1P_T2P,1,P,P,7,8,6,4,12,Dog House,Did you see the Dog House?,0.12,0.016,JPG\,pineapple01a,leaf02a,grape01,toiletpaper01a,match,tennisball01b,doghouse,stapler03b,pig,measuringcup01,ring01,lemon02,blankImage,blankImage,blankImage,blankImage,blankImage,doghouse,,,,,,,,,,,,0,14,14,44,,,,,,,,,,,,,,,,,,,,,,,,,,,,,,,,,,,311.93815780011937,312.9496842001099,312.9329783001449,313.5223543001339,313.5223543001339,None,315.0664092001971,None,left,0.8538399999961257,315.0664092001971,None,315.9374182000756,None,right,1.3747391998767853,315.9374182000756,None,,,,,,,,,,,,,,,,,,,,,,,PPT53,001,2022-07-13_14h56.37.337,ABstudy,2022.1.4,59.9220055375777,
AB,Lag1_T1P_T2P,1,P,P,6,7,5,5,12,snowman,Did you see the snowman?,0.12,0.016,JPG\,comb02a,watch02a,scissors01,dice05a,tableknife02,snowman,stapler03a,printer02,dandelion,spoon01,ashtray01,battery02b,blankImage,blankImage,blankImage,blankImage,blankImage,snowman,,,,,,,,,,,,0,15,15,4,,,,,,,,,,,,,,,,,,,,,,,,,,,,,,,,,,,317.33915390004404,318.3386166000273,318.32196610001847,318.904521800112,318.904521800112,None,320.3627225002274,None,left,0.9970639999955893,320.3627225002274,None,321.39159960020334,None,right,1.9843695999588817,321.39159960020334,None,,,,,,,,,,,,,,,,,,,,,,,PPT53,001,2022-07-13_14h56.37.337,ABstudy,2022.1.4,59.9220055375777,
AB,Lag1_T1A_T2A,1,A,A,6,7,5,5,12,Safe,Did you see the Safe?,0.12,0.016,JPG\,hammer01,sponge01,toaster01,cherry01,feather03a,mushroom01,measuringcup01,pencil01,tennisball01b,brick,clock04,medal02b,blankImage,blankImage,blankImage,blankImage,blankImage,downhillski,,,,,,,,,,,,0,16,16,294,,,,,,,,,,,,,,,,,,,,,,,,,,,,,,,,,,,323.40252430015244,324.41130730020814,324.3946179000195,324.97635180014186,324.97635180014186,None,326.5112885001581,None,right,1.5929707000032067,326.5112885001581,None,328.131288100034,None,right,0.5887719998136163,328.131288100034,None,,,,,,,,,,,,,,,,,,,,,,,PPT53,001,2022-07-13_14h56.37.337,ABstudy,2022.1.4,59.9220055375777,
AB,Lag5_T1P_T2P,5,P,P,7,12,6,4,16,Fireplace,Did you see the Fireplace?,0.12,0.016,JPG\,printer02,leaf02a,cauliflower01,sock01a,brownsugar,paintbrush01,fireplace,orange,belt02a,shirt02,key01,stapler01,cigarette,scissors01,envelope03a,blueberry01,blankImage,fireplace,,,,,,,,,,,,0,17,17,88,,,,,,,,,,,,,,,,,,,,,,,,,,,,,,,,,,,328.7635964001529,329.7662266001571,329.73286060011014,330.3178792002145,330.3178792002145,None,332.2853726001922,None,left,0.5781914999242872,332.2853726001922,None,332.88813420012593,None,left,0.5522731998935342,332.88813420012593,None,,,,,,,,,,,,,,,,,,,,,,,PPT53,001,2022-07-13_14h56.37.337,ABstudy,2022.1.4,59.9220055375777,
AB,Lag5_T1P_T2P,5,P,P,8,13,7,5,18,Kiwi,Did you see the Kiwi?,0.12,0.016,JPG\,violin,pizza,toothbrush03b,pineapple01a,banana01,ashtray01,candy,kiwi03,clock04,sock01a,microscope,speaker04,stapler04b,sunglasses04,lipstick02a,blueberry01,blankImage,kiwi03,,,,,,,,,,,,0,18,18,111,,,,,,,,,,,,,,,,,,,,,,,,,,,,,,,,,,,333.4854314001277,334.4877987001091,334.47111260006204,335.0532159002032,335.0532159002032,None,336.96564290020615,None,left,2.2178694996982813,336.96564290020615,None,339.208665400045,None,left,2.0470119998790324,339.208665400045,None,,,,,,,,,,,,,,,,,,,,,,,PPT53,001,2022-07-13_14h56.37.337,ABstudy,2022.1.4,59.9220055375777,
AB,Lag1_T1P_T2P,1,P,P,5,6,4,3,9,dolphin,Did you see the dolphin?,0.12,0.016,JPG\,pig,belt02a,rice,screwdriver04b,dolphin01,stapler05,candle08b,pear01,feather03a,blankImage,blankImage,blankImage,blankImage,blankImage,blankImage,blankImage,blankImage,dolphin01,,,,,,,,,,,,0,19,19,10,,,,,,,,,,,,,,,,,,,,,,,,,,,,,,,,,,,341.277443200117,342.2788247000426,342.26212690002285,342.7626150001306,342.7626150001306,None,343.940666400129,None,left,0.8436888998840004,343.940666400129,None,344.8147771002259,None,left,0.38643399998545647,344.8147771002259,None,,,,,,,,,,,,,,,,,,,,,,,PPT53,001,2022-07-13_14h56.37.337,ABstudy,2022.1.4,59.9220055375777,
AB,Lag5_T1A_T2P,5,A,P,7,12,6,4,16,hand,Did you see the hand?,0.12,0.016,JPG\,celery,tennisball01b,calculator01,pear01,screw02,orange,button01,cellphone,onion,apple07,iron01b,stapler05,banana01,paintbrush01,dandelion,toothbrush03b,blankImage,bull,,,,,,,,,,,,0,20,20,281,,,,,,,,,,,,,,,,,,,,,,,,,,,,,,,,,,,345.2347426000051,346.24952380009927,346.21617660019547,346.79808940016665,346.79808940016665,None,348.76282760011964,None,right,1.4611269999295473,348.76282760011964,None,350.25342980003916,None,left,0.31479209987446666,350.25342980003916,None,,,,,,,,,,,,,,,,,,,,,,,PPT53,001,2022-07-13_14h56.37.337,ABstudy,2022.1.4,59.9220055375777,
AB,Lag5_T1P_T2P,5,P,P,7,12,6,5,17,flower,Did you see the flower?,0.12,0.016,JPG\,leaf02a,pear01,measuringcup01,cigarette,fan,lemon02,lily,tableknife02,ring01,pencil01,cellphone,stapler01,carrot01,binoculars01b,sock01a,book01b,blankImage,lily,,,,,,,,,,,,0,21,21,134,,,,,,,,,,,,,,,,,,,,,,,,,,,,,,,,,,,350.6022914000787,351.60476880008355,351.5714449000079,352.14745240006596,352.14745240006596,None,354.14372440008447,None,left,0.9281146998982877,354.14372440008447,None,355.09184960019775,None,left,2.251882799901068,355.09184960019775,None,,,,,,,,,,,,,,,,,,,,,,,PPT53,001,2022-07-13_14h56.37.337,ABstudy,2022.1.4,59.9220055375777,
AB,Lag1_T1P_T2P,1,P,P,8,9,7,4,13,crab,Did you see the crab?,0.12,0.016,JPG\,candle01,fork03c,plate01b,violin,computerkeyboard02,candy,calculator01,crab01,stapler04b,sock01a,teabag,banana01,cd,blankImage,blankImage,blankImage,blankImage,crab01,,,,,,,,,,,,0,22,22,37,,,,,,,,,,,,,,,,,,,,,,,,,,,,,,,,,,,357.3638908001594,358.3787410000805,358.34499280015007,358.9482592002023,358.9482592002023,None,360.54387830011547,None,right,2.048812899971381,360.54387830011547,None,362.61600300017744,None,left,0.7442133000586182,362.61600300017744,None,,,,,,,,,,,,,,,,,,,,,,,PPT53,001,2022-07-13_14h56.37.337,ABstudy,2022.1.4,59.9220055375777,
AB,Lag1_T1P_T2A,1,P,A,5,6,4,5,11,Moon,Did you see the Moon?,0.12,0.016,JPG\,lamp04a,broccoli01a,alligator,garlic01a,moon,brownsugar,avocado01,ring01,leaf02a,cellphone,medal02b,blankImage,blankImage,blankImage,blankImage,blankImage,blankImage,moon,,,,,,,,,,,,0,23,23,190,,,,,,,,,,,,,,,,,,,,,,,,,,,,,,,,,,,363.3885780000128,364.4011466000229,364.3845007000491,364.95609510014765,364.95609510014765,None,366.33685950003564,None,right,2.127628699876368,366.33685950003564,None,368.4884863002226,None,right,0.5037817996926606,368.4884863002226,None,,,,,,,,,,,,,,,,,,,,,,,PPT53,001,2022-07-13_14h56.37.337,ABstudy,2022.1.4,59.9220055375777,
AB,Lag5_T1P_T2A,5,P,A,8,13,7,3,16,Shelves,Did you see the Shelves?,0.12,0.016,JPG\,pineapple01a,leaf02a,grape01,toiletpaper01a,match,tennisball01b,spoon01,shelves,pig,measuringcup01,ring01,lemon02,dice05a,pizza,potato02b,eraser,blankImage,shelves,,,,,,,,,,,,0,24,24,222,,,,,,,,,,,,,,,,,,,,,,,,,,,,,,,,,,,369.07277960004285,370.07318920013495,370.0570021001622,370.6259662001394,370.6259662001394,None,372.52820930001326,None,left,0.6397579999174923,372.52820930001326,None,373.19434610009193,None,left,0.4939108998514712,373.19434610009193,None,,,,,,,,,,,,,,,,,,,,,,,PPT53,001,2022-07-13_14h56.37.337,ABstudy,2022.1.4,59.9220055375777,
AB,Lag1_T1P_T2P,1,P,P,5,6,4,4,10,Ladybug,Did you see the Ladybug?,0.12,0.016,JPG\,key01,apple07,ring01,leaf02a,ladybug03,stapler04b,violin,sponge01,baseball01a,thermometer02b,blankImage,blankImage,blankImage,blankImage,blankImage,blankImage,blankImage,ladybug03,,,,,,,,,,,,0,25,25,65,,,,,,,,,,,,,,,,,,,,,,,,,,,,,,,,,,,373.7127559001092,374.7279958000872,374.69474040018395,375.2645894000307,375.2645894000307,None,376.54578930023126,None,left,0.9504344000015408,376.54578930023126,None,377.5139136000071,None,left,0.35815460002049804,377.5139136000071,None,,,,,,,,,,,,,,,,,,,,,,,PPT53,001,2022-07-13_14h56.37.337,ABstudy,2022.1.4,59.9220055375777,
AB,Lag5_T1P_T2P,5,P,P,7,12,6,5,17,Badminton Racket,Did you see the Badminton Racket?,0.12,0.016,JPG\,paintbrush01,dice05a,watermelon01,broccoli01a,hammer01,leaf02a,badmintonracket,tennisball01b,lemon02,fan,lipstick02a,stapler04b,envelope03a,sponge01,foosballtable,orange,blankImage,badmintonracket,,,,,,,,,,,,0,26,26,163,,,,,,,,,,,,,,,,,,,,,,,,,,,,,,,,,,,377.9044561001938,378.9153316000011,378.898638300132,379.47722970019095,379.47722970019095,None,381.46266880002804,None,left,1.065868099918589,381.46266880002804,None,382.5524997001048,None,left,0.39191189990378916,382.5524997001048,None,,,,,,,,,,,,,,,,,,,,,,,PPT53,001,2022-07-13_14h56.37.337,ABstudy,2022.1.4,59.9220055375777,
AB,Lag1_T1P_T2P,1,P,P,7,8,6,5,13,tiger,Did you see the tiger?,0.12,0.016,JPG\,globe,broccoli01a,binoculars01b,iron01b,avocado01,dandelion,tiger02,stapler03b,fan,pizza,celery,blueberry01,sewingmachine01a,blankImage,blankImage,blankImage,blankImage,tiger02,,,,,,,,,,,,0,27,27,50,,,,,,,,,,,,,,,,,,,,,,,,,,,,,,,,,,,382.97349830018356,383.9872039000038,383.9705627001822,384.57221200014465,384.57221200014465,None,386.16178580000997,None,left,1.0143454999197274,386.16178580000997,None,387.20782360015437,None,left,0.45644019986502826,387.20782360015437,None,,,,,,,,,,,,,,,,,,,,,,,PPT53,001,2022-07-13_14h56.37.337,ABstudy,2022.1.4,59.9220055375777,
AB,Lag1_T1P_T2P,1,P,P,8,9,7,3,12,snow globe,Did you see the Snow globe?,0.12,0.016,JPG\,eraser,measuringcup01,chain01,birthdaycandle,ring01,rice,8ball,stapler04b,stapler01,celery,microscope,sunglasses04,blankImage,blankImage,blankImage,blankImage,blankImage,snowglobe,,,,,,,,,,,,0,28,28,56,,,,,,,,,,,,,,,,,,,,,,,,,,,,,,,,,,,387.7024368001148,388.7082434000913,388.6915624001995,389.2622997001745,389.2622997001745,None,390.7110584001057,None,left,4.5528727998025715,390.7110584001057,None,395.2818652000278,None,left,0.8453583000227809,395.2818652000278,None,,,,,,,,,,,,,,,,,,,,,,,PPT53,001,2022-07-13_14h56.37.337,ABstudy,2022.1.4,59.9220055375777,
AB,Lag1_T1P_T2P,1,P,P,7,8,6,5,13,arrow,Did you see the arrow?,0.12,0.016,JPG\,pencil01,broccoli01a,button01,sponge01,watermelon01,lipstick02a,arrow02,stapler04b,lighter01,sock01a,spoon01,blueberry01,belt02a,blankImage,blankImage,blankImage,blankImage,arrow02,,,,,,,,,,,,0,29,29,76,,,,,,,,,,,,,,,,,,,,,,,,,,,,,,,,,,,396.1501824001316,397.1503511001356,397.1337360001635,397.7061133000534,397.7061133000534,None,399.2869096000213,None,left,0.8020044998265803,399.2869096000213,None,400.11978480010293,None,left,0.6803907998837531,400.11978480010293,None,,,,,,,,,,,,,,,,,,,,,,,PPT53,001,2022-07-13_14h56.37.337,ABstudy,2022.1.4,59.9220055375777,
AB,Lag5_T1P_T2P,5,P,P,7,12,6,5,17,statue,Did you see the statue?,0.12,0.016,JPG\,pear01,clock01a,cymbal,match,ashtray01,globe,statue,button01,lemon02,pen04b,dice05a,stapler06,toothbrush03b,screwdriver04b,feather03a,key01,blankImage,statue,,,,,,,,,,,,0,30,30,100,,,,,,,,,,,,,,,,,,,,,,,,,,,,,,,,,,,400.82297650002874,401.83824970014393,401.8047732000705,402.403317600023,402.403317600023,None,404.3316491001751,None,left,1.2525222999975085,404.3316491001751,None,405.60876430012286,None,right,0.7593684000894427,405.60876430012286,None,,,,,,,,,,,,,,,,,,,,,,,PPT53,001,2022-07-13_14h56.37.337,ABstudy,2022.1.4,59.9220055375777,
AB,Lag1_T1A_T2A,1,A,A,8,9,7,4,13,Recycling bin,Did you see the Recycling bin?,0.12,0.016,JPG\,brick,plate01b,pen04b,toaster01,screwdriver04b,candle01,envelope03a,feather03a,pig,ring01,orange,clock01a,lighter01,blankImage,blankImage,blankImage,blankImage,bumpercar,,,,,,,,,,,,0,31,31,292,,,,,,,,,,,,,,,,,,,,,,,,,,,,,,,,,,,406.3999420001637,407.4105746001005,407.3938523000106,407.97838100022636,407.97838100022636,None,409.59367030020803,None,right,0.9101076999213547,409.59367030020803,None,410.5304069002159,None,right,0.5096097998321056,410.5304069002159,None,,,,,,,,,,,,,,,,,,,,,,,PPT53,001,2022-07-13_14h56.37.337,ABstudy,2022.1.4,59.9220055375777,
AB,Lag5_T1P_T2P,5,P,P,6,11,5,5,16,Car,Did you see the Car?,0.12,0.016,JPG\,leaf02a,apple07,cd,pineapple01a,envelope03a,car,pig,canoftennisballs,rice,feather03a,stapler03a,balloon01b,avocado01,calculator01,watermelon01,teabag,blankImage,car,,,,,,,,,,,,0,32,32,127,,,,,,,,,,,,,,,,,,,,,,,,,,,,,,,,,,,411.0667723000515,412.08202680014074,412.0484786001034,412.6246427001897,412.6246427001897,None,414.62574590020813,None,left,2.8776092999614775,414.62574590020813,None,417.52064680005424,None,right,1.039232000010088,417.52064680005424,None,,,,,,,,,,,,,,,,,,,,,,,PPT53,001,2022-07-13_14h56.37.337,ABstudy,2022.1.4,59.9220055375777,
AB,Lag1_T1P_T2A,1,P,A,6,7,5,4,11,bird,Did you see the bird?,0.12,0.016,JPG\,foosballtable,candy,envelope03a,microscope,pencil01,cedarwaxwing,scissors01,watermelon01,grape01,dandelion,pineapple01a,blankImage,blankImage,blankImage,blankImage,blankImage,blankImage,cedarwaxwing,,,,,,,,,,,,0,33,33,182,,,,,,,,,,,,,,,,,,,,,,,,,,,,,,,,,,,418.5913465002086,419.6060649000574,419.572664400097,420.0731259000022,420.0731259000022,None,421.5391203002073,None,left,1.3165010998491198,421.5391203002073,None,422.87602650001645,None,right,0.7633491999004036,422.87602650001645,None,,,,,,,,,,,,,,,,,,,,,,,PPT53,001,2022-07-13_14h56.37.337,ABstudy,2022.1.4,59.9220055375777,
AB,Lag5_T1A_T2A,5,A,A,6,11,5,5,16,shrimp,Did you see the shrimp?,0.12,0.016,JPG\,speaker04,sewingmachine01a,eraser,violin,globe,belt02a,sunglasses04,cymbal,cd,greenolive,alligator,pear01,watch02a,screwdriver04b,banana01,cigarette,blankImage,rollerblade,,,,,,,,,,,,0,34,34,300,,,,,,,,,,,,,,,,,,,,,,,,,,,,,,,,,,,423.66214740020223,424.6778374002315,424.64434360014275,425.2222934002057,425.2222934002057,None,427.1614411000628,None,right,1.9018347999081016,427.1614411000628,None,429.0821316000074,None,right,1.1338110000360757,429.0821316000074,None,,,,,,,,,,,,,,,,,,,,,,,PPT53,001,2022-07-13_14h56.37.337,ABstudy,2022.1.4,59.9220055375777,
AB,Lag5_T1P_T2P,5,P,P,6,11,5,3,14,ladder,Did you see the ladder?,0.12,0.016,JPG\,celery,orange,scissors01,balloon01b,avocado01,stepladder,mushroom01,sewingmachine01a,lighter01,dice05a,stapler01,fan,cd,sock01a,blankImage,blankImage,blankImage,stepladder,,,,,,,,,,,,0,35,35,119,,,,,,,,,,,,,,,,,,,,,,,,,,,,,,,,,,,430.2373687000945,431.25077250017785,431.2341499000322,431.81079100002535,431.81079100002535,None,433.5346428002231,None,left,0.6410475997254252,433.5346428002231,None,434.2037229000125,None,left,0.484907099744305,434.2037229000125,None,,,,,,,,,,,,,,,,,,,,,,,PPT53,001,2022-07-13_14h56.37.337,ABstudy,2022.1.4,59.9220055375777,
AB,Lag1_T1A_T2P,1,A,P,8,9,7,5,14,clock,Did you see the clock?,0.12,0.016,JPG\,speaker04,sewingmachine01a,eraser,violin,globe,belt02a,sunglasses04,cymbal,stapler01,greenolive,alligator,pear01,watch02a,screwdriver04b,blankImage,blankImage,blankImage,peacock,,,,,,,,,,,,0,36,36,240,,,,,,,,,,,,,,,,,,,,,,,,,,,,,,,,,,,434.73594560008496,435.73853990016505,435.70518650021404,436.2875304000918,436.2875304000918,None,437.9806590001099,None,left,1.882699999725446,437.9806590001099,None,439.8927306002006,None,left,0.5468710998538882,439.8927306002006,None,,,,,,,,,,,,,,,,,,,,,,,PPT53,001,2022-07-13_14h56.37.337,ABstudy,2022.1.4,59.9220055375777,
AB,Lag1_T1P_T2P,1,P,P,8,9,7,5,14,finger print,Did you see the finger print?,0.12,0.016,JPG\,chain01,pen04b,birthdaycandle,watermelon01,broom01,scissors01,measuringcup01,fingerprint,stapler01,calculator01,ashtray01,feather03a,sewingmachine01a,thermometer02b,blankImage,blankImage,blankImage,fingerprint,,,,,,,,,,,,0,37,37,62,,,,,,,,,,,,,,,,,,,,,,,,,,,,,,,,,,,440.46469470020384,441.47767880000174,441.46095500001684,442.0580227000173,442.0580227000173,None,443.7883458000142,None,right,1.363435999955982,443.7883458000142,None,445.18149380013347,None,left,1.2673621999565512,445.18149380013347,None,,,,,,,,,,,,,,,,,,,,,,,PPT53,001,2022-07-13_14h56.37.337,ABstudy,2022.1.4,59.9220055375777,
AB,Lag1_T1P_T2A,1,P,A,5,6,4,4,10,paper airplane,Did you see the paper airplane?,0.12,0.016,JPG\,thermometer02b,avocado01,scissors01,tennisball01b,paperairplane,banana01,strawberry,cigarette,potato02b,pineapple01a,blankImage,blankImage,blankImage,blankImage,blankImage,blankImage,blankImage,paperairplane,,,,,,,,,,,,0,38,38,191,,,,,,,,,,,,,,,,,,,,,,,,,,,,,,,,,,,446.5149612000678,447.51712790015154,447.5005146001931,448.0846445001662,448.0846445001662,None,449.2767671002075,None,left,1.082493199966848,449.2767671002075,None,450.3878955000546,None,right,0.595540399895981,450.3878955000546,None,,,,,,,,,,,,,,,,,,,,,,,PPT53,001,2022-07-13_14h56.37.337,ABstudy,2022.1.4,59.9220055375777,
AB,Lag5_T1A_T2P,5,A,P,8,13,7,5,18,fish,Did you see the fish?,0.12,0.016,JPG\,scissors01,grape01,mushroom01,toiletpaper01a,greenolive,pizza,cigarette,ashtray01,carrot01,pineapple01a,foosballtable,lipstick02a,stapler04b,tambourine02,potato02b,violin,blankImage,chimney,,,,,,,,,,,,0,39,39,283,,,,,,,,,,,,,,,,,,,,,,,,,,,,,,,,,,,451.01116160000674,452.0214586001821,452.00477420003153,452.57699170010164,452.57699170010164,None,454.55891210003756,None,right,1.1209120999556035,454.55891210003756,None,455.70858890004456,None,left,0.2993492998648435,455.70858890004456,None,,,,,,,,,,,,,,,,,,,,,,,PPT53,001,2022-07-13_14h56.37.337,ABstudy,2022.1.4,59.9220055375777,
AB,Lag5_T1P_T2A,5,P,A,7,12,6,3,15,Toy soldier,Did you see the Toy soldier?,0.12,0.016,JPG\,binoculars01b,cymbal,pizza,candy,paintbrush01,sponge01,toysoldier01b,thermometer02b,speaker04,lemon02,lipstick02a,strawberry,candle01,acorn,plate01b,blankImage,blankImage,toysoldier01b,,,,,,,,,,,,0,40,40,203,,,,,,,,,,,,,,,,,,,,,,,,,,,,,,,,,,,456.0909336002078,457.0933156001847,457.0766464001499,457.66605090000667,457.66605090000667,None,459.43936170008965,None,left,0.8084246998187155,459.43936170008965,None,460.2798764000181,None,right,0.3761871000751853,460.2798764000181,None,,,,,,,,,,,,,,,,,,,,,,,PPT53,001,2022-07-13_14h56.37.337,ABstudy,2022.1.4,59.9220055375777,
AB,Lag1_T1P_T2P,1,P,P,5,6,4,5,11,candy cane,Did you see the candy cane?,0.12,0.016,JPG\,shirt02,match,screw02,foosballtable,candycane01a,stapler04b,sewingmachine01a,watch02a,button01,comb02a,dice05a,blankImage,blankImage,blankImage,blankImage,blankImage,blankImage,candycane01a,,,,,,,,,,,,0,41,41,9,,,,,,,,,,,,,,,,,,,,,,,,,,,,,,,,,,,460.6854145000689,461.6980343000032,461.68132900004275,462.2588611000683,462.2588611000683,None,463.6452182000503,None,left,1.1868695998564363,463.6452182000503,None,464.8512213001959,None,left,0.3488386997487396,464.8512213001959,None,,,,,,,,,,,,,,,,,,,,,,,PPT53,001,2022-07-13_14h56.37.337,ABstudy,2022.1.4,59.9220055375777,
AB,Lag5_T1P_T2A,5,P,A,8,13,7,4,17,knife,Did you see the knife?,0.12,0.016,JPG\,lighter01,hammer01,spoon01,chain01,cymbal,sponge01,lipstick02a,knife03,pig,watermelon01,cauliflower01,lemon02,broccoli01a,tableknife02,tennisball01b,toothbrush03b,blankImage,knife03,,,,,,,,,,,,0,42,42,214,,,,,,,,,,,,,,,,,,,,,,,,,,,,,,,,,,,465.2236901000142,466.23573740012944,466.21906040003523,466.8000228002202,466.8000228002202,None,468.7591758000199,None,left,0.9362162998877466,468.7591758000199,None,469.72242490015924,None,right,0.4370800999458879,469.72242490015924,None,,,,,,,,,,,,,,,,,,,,,,,PPT53,001,2022-07-13_14h56.37.337,ABstudy,2022.1.4,59.9220055375777,
AB,Lag1_T1P_T2P,1,P,P,8,9,7,4,13,kite,Did you see the kite?,0.12,0.016,JPG\,scissors01,balloon01b,eraser,feather03a,banana01,candle01,measuringcup01,kite,stapler04b,strawberry,pear01,carrot01,globe,blankImage,blankImage,blankImage,blankImage,kite,,,,,,,,,,,,0,43,43,17,,,,,,,,,,,,,,,,,,,,,,,,,,,,,,,,,,,470.19234740012325,471.2072363002226,471.1738748000935,471.7404758001212,471.7404758001212,None,473.39064970007166,None,left,0.609157599741593,473.39064970007166,None,474.0266572001856,None,left,0.5730054997839034,474.0266572001856,None,,,,,,,,,,,,,,,,,,,,,,,PPT53,001,2022-07-13_14h56.37.337,ABstudy,2022.1.4,59.9220055375777,
AB,Lag1_T1P_T2P,1,P,P,5,6,4,5,11,football,Did you see the football?,0.12,0.016,JPG\,globe,belt02a,sponge01,violin,soccerball,stapler01,clock01a,microscope,balloon01b,scarf,teabag,blankImage,blankImage,blankImage,blankImage,blankImage,blankImage,soccerball,,,,,,,,,,,,0,44,44,26,,,,,,,,,,,,,,,,,,,,,,,,,,,,,,,,,,,474.6297577000223,475.64492930006236,475.61159790004604,476.20731390011497,476.20731390011497,None,477.5212544000242,None,left,1.5179631998762488,477.5212544000242,None,479.06520000007004,None,right,0.9183796998113394,479.06520000007004,None,,,,,,,,,,,,,,,,,,,,,,,PPT53,001,2022-07-13_14h56.37.337,ABstudy,2022.1.4,59.9220055375777,
AB,Lag5_T1P_T2P,5,P,P,8,13,7,5,18,Ping pong Table,Did you see the Ping pong Table?,0.12,0.016,JPG\,shirt02,match,screw02,foosballtable,blueberry01,pineapple01a,sewingmachine01a,pingpongtable,button01,comb02a,dice05a,measuringcup01,stapler04b,printer02,carrot01,watermelon01,blankImage,pingpongtable,,,,,,,,,,,,0,45,45,152,,,,,,,,,,,,,,,,,,,,,,,,,,,,,,,,,,,480.0214903000742,481.03412340022624,481.0176035000477,481.6406706001144,481.6406706001144,None,483.5808225001674,None,right,0.9623164997901767,483.5808225001674,None,484.5707920000423,None,right,0.6770452000200748,484.5707920000423,None,,,,,,,,,,,,,,,,,,,,,,,PPT53,001,2022-07-13_14h56.37.337,ABstudy,2022.1.4,59.9220055375777,
AB,Lag1_T1A_T2P,1,A,P,8,9,7,4,13,nose,Did you see the nose?,0.12,0.016,JPG\,pizza,strawberry,potato02b,speaker04,battery02b,iron01b,dice05a,cellphone,stapler06,banana01,medal02b,baseball01a,toaster01,blankImage,blankImage,blankImage,blankImage,cow,,,,,,,,,,,,0,46,46,231,,,,,,,,,,,,,,,,,,,,,,,,,,,,,,,,,,,485.27456370019354,486.28910870011896,486.25572970020585,486.8544140001759,486.8544140001759,None,488.4447974001523,None,right,1.3547217999584973,488.4447974001523,None,489.82695490005426,None,right,0.7337935997638851,489.82695490005426,None,,,,,,,,,,,,,,,,,,,,,,,PPT53,001,2022-07-13_14h56.37.337,ABstudy,2022.1.4,59.9220055375777,
AB,Lag1_T1P_T2P,1,P,P,7,8,6,3,11,Daddy Long Legs,Did you see the Daddy Long Legs?,0.12,0.016,JPG\,lighter01,hammer01,spoon01,chain01,cymbal,sponge01,daddylonglegs,stapler03b,pig,watermelon01,cauliflower01,blankImage,blankImage,blankImage,blankImage,blankImage,blankImage,daddylonglegs,,,,,,,,,,,,0,47,47,86,,,,,,,,,,,,,,,,,,,,,,,,,,,,,,,,,,,490.5864953000564,491.59421380003914,491.5775294001214,492.1588829001412,492.1588829001412,None,493.5095246001147,None,left,0.7535652997903526,493.5095246001147,None,494.28023340017535,None,right,0.7287804998923093,494.28023340017535,None,,,,,,,,,,,,,,,,,,,,,,,PPT53,001,2022-07-13_14h56.37.337,ABstudy,2022.1.4,59.9220055375777,
AB,Lag5_T1P_T2P,5,P,P,5,10,4,5,15,mouse,Did you see the mouse?,0.12,0.016,JPG\,pineapple01a,leaf02a,grape01,toiletpaper01a,mouse,tennisball01b,spoon01,chain01,pig,stapler03a,ring01,lemon02,dice05a,pizza,potato02b,blankImage,blankImage,mouse,,,,,,,,,,,,0,48,48,94,,,,,,,,,,,,,,,,,,,,,,,,,,,,,,,,,,,495.033260300057,496.0322514001746,496.0156108001247,496.5987494001165,496.5987494001165,None,498.4453803000506,None,left,2.0576259999070317,498.4453803000506,None,500.51972600002773,None,right,1.8153762996662408,500.51972600002773,None,,,,,,,,,,,,,,,,,,,,,,,PPT53,001,2022-07-13_14h56.37.337,ABstudy,2022.1.4,59.9220055375777,
AB,Lag1_T1P_T2P,1,P,P,7,8,6,4,12,trophy,Did you see the trophy?,0.12,0.016,JPG\,cherry01,cymbal,envelope03a,foosballtable,shirt02,cellphone,trophy01,stapler04b,battery02b,apple07,pencil01,screwdriver04b,blankImage,blankImage,blankImage,blankImage,blankImage,trophy01,,,,,,,,,,,,0,49,49,74,,,,,,,,,,,,,,,,,,,,,,,,,,,,,,,,,,,502.3576745002065,503.3727343000937,503.33940490009263,503.91147800022736,503.91147800022736,None,505.3809784001205,None,left,0.6666096998378634,505.3809784001205,None,506.0754141001962,None,left,0.42020669975318015,506.0754141001962,None,,,,,,,,,,,,,,,,,,,,,,,PPT53,001,2022-07-13_14h56.37.337,ABstudy,2022.1.4,59.9220055375777,
AB,Lag1_T1P_T2A,1,P,A,5,6,4,5,11,Toaster oven,Did you see the Toaster oven?,0.12,0.016,JPG\,fork03c,toothbrush03b,cellphone,fan,toasteroven,clock01a,ring01,eraser,sunglasses04,thermometer02b,violin,blankImage,blankImage,blankImage,blankImage,blankImage,blankImage,toasteroven,,,,,,,,,,,,0,50,50,200,,,,,,,,,,,,,,,,,,,,,,,,,,,,,,,,,,,506.5328510000836,507.54372850013897,507.52702800021507,508.1044973002281,508.1044973002281,None,509.428713100031,None,right,1.6680425000377,509.428713100031,None,511.11379600013606,None,left,0.26988569973036647,511.11379600013606,None,,,,,,,,,,,,,,,,,,,,,,,PPT53,001,2022-07-13_14h56.37.337,ABstudy,2022.1.4,59.9220055375777,
AB,Lag1_T1A_T2P,1,A,P,6,7,5,3,10,Jellyfish,Did you see the Jellyfish?,0.12,0.016,JPG\,thermometer02b,avocado01,scissors01,tennisball01b,medal02b,banana01,stapler01,cigarette,potato02b,pineapple01a,blankImage,blankImage,blankImage,blankImage,blankImage,blankImage,blankImage,firehydrant,,,,,,,,,,,,0,51,51,255,,,,,,,,,,,,,,,,,,,,,,,,,,,,,,,,,,,511.47122800000943,512.4818216001149,512.4651863002218,513.056982500013,513.056982500013,None,514.2369432002306,None,right,1.7312629998195916,514.2369432002306,None,515.9851748000365,None,right,0.30293339979834855,515.9851748000365,None,,,,,,,,,,,,,,,,,,,,,,,PPT53,001,2022-07-13_14h56.37.337,ABstudy,2022.1.4,59.9220055375777,
AB,Lag5_T1A_T2P,5,A,P,5,10,4,5,15,Eye patch,Did you see the Eye patch?,0.12,0.016,JPG\,scissors01,balloon01b,eraser,feather03a,banana01,candle01,measuringcup01,calculator01,thermometer02b,stapler03b,pear01,carrot01,globe,baseball01a,leaf02a,blankImage,blankImage,cross01,,,,,,,,,,,,0,52,52,258,,,,,,,,,,,,,,,,,,,,,,,,,,,,,,,,,,,516.3249822000507,517.3365273000672,517.3198474000674,517.9059088001959,517.9059088001959,None,519.7493383002002,None,right,1.0019743999000639,519.7493383002002,None,520.7732700000051,None,left,1.3138072998262942,520.7732700000051,None,,,,,,,,,,,,,,,,,,,,,,,PPT53,001,2022-07-13_14h56.37.337,ABstudy,2022.1.4,59.9220055375777,
AB,Lag5_T1P_T2A,5,P,A,6,11,5,3,14,toy truck,Did you see the toy truck?,0.12,0.016,JPG\,globe,belt02a,sponge01,violin,fork03c,bluecheese,clock01a,microscope,balloon01b,scarf,teabag,pen04b,brick,brownsugar,blankImage,blankImage,blankImage,bluecheese,,,,,,,,,,,,0,53,53,204,,,,,,,,,,,,,,,,,,,,,,,,,,,,,,,,,,,522.1729761001188,523.1758671000134,523.1591915001627,523.7549975002185,523.7549975002185,None,525.2946355000604,None,right,3.944981799926609,525.2946355000604,None,529.2649914000649,None,right,0.5824873999226838,529.2649914000649,None,,,,,,,,,,,,,,,,,,,,,,,PPT53,001,2022-07-13_14h56.37.337,ABstudy,2022.1.4,59.9220055375777,
AB,Lag1_T1P_T2A,1,P,A,7,8,6,3,11,Armadillo,Did you see the Armadillo?,0.12,0.016,JPG\,clock01a,cellphone,toaster01,toothbrush03b,cauliflower01,microscope,armadillo,paintbrush01,scarf,clock04,sponge01,blankImage,blankImage,blankImage,blankImage,blankImage,blankImage,armadillo,,,,,,,,,,,,0,54,54,180,,,,,,,,,,,,,,,,,,,,,,,,,,,,,,,,,,,529.8724027001299,530.8832519000862,530.8667702001985,531.5115759000182,531.5115759000182,None,532.8713858001865,None,left,0.8483369997702539,532.8713858001865,None,533.7378905001096,None,right,0.3250022998545319,533.7378905001096,None,,,,,,,,,,,,,,,,,,,,,,,PPT53,001,2022-07-13_14h56.37.337,ABstudy,2022.1.4,59.9220055375777,
AB,Lag5_T1P_T2A,5,P,A,5,10,4,5,15,Shield,Did you see the Shield?,0.12,0.016,JPG\,cigarette,fork03c,greenolive,broccoli01a,shield02,tennisball01b,balloon01b,leaf02a,pig,fan,clock01a,strawberry,envelope03a,birthdaycandle,teabag,blankImage,blankImage,shield02,,,,,,,,,,,,0,55,55,223,,,,,,,,,,,,,,,,,,,,,,,,,,,,,,,,,,,534.0974199001212,535.1039383001626,535.0872698000167,535.6667505002115,535.6667505002115,None,537.5290509001352,None,right,2.0301622999832034,537.5290509001352,None,539.5755090001039,None,right,0.6239027997944504,539.5755090001039,None,,,,,,,,,,,,,,,,,,,,,,,PPT53,001,2022-07-13_14h56.37.337,ABstudy,2022.1.4,59.9220055375777,
AB,Lag1_T1P_T2A,1,P,A,5,6,4,4,10,flower,Did you see the flower?,0.12,0.016,JPG\,broom01,globe,cellphone,tableknife02,daffodil,scissors01,ring01,alligator,rice,toaster01,blankImage,blankImage,blankImage,blankImage,blankImage,blankImage,blankImage,daffodil,,,,,,,,,,,,0,56,56,184,,,,,,,,,,,,,,,,,,,,,,,,,,,,,,,,,,,540.2294395000208,541.2438609001692,541.2105623001698,541.7882629001979,541.7882629001979,None,543.0351705001667,None,left,1.7802406998816878,543.0351705001667,None,544.8474184002262,None,right,0.6723054999019951,544.8474184002262,None,,,,,,,,,,,,,,,,,,,,,,,PPT53,001,2022-07-13_14h56.37.337,ABstudy,2022.1.4,59.9220055375777,
AB,Lag5_T1A_T2P,5,A,P,5,10,4,4,14,Chefs hat,Did you see the Chefs hat?,0.12,0.016,JPG\,candle01,fork03c,plate01b,violin,computerkeyboard02,candy,calculator01,paintbrush01,cherry01,stapler06,teabag,banana01,cd,lighter01,blankImage,blankImage,blankImage,horseshoe,,,,,,,,,,,,0,57,57,278,,,,,,,,,,,,,,,,,,,,,,,,,,,,,,,,,,,545.5537299001589,546.5658314002212,546.5490690001752,547.1234428000171,547.1234428000171,None,548.8495375001803,None,right,1.1820824998430908,548.8495375001803,None,550.0523984001484,None,left,1.0355322996620089,550.0523984001484,None,,,,,,,,,,,,,,,,,,,,,,,PPT53,001,2022-07-13_14h56.37.337,ABstudy,2022.1.4,59.9220055375777,
AB,Lag1_T1A_T2P,1,A,P,5,6,4,3,9,barrel,Did you see the barrel?,0.12,0.016,JPG\,clock01a,cellphone,toaster01,toothbrush03b,cauliflower01,stapler01,comb02a,paintbrush01,scarf,blankImage,blankImage,blankImage,blankImage,blankImage,blankImage,blankImage,blankImage,sheep,,,,,,,,,,,,0,58,58,243,,,,,,,,,,,,,,,,,,,,,,,,,,,,,,,,,,,551.1223820000887,552.1378771001473,552.1044542000163,552.6876419000328,552.6876419000328,None,553.888824700145,None,right,0.8708319999277592,553.888824700145,None,554.7905952001456,None,right,0.5201981998980045,554.7905952001456,None,,,,,,,,,,,,,,,,,,,,,,,PPT53,001,2022-07-13_14h56.37.337,ABstudy,2022.1.4,59.9220055375777,
AB,Lag1_T1P_T2P,1,P,P,8,9,7,4,13,peacock,Did you see the peacock?,0.12,0.016,JPG\,hammer01,sponge01,toaster01,cherry01,feather03a,mushroom01,measuringcup01,peacock,stapler03a,brick,clock04,medal02b,teabag,blankImage,blankImage,blankImage,blankImage,peacock,,,,,,,,,,,,0,59,59,68,,,,,,,,,,,,,,,,,,,,,,,,,,,,,,,,,,,555.3474238000344,556.3589328001253,556.3422484002076,556.9127569000702,556.9127569000702,None,558.4761545001529,None,left,0.8909763998817652,558.4761545001529,None,559.3952027000487,None,right,0.42901219986379147,559.3952027000487,None,,,,,,,,,,,,,,,,,,,,,,,PPT53,001,2022-07-13_14h56.37.337,ABstudy,2022.1.4,59.9220055375777,
AB,Lag5_T1P_T2A,5,P,A,6,11,5,5,16,World map,Did you see the World map?,0.12,0.016,JPG\,cigarette,pig,banana01,strawberry,clock01a,worldmap,spoon01,blueberry01,battery02b,pineapple01a,chain01,paintbrush01,candy,pen04b,teabag,birthdaycandle,blankImage,worldmap,,,,,,,,,,,,0,60,60,205,,,,,,,,,,,,,,,,,,,,,,,,,,,,,,,,,,,559.8517039001454,560.8634486000519,560.8466589001473,561.4194082000758,561.4194082000758,None,563.2901371000335,None,left,0.6134073999710381,563.2901371000335,None,563.932540200185,None,left,0.38629009993746877,563.932540200185,None,,,,,,,,,,,,,,,,,,,,,,,PPT53,001,2022-07-13_14h56.37.337,ABstudy,2022.1.4,59.9220055375777,
AB,Lag5_T1A_T2P,5,A,P,6,11,5,3,14,Kiwi,Did you see the Kiwi?,0.12,0.016,JPG\,paintbrush01,dice05a,watermelon01,broccoli01a,hammer01,leaf02a,match,tennisball01b,lemon02,fan,stapler06,grape01,envelope03a,sponge01,blankImage,blankImage,blankImage,granolabar01,,,,,,,,,,,,0,61,61,261,,,,,,,,,,,,,,,,,,,,,,,,,,,,,,,,,,,564.3560603000224,565.3679170000833,565.3512995000929,565.9605321001727,565.9605321001727,None,567.6827284002211,None,right,2.1331874998286366,567.6827284002211,None,569.8387004001997,None,right,0.8002414000220597,569.8387004001997,None,,,,,,,,,,,,,,,,,,,,,,,PPT53,001,2022-07-13_14h56.37.337,ABstudy,2022.1.4,59.9220055375777,
AB,Lag5_T1A_T2P,5,A,P,5,10,4,3,13,flower,Did you see the flower?,0.12,0.016,JPG\,cucumber,ring01,lipstick02a,microscope,violin,garlic01a,celery,lighter01,cherry01,stapler03a,belt02a,key01,binoculars01b,blankImage,blankImage,blankImage,blankImage,christmastree,,,,,,,,,,,,0,62,62,284,,,,,,,,,,,,,,,,,,,,,,,,,,,,,,,,,,,570.6587588000111,571.6739019001834,571.6405281000771,572.2356689001899,572.2356689001899,None,573.8441414001863,None,right,1.3870254999492317,573.8441414001863,None,575.2610063001048,None,right,0.8747835997492075,575.2610063001048,None,,,,,,,,,,,,,,,,,,,,,,,PPT53,001,2022-07-13_14h56.37.337,ABstudy,2022.1.4,59.9220055375777,
AB,Lag5_T1P_T2P,5,P,P,8,13,7,3,16,church,Did you see the church?,0.12,0.016,JPG\,clock01a,cellphone,toaster01,toothbrush03b,cauliflower01,microscope,comb02a,church,scarf,clock04,sponge01,iron01b,stapler06,celery,ring01,ashtray01,blankImage,church,,,,,,,,,,,,0,63,63,129,,,,,,,,,,,,,,,,,,,,,,,,,,,,,,,,,,,576.1660295000765,577.1796343000606,577.1629872000776,577.7400400000624,577.7400400000624,None,579.6808460000902,None,left,0.8543370999395847,579.6808460000902,None,580.5663275001571,None,right,0.37702820007689297,580.5663275001571,None,,,,,,,,,,,,,,,,,,,,,,,PPT53,001,2022-07-13_14h56.37.337,ABstudy,2022.1.4,59.9220055375777,
AB,Lag1_T1P_T2P,1,P,P,8,9,7,4,13,Doughnut,Did you see the Doughnut?,0.12,0.016,JPG\,brick,eraser,cucumber,ashtray01,thermometer02b,binoculars01b,lipstick02a,donut,stapler01,brownsugar,battery02b,iron01b,dice05a,blankImage,blankImage,blankImage,blankImage,donut,,,,,,,,,,,,0,64,64,39,,,,,,,,,,,,,,,,,,,,,,,,,,,,,,,,,,,580.9707679001149,581.9844064000063,581.9676458002068,582.5913685001433,582.5913685001433,None,584.1029935001861,None,left,0.6958617998752743,584.1029935001861,None,584.8204628000967,None,left,0.3146434996742755,584.8204628000967,None,,,,,,,,,,,,,,,,,,,,,,,PPT53,001,2022-07-13_14h56.37.337,ABstudy,2022.1.4,59.9220055375777,
AB,Lag1_T1P_T2A,1,P,A,8,9,7,5,14,Ceiling fan,Did you see the Ceiling fan?,0.12,0.016,JPG\,cucumber,sponge01,alligator,pear01,ashtray01,hammer01,clock04,ceilingfan01,fork03c,binoculars01b,mushroom01,broccoli01a,leaf02a,acorn,blankImage,blankImage,blankImage,ceilingfan01,,,,,,,,,,,,0,65,65,183,,,,,,,,,,,,,,,,,,,,,,,,,,,,,,,,,,,585.1613653001841,586.1718347000424,586.1551517001353,586.7361552000511,586.7361552000511,None,588.3457082000095,None,left,0.8380306998733431,588.3457082000095,None,589.2079432001337,None,right,0.29597299988381565,589.2079432001337,None,,,,,,,,,,,,,,,,,,,,,,,PPT53,001,2022-07-13_14h56.37.337,ABstudy,2022.1.4,59.9220055375777,
AB,Lag5_T1P_T2P,5,P,P,6,11,5,5,16,table,Did you see the table?,0.12,0.016,JPG\,birthdaycandle,mushroom01,strawberry,match,cherry01,table01,hammer01,thermometer02b,sock01a,ring01,stapler06,banana01,toiletpaper01a,key01,sponge01,teabag,blankImage,table01,,,,,,,,,,,,0,66,66,144,,,,,,,,,,,,,,,,,,,,,,,,,,,,,,,,,,,589.5719929002225,590.5764921000227,590.5597189001273,591.0604673000053,591.0604673000053,None,593.0517000001855,None,left,0.7150267998222262,593.0517000001855,None,593.7958965001162,None,right,0.25124709983356297,593.7958965001162,None,,,,,,,,,,,,,,,,,,,,,,,PPT53,001,2022-07-13_14h56.37.337,ABstudy,2022.1.4,59.9220055375777,
AB,Lag5_T1P_T2P,5,P,P,6,11,5,4,15,shovel,Did you see the shovel?,0.12,0.016,JPG\,carrot01,watch02a,clock04,microscope,toiletpaper01a,shovel01,alligator,ring01,brick,watermelon01,stapler03b,pencil01,measuringcup01,balloon01b,computerkeyboard02,blankImage,blankImage,shovel01,,,,,,,,,,,,0,67,67,139,,,,,,,,,,,,,,,,,,,,,,,,,,,,,,,,,,,594.0850709001534,595.097451500129,595.080704400083,595.669828500133,595.669828500133,None,597.4683910000604,None,right,3.0361603000201285,597.4683910000604,None,600.5361485001631,None,right,0.2954565999098122,600.5361485001631,None,,,,,,,,,,,,,,,,,,,,,,,PPT53,001,2022-07-13_14h56.37.337,ABstudy,2022.1.4,59.9220055375777,
AB,Lag1_T1P_T2P,1,P,P,6,7,5,4,11,cash register,Did you see the cash register?,0.12,0.016,JPG\,leaf02a,apple07,cd,pineapple01a,envelope03a,cashregister01,stapler03b,8ball,rice,feather03a,lemon02,blankImage,blankImage,blankImage,blankImage,blankImage,blankImage,cashregister01,,,,,,,,,,,,0,68,68,79,,,,,,,,,,,,,,,,,,,,,,,,,,,,,,,,,,,600.8556948001496,601.8706981001887,601.8372964002192,602.4158790002111,602.4158790002111,None,603.8004009001888,None,left,0.7753609998617321,603.8004009001888,None,604.6066935001872,None,left,0.33603319991379976,604.6066935001872,None,,,,,,,,,,,,,,,,,,,,,,,PPT53,001,2022-07-13_14h56.37.337,ABstudy,2022.1.4,59.9220055375777,
AB,Lag1_T1A_T2A,1,A,A,8,9,7,5,14,Ping pong Table,Did you see the Ping pong Table?,0.12,0.016,JPG\,pineapple01a,tennisball01b,computerkeyboard02,feather03a,belt02a,acorn,violin,blueberry01,medal02b,alligator,greenolive,screwdriver04b,potato02b,fork03c,blankImage,blankImage,blankImage,statue,,,,,,,,,,,,0,69,69,287,,,,,,,,,,,,,,,,,,,,,,,,,,,,,,,,,,,604.9770844001323,605.9913808000274,605.9746878000442,606.5564377000555,606.5564377000555,None,608.2338599001523,None,right,1.3980303998105228,608.2338599001523,None,609.6619352002162,None,right,0.30486409994773567,609.6619352002162,None,,,,,,,,,,,,,,,,,,,,,,,PPT53,001,2022-07-13_14h56.37.337,ABstudy,2022.1.4,59.9220055375777,
AB,Lag5_T1P_T2P,5,P,P,6,11,5,4,15,saxophone,Did you see the saxophone?,0.12,0.016,JPG\,pizza,strawberry,potato02b,speaker04,battery02b,saxophone,dice05a,cellphone,globe,banana01,stapler03b,baseball01a,toaster01,broom01,ring01,blankImage,blankImage,saxophone,,,,,,,,,,,,0,70,70,117,,,,,,,,,,,,,,,,,,,,,,,,,,,,,,,,,,,610.0046937000006,611.0131503001321,610.996524900198,611.5738942001481,611.5738942001481,None,613.4071166000795,None,right,1.5930923998821527,613.4071166000795,None,615.0172305000015,None,left,1.541686899960041,615.0172305000015,None,,,,,,,,,,,,,,,,,,,,,,,PPT53,001,2022-07-13_14h56.37.337,ABstudy,2022.1.4,59.9220055375777,
AB,Lag5_T1P_T2P,5,P,P,6,11,5,3,14,shower head,Did you see the shower head?,0.12,0.016,JPG\,belt02a,measuringcup01,spoon01,chain01,greenolive,showerhead01,computerkeyboard02,onion,fan,strawberry,stapler01,broom01,binoculars01b,ashtray01,blankImage,blankImage,blankImage,showerhead01,,,,,,,,,,,,0,71,71,98,,,,,,,,,,,,,,,,,,,,,,,,,,,,,,,,,,,616.5904560000636,617.6029122001491,617.5862937001511,618.1671198001131,618.1671198001131,None,619.8597031000536,None,left,0.8435757998377085,619.8597031000536,None,620.7229236999992,None,left,0.23644769983366132,620.7229236999992,None,,,,,,,,,,,,,,,,,,,,,,,PPT53,001,2022-07-13_14h56.37.337,ABstudy,2022.1.4,59.9220055375777,
AB,Lag5_T1A_T2P,5,A,P,6,11,5,3,14,saxophone,Did you see the saxophone?,0.12,0.016,JPG\,globe,belt02a,sponge01,violin,fork03c,tomato01,clock01a,microscope,balloon01b,scarf,stapler03b,pen04b,brick,brownsugar,blankImage,blankImage,blankImage,microphone01,,,,,,,,,,,,0,72,72,267,,,,,,,,,,,,,,,,,,,,,,,,,,,,,,,,,,,620.9948055001441,622.007621700177,621.9908244002145,622.589924100088,622.589924100088,None,624.1763941000681,None,right,1.2953996998257935,624.1763941000681,None,625.4943386001978,None,right,0.8092139998916537,625.4943386001978,None,,,,,,,,,,,,,,,,,,,,,,,PPT53,001,2022-07-13_14h56.37.337,ABstudy,2022.1.4,59.9220055375777,
AB,Lag5_T1P_T2P,5,P,P,5,10,4,5,15,funnel,Did you see the funnel?,0.12,0.016,JPG\,pineapple01a,tennisball01b,computerkeyboard02,feather03a,funnel,acorn,violin,blueberry01,medal02b,stapler01,greenolive,screwdriver04b,potato02b,fork03c,cymbal,blankImage,blankImage,funnel,,,,,,,,,,,,0,73,73,109,,,,,,,,,,,,,,,,,,,,,,,,,,,,,,,,,,,626.3323223001789,627.3462089002132,627.3294337000698,627.9291575001553,627.9291575001553,None,629.6483535000589,None,right,0.8389450998511165,629.6483535000589,None,630.5157616001088,None,right,0.1794986999593675,630.5157616001088,None,,,,,,,,,,,,,,,,,,,,,,,PPT53,001,2022-07-13_14h56.37.337,ABstudy,2022.1.4,59.9220055375777,
AB,Lag5_T1P_T2P,5,P,P,8,13,7,3,16,Chefs hat,Did you see the Chefs hat?,0.12,0.016,JPG\,rice,watermelon01,tableknife02,scarf,computerkeyboard02,cauliflower01,battery02b,chefshat,book01b,sandal,sponge01,microscope,stapler01,fork03c,thermometer02b,apple07,blankImage,chefshat,,,,,,,,,,,,0,74,74,128,,,,,,,,,,,,,,,,,,,,,,,,,,,,,,,,,,,630.718695800053,631.733709000051,631.7002424001694,632.2780304001644,632.2780304001644,None,634.2962905000895,None,right,0.7746015000157058,634.2962905000895,None,635.1033581001684,None,right,0.5291338998358697,635.1033581001684,None,,,,,,,,,,,,,,,,,,,,,,,PPT53,001,2022-07-13_14h56.37.337,ABstudy,2022.1.4,59.9220055375777,
AB,Lag5_T1P_T2P,5,P,P,7,12,6,5,17,truck,Did you see the truck?,0.12,0.016,JPG\,binoculars01b,speaker04,sandal,envelope03a,plate01b,comb02a,boxtruck,chain01,measuringcup01,key01,medal02b,stapler05,tennisball01b,pizza,cigarette,sunglasses04,blankImage,boxtruck,,,,,,,,,,,,0,75,75,166,,,,,,,,,,,,,,,,,,,,,,,,,,,,,,,,,,,635.6572380000725,636.6719874001574,636.6386547000147,637.2249682000838,637.2249682000838,None,639.1429229001515,None,left,0.7040919999126345,639.1429229001515,None,639.8751645002048,None,left,0.42861499986611307,639.8751645002048,None,,,,,,,,,,,,,,,,,,,,,,,PPT53,001,2022-07-13_14h56.37.337,ABstudy,2022.1.4,59.9220055375777,
AB,Lag1_T1P_T2A,1,P,A,6,7,5,5,12,Barn,Did you see the Barn?,0.12,0.016,JPG\,celery,pencil01,fan,foosballtable,iron01b,barn,potato02b,fork03c,button01,pineapple01a,baseball01a,printer02,blankImage,blankImage,blankImage,blankImage,blankImage,barn,,,,,,,,,,,,0,76,76,181,,,,,,,,,,,,,,,,,,,,,,,,,,,,,,,,,,,640.3309068002272,641.3434714002069,641.3267072001472,641.8931618002243,641.8931618002243,None,643.4790742001496,None,left,0.6958295998629183,643.4790742001496,None,644.1963321000803,None,right,0.33853710000403225,644.1963321000803,None,,,,,,,,,,,,,,,,,,,,,,,PPT53,001,2022-07-13_14h56.37.337,ABstudy,2022.1.4,59.9220055375777,
AB,Lag5_T1P_T2P,5,P,P,7,12,6,3,15,Eye patch,Did you see the Eye patch?,0.12,0.016,JPG\,candle01,paintbrush01,scissors01,fan,microscope,toothbrush03b,eyepatch,watermelon01,teabag,pencil01,lemon02,stapler05,shirt02,cauliflower01,cd,blankImage,blankImage,eyepatch,,,,,,,,,,,,0,77,77,108,,,,,,,,,,,,,,,,,,,,,,,,,,,,,,,,,,,644.5701577002183,645.5810233000666,645.564379800111,646.1367310001515,646.1367310001515,None,647.9884087000974,None,left,0.6341617999132723,647.9884087000974,None,648.6507434002124,None,left,0.3158529996871948,648.6507434002124,None,,,,,,,,,,,,,,,,,,,,,,,PPT53,001,2022-07-13_14h56.37.337,ABstudy,2022.1.4,59.9220055375777,
AB,Lag5_T1P_T2P,5,P,P,6,11,5,3,14,fish,Did you see the fish?,0.12,0.016,JPG\,broom01,globe,cellphone,tableknife02,cauliflower01,holdfast,ring01,alligator,rice,toaster01,stapler03b,grape01,microscope,cucumber,blankImage,blankImage,blankImage,holdfast,,,,,,,,,,,,0,78,78,133,,,,,,,,,,,,,,,,,,,,,,,,,,,,,,,,,,,648.9875377002172,650.0021457001567,649.96871380019,650.5453544000629,650.5453544000629,None,652.2863486001734,None,left,0.6324140999931842,652.2863486001734,None,652.9417219001334,None,right,0.752731999848038,652.9417219001334,None,,,,,,,,,,,,,,,,,,,,,,,PPT53,001,2022-07-13_14h56.37.337,ABstudy,2022.1.4,59.9220055375777,
AB,Lag1_T1P_T2P,1,P,P,6,7,5,3,10,spider web,Did you see the spider web?,0.12,0.016,JPG\,toaster01,chain01,sponge01,baseball01a,carrot01,spiderweb,stapler03b,iron01b,grape01,brick,blankImage,blankImage,blankImage,blankImage,blankImage,blankImage,blankImage,spiderweb,,,,,,,,,,,,0,79,79,72,,,,,,,,,,,,,,,,,,,,,,,,,,,,,,,,,,,653.7294245001394,654.7401035001967,654.7234947001562,655.3045280000661,655.3045280000661,None,656.5728326002136,None,left,0.7860028997529298,656.5728326002136,None,657.3761108000763,None,left,0.2949989999178797,657.3761108000763,None,,,,,,,,,,,,,,,,,,,,,,,PPT53,001,2022-07-13_14h56.37.337,ABstudy,2022.1.4,59.9220055375777,
AB,Lag5_T1P_T2A,5,P,A,8,13,7,5,18,telescope,Did you see the telescope?,0.12,0.016,JPG\,globe,broccoli01a,binoculars01b,iron01b,avocado01,dandelion,pineapple01a,handheldtelescope,fan,pizza,celery,blueberry01,sewingmachine01a,dice05a,watermelon01,candy,blankImage,handheldtelescope,,,,,,,,,,,,0,80,80,228,,,,,,,,,,,,,,,,,,,,,,,,,,,,,,,,,,,657.6989853000268,658.7105899001472,658.694090800127,659.2730939001776,659.2730939001776,None,661.2169269002043,None,left,1.2138701998628676,661.2169269002043,None,662.4478131001815,None,right,2.2069485997781157,662.4478131001815,None,,,,,,,,,,,,,,,,,,,,,,,PPT53,001,2022-07-13_14h56.37.337,ABstudy,2022.1.4,59.9220055375777,
AB,Lag5_T1P_T2P,5,P,P,5,10,4,4,14,Salt shaker,Did you see the Salt shaker?,0.12,0.016,JPG\,fork03c,belt02a,grape01,computerkeyboard02,saltshaker03a,printer02,broom01,toiletpaper01a,toaster01,stapler01,book01b,blueberry01,spoon01,apple07,blankImage,blankImage,blankImage,saltshaker03a,,,,,,,,,,,,0,81,81,96,,,,,,,,,,,,,,,,,,,,,,,,,,,,,,,,,,,664.6896631000564,665.701043800218,665.6843908000737,666.2603475002106,666.2603475002106,None,668.0332211002242,None,left,0.41418479988351464,668.0332211002242,None,668.4702231001575,None,left,0.16808589966967702,668.4702231001575,None,,,,,,,,,,,,,,,,,,,,,,,PPT53,001,2022-07-13_14h56.37.337,ABstudy,2022.1.4,59.9220055375777,
AB,Lag1_T1P_T2P,1,P,P,7,8,6,3,11,trampoline,Did you see the trampoline?,0.12,0.016,JPG\,dice05a,watch02a,pig,lighter01,button01,strawberry,trampoline,stapler03a,plate01b,pen04b,feather03a,blankImage,blankImage,blankImage,blankImage,blankImage,blankImage,trampoline,,,,,,,,,,,,0,82,82,73,,,,,,,,,,,,,,,,,,,,,,,,,,,,,,,,,,,668.672896000091,669.688230200205,669.6550788001623,670.2188686002046,670.2188686002046,None,671.564440100221,None,left,4.6833437997847795,671.564440100221,None,676.2781189000234,None,right,0.7286737998947501,676.2781189000234,None,,,,,,,,,,,,,,,,,,,,,,,PPT53,001,2022-07-13_14h56.37.337,ABstudy,2022.1.4,59.9220055375777,
AB,Lag1_T1P_T2P,1,P,P,7,8,6,5,13,school bus,Did you see the school bus?,0.12,0.016,JPG\,aceofdiamond,banana01,scissors01,pig,shirt02,leaf02a,schoolbus,stapler05,fork03c,tableknife02,balloon01b,match,toothbrush03b,blankImage,blankImage,blankImage,blankImage,schoolbus,,,,,,,,,,,,0,83,83,24,,,,,,,,,,,,,,,,,,,,,,,,,,,,,,,,,,,677.0314501000103,678.0465038002003,678.0131428001914,678.602053000126,678.602053000126,None,680.2218685001135,None,left,0.4652909997384995,680.2218685001135,None,680.7158041000366,None,left,0.17054269998334348,680.7158041000366,None,,,,,,,,,,,,,,,,,,,,,,,PPT53,001,2022-07-13_14h56.37.337,ABstudy,2022.1.4,59.9220055375777,
AB,Lag1_T1P_T2P,1,P,P,8,9,7,4,13,mattress,Did you see the mattress?,0.12,0.016,JPG\,button01,celery,birthdaycandle,apple07,avocado01,tennisball01b,dice05a,mattress,stapler01,feather03a,tomato01,scarf,orange,blankImage,blankImage,blankImage,blankImage,mattress,,,,,,,,,,,,0,84,84,22,,,,,,,,,,,,,,,,,,,,,,,,,,,,,,,,,,,680.9191165000666,681.9341384000145,681.900670300005,682.4976894001011,682.4976894001011,None,684.0596682000905,None,right,1.25120889977552,684.0596682000905,None,685.3372407001443,None,left,0.2374977997969836,685.3372407001443,None,,,,,,,,,,,,,,,,,,,,,,,PPT53,001,2022-07-13_14h56.37.337,ABstudy,2022.1.4,59.9220055375777,
AB,Lag5_T1A_T2P,5,A,P,5,10,4,3,13,License Plate,Did you see the License Plate?,0.12,0.016,JPG\,tomato01,pen04b,shirt02,carrot01,lamp04a,key01,pizza,avocado01,sewingmachine01a,stapler06,iron01b,book01b,chain01,blankImage,blankImage,blankImage,blankImage,porcupine,,,,,,,,,,,,0,85,85,270,,,,,,,,,,,,,,,,,,,,,,,,,,,,,,,,,,,685.6104116002098,686.6218480002135,686.6051319001708,687.1903038001619,687.1903038001619,None,688.7392398000229,None,right,1.46887579979375,688.7392398000229,None,690.2254798000213,None,left,0.5415179999545217,690.2254798000213,None,,,,,,,,,,,,,,,,,,,,,,,PPT53,001,2022-07-13_14h56.37.337,ABstudy,2022.1.4,59.9220055375777,
AB,Lag1_T1P_T2A,1,P,A,7,8,6,4,12,Steering wheel,Did you see the Steering wheel?,0.12,0.016,JPG\,alligator,banana01,apple07,tomato01,button01,spoon01,steeringwheel,fork03c,canoftennisballs,potato02b,grape01,leaf02a,blankImage,blankImage,blankImage,blankImage,blankImage,steeringwheel,,,,,,,,,,,,0,86,86,198,,,,,,,,,,,,,,,,,,,,,,,,,,,,,,,,,,,690.8539751002099,691.8603574000299,691.8437067000195,692.345898500178,692.345898500178,None,693.8632779000327,None,left,0.6313060999382287,693.8632779000327,None,694.5131591001991,None,left,0.31039339979179204,694.5131591001991,None,,,,,,,,,,,,,,,,,,,,,,,PPT53,001,2022-07-13_14h56.37.337,ABstudy,2022.1.4,59.9220055375777,
AB,Lag1_T1P_T2A,1,P,A,6,7,5,4,11,Road,Did you see the Road?,0.12,0.016,JPG\,pizza,printer02,medal02b,spoon01,grape01,road02,belt02a,watermelon01,celery,battery02b,screw02,blankImage,blankImage,blankImage,blankImage,blankImage,blankImage,road02,,,,,,,,,,,,0,87,87,174,,,,,,,,,,,,,,,,,,,,,,,,,,,,,,,,,,,694.8517585000955,695.8640337001998,695.8473812001757,696.4443927002139,696.4443927002139,None,697.7967933001928,None,left,0.8824073998257518,697.7967933001928,None,698.7006287002005,None,right,0.841822599992156,698.7006287002005,None,,,,,,,,,,,,,,,,,,,,,,,PPT53,001,2022-07-13_14h56.37.337,ABstudy,2022.1.4,59.9220055375777,
AB,Lag1_T1A_T2P,1,A,P,8,9,7,3,12,elbow,Did you see the elbow?,0.12,0.016,JPG\,watermelon01,cigarette,faucet,cymbal,cauliflower01,feather03a,cherry01,broom01,stapler01,key01,baseball01a,iron01b,blankImage,blankImage,blankImage,blankImage,blankImage,cashregister01,,,,,,,,,,,,0,88,88,251,,,,,,,,,,,,,,,,,,,,,,,,,,,,,,,,,,,699.5728880001698,700.5859254000243,700.5691860001534,701.2023985001724,701.2023985001724,None,702.6364068000112,None,right,1.4907691997941583,702.6364068000112,None,704.1559303000104,None,left,0.2121862000785768,704.1559303000104,None,,,,,,,,,,,,,,,,,,,,,,,PPT53,001,2022-07-13_14h56.37.337,ABstudy,2022.1.4,59.9220055375777,
AB,Lag1_T1P_T2P,1,P,P,7,8,6,5,13,horse,Did you see the horse?,0.12,0.016,JPG\,watermelon01,pencil01,microscope,blueberry01,computerkeyboard02,lamp04a,horse,stapler03b,sock01a,key01,binoculars01b,cauliflower01,ashtray01,blankImage,blankImage,blankImage,blankImage,horse,,,,,,,,,,,,0,89,89,3,,,,,,,,,,,,,,,,,,,,,,,,,,,,,,,,,,,704.3936835001223,705.4072041001637,705.3905228001531,706.0067169000395,706.0067169000395,None,707.608480400173,None,left,0.7499961997382343,707.608480400173,None,708.3769064000808,None,right,0.237589200027287,708.3769064000808,None,,,,,,,,,,,,,,,,,,,,,,,PPT53,001,2022-07-13_14h56.37.337,ABstudy,2022.1.4,59.9220055375777,
AB,Lag1_T1P_T2P,1,P,P,6,7,5,4,11,Bow,Did you see the Bow?,0.12,0.016,JPG\,broom01,plate01b,scissors01,garlic01a,paintbrush01,bow,stapler03a,shirt02,speaker04,celery,sandal,blankImage,blankImage,blankImage,blankImage,blankImage,blankImage,bow,,,,,,,,,,,,0,90,90,53,,,,,,,,,,,,,,,,,,,,,,,,,,,,,,,,,,,708.6495026000775,709.6615261000115,709.6447862000205,710.243462700164,710.243462700164,None,711.6156266001053,None,right,1.4311421997845173,711.6156266001053,None,713.0649647000246,None,left,0.31889840005896986,713.0649647000246,None,,,,,,,,,,,,,,,,,,,,,,,PPT53,001,2022-07-13_14h56.37.337,ABstudy,2022.1.4,59.9220055375777,
AB,Lag1_T1P_T2P,1,P,P,7,8,6,4,12,rooster,Did you see the rooster?,0.12,0.016,JPG\,pizza,strawberry,potato02b,speaker04,battery02b,iron01b,rooster,stapler03b,globe,banana01,medal02b,baseball01a,blankImage,blankImage,blankImage,blankImage,blankImage,rooster,,,,,,,,,,,,0,91,91,69,,,,,,,,,,,,,,,,,,,,,,,,,,,,,,,,,,,713.4199539001565,714.4330004001968,714.4162533001509,715.0372325000353,715.0372325000353,None,716.4796992000192,None,left,0.7753143000882119,716.4796992000192,None,717.2857338001486,None,right,0.7687180999200791,717.2857338001486,None,,,,,,,,,,,,,,,,,,,,,,,PPT53,001,2022-07-13_14h56.37.337,ABstudy,2022.1.4,59.9220055375777,
AB,Lag1_T1P_T2A,1,P,A,8,9,7,5,14,Sausage,Did you see the Sausage?,0.12,0.016,JPG\,pencil01,broccoli01a,button01,sponge01,watermelon01,lipstick02a,comb02a,sausage,lighter01,sock01a,spoon01,blueberry01,belt02a,onion,blankImage,blankImage,blankImage,sausage,,,,,,,,,,,,0,92,92,175,,,,,,,,,,,,,,,,,,,,,,,,,,,,,,,,,,,718.0911636000965,719.1042435001582,719.0876257000491,719.6519282001536,719.6519282001536,None,721.347122900188,None,left,0.7796396999619901,721.347122900188,None,722.157079400029,None,right,1.009798499988392,722.157079400029,None,,,,,,,,,,,,,,,,,,,,,,,PPT53,001,2022-07-13_14h56.37.337,ABstudy,2022.1.4,59.9220055375777,
AB,Lag1_T1A_T2P,1,A,P,8,9,7,4,13,Toolbox,Did you see the Toolbox?,0.12,0.016,JPG\,pizza,printer02,medal02b,spoon01,grape01,lighter01,belt02a,watermelon01,stapler03b,battery02b,screw02,comb02a,cauliflower01,blankImage,blankImage,blankImage,blankImage,ladybug03,,,,,,,,,,,,0,93,93,237,,,,,,,,,,,,,,,,,,,,,,,,,,,,,,,,,,,723.1947796000168,724.2091377000324,724.1757464001421,724.7650356001686,724.7650356001686,None,726.457404800225,None,left,0.7496077998075634,726.457404800225,None,727.2287216000259,None,left,0.7462016998324543,727.2287216000259,None,,,,,,,,,,,,,,,,,,,,,,,PPT53,001,2022-07-13_14h56.37.337,ABstudy,2022.1.4,59.9220055375777,
AB,Lag1_T1P_T2A,1,P,A,5,6,4,5,11,Sailboat,Did you see the Sailboat?,0.12,0.016,JPG\,chain01,speaker04,avocado01,watermelon01,sailboat,comb02a,lamp04a,fork03c,toaster01,slipper03b,scissors01,blankImage,blankImage,blankImage,blankImage,blankImage,blankImage,sailboat,,,,,,,,,,,,0,94,94,193,,,,,,,,,,,,,,,,,,,,,,,,,,,,,,,,,,,727.9986667002086,729.0137879000977,728.9805064001121,729.5492660000455,729.5492660000455,None,730.8822864000686,None,left,1.0605862997472286,730.8822864000686,None,731.9670106000267,None,left,1.0154806999489665,731.9670106000267,None,,,,,,,,,,,,,,,,,,,,,,,PPT53,001,2022-07-13_14h56.37.337,ABstudy,2022.1.4,59.9220055375777,
AB,Lag5_T1P_T2P,5,P,P,7,12,6,5,17,elbow,Did you see the elbow?,0.12,0.016,JPG\,candle01,fork03c,plate01b,violin,computerkeyboard02,candy,elbow,paintbrush01,cherry01,sock01a,teabag,stapler01,cd,lighter01,book01b,tennisball01b,blankImage,elbow,,,,,,,,,,,,0,95,95,87,,,,,,,,,,,,,,,,,,,,,,,,,,,,,,,,,,,733.0051398000214,734.0190530000255,734.0023381002247,734.5795182001311,734.5795182001311,None,736.5572468000464,None,left,0.8894222998060286,736.5572468000464,None,737.4725318001583,None,right,0.1819223000202328,737.4725318001583,None,,,,,,,,,,,,,,,,,,,,,,,PPT53,001,2022-07-13_14h56.37.337,ABstudy,2022.1.4,59.9220055375777,
AB,Lag1_T1P_T2P,1,P,P,6,7,5,4,11,no parking sign,Did you see the no parking sign?,0.12,0.016,JPG\,fork03c,belt02a,grape01,computerkeyboard02,lemon02,parkingsign,stapler05,toiletpaper01a,toaster01,lipstick02a,book01b,blankImage,blankImage,blankImage,blankImage,blankImage,blankImage,parkingsign,,,,,,,,,,,,0,96,96,47,,,,,,,,,,,,,,,,,,,,,,,,,,,,,,,,,,,737.6803414002061,738.6903598001227,738.6738371001557,739.2350733000785,739.2350733000785,None,740.6076454001013,None,left,0.638922399841249,740.6076454001013,None,741.276116500143,None,right,0.6740741997491568,741.276116500143,None,,,,,,,,,,,,,,,,,,,,,,,PPT53,001,2022-07-13_14h56.37.337,ABstudy,2022.1.4,59.9220055375777,
AB,Lag1_T1P_T2P,1,P,P,6,7,5,3,10,handcuffs,Did you see the handcuffs?,0.12,0.016,JPG\,sewingmachine01a,scarf,carrot01,book01b,eraser,handcuffs,stapler05,lipstick02a,printer02,garlic01a,blankImage,blankImage,blankImage,blankImage,blankImage,blankImage,blankImage,handcuffs,,,,,,,,,,,,0,97,97,2,,,,,,,,,,,,,,,,,,,,,,,,,,,,,,,,,,,741.9791816000361,742.9945015001576,742.9611283000559,743.5626840000041,743.5626840000041,None,744.7957809001673,None,left,0.47448430000804365,744.7957809001673,None,745.2969183002133,None,left,0.2054541998077184,745.2969183002133,None,,,,,,,,,,,,,,,,,,,,,,,PPT53,001,2022-07-13_14h56.37.337,ABstudy,2022.1.4,59.9220055375777,
AB,Lag5_T1P_T2A,5,P,A,7,12,6,4,16,Bear,Did you see the Bear?,0.12,0.016,JPG\,comb02a,key01,medal02b,battery02b,lighter01,microscope,grizzly,sandal,pig,cellphone,computerkeyboard02,calculator01,cymbal,clock04,cucumber,avocado01,blankImage,grizzly,,,,,,,,,,,,0,98,98,213,,,,,,,,,,,,,,,,,,,,,,,,,,,,,,,,,,,745.5357341000345,746.5482374001294,746.5315029001795,747.0991497000214,747.0991497000214,None,749.1128393001854,None,left,0.5578018999658525,749.1128393001854,None,749.7013069000095,None,right,0.31347949989140034,749.7013069000095,None,,,,,,,,,,,,,,,,,,,,,,,PPT53,001,2022-07-13_14h56.37.337,ABstudy,2022.1.4,59.9220055375777,
AB,Lag1_T1P_T2P,1,P,P,7,8,6,5,13,dream catcher,Did you see the dream catcher?,0.12,0.016,JPG\,clock01a,cellphone,toaster01,toothbrush03b,cauliflower01,microscope,dreamcatcher,stapler05,scarf,clock04,sponge01,iron01b,watch02a,blankImage,blankImage,blankImage,blankImage,dreamcatcher,,,,,,,,,,,,0,99,99,81,,,,,,,,,,,,,,,,,,,,,,,,,,,,,,,,,,,750.0345215001144,751.0357926001307,751.0191025000531,751.6089262000751,751.6089262000751,None,753.2150854000356,None,left,0.6472687998320907,753.2150854000356,None,753.8899401000235,None,left,0.17264249990694225,753.8899401000235,None,,,,,,,,,,,,,,,,,,,,,,,PPT53,001,2022-07-13_14h56.37.337,ABstudy,2022.1.4,59.9220055375777,
AB,Lag1_T1A_T2P,1,A,P,7,8,6,3,11,lion,Did you see the lion?,0.12,0.016,JPG\,sock01a,spoon01,alligator,comb02a,printer02,medal02b,lamp04a,stapler01,greenolive,computerkeyboard02,cauliflower01,blankImage,blankImage,blankImage,blankImage,blankImage,blankImage,bullet,,,,,,,,,,,,0,100,100,229,,,,,,,,,,,,,,,,,,,,,,,,,,,,,,,,,,,754.0920081001241,755.106682300102,755.0733273001388,755.6641838001087,755.6641838001087,None,757.017216600012,None,right,2.134011099813506,757.017216600012,None,759.1774509001989,None,left,0.21352939982898533,759.1774509001989,None,,,,,,,,,,,,,,,,,,,,,,,PPT53,001,2022-07-13_14h56.37.337,ABstudy,2022.1.4,59.9220055375777,
AB,Lag1_T1P_T2A,1,P,A,7,8,6,4,12,gorilla,Did you see the gorilla?,0.12,0.016,JPG\,scissors01,ashtray01,garlic01a,medal02b,cigarette,candle08b,gorilla,envelope03a,cucumber,rice,toiletpaper01a,greenolive,blankImage,blankImage,blankImage,blankImage,blankImage,gorilla,,,,,,,,,,,,0,101,101,189,,,,,,,,,,,,,,,,,,,,,,,,,,,,,,,,,,,759.4149803000037,760.4287922000512,760.4120338000357,760.9941884002183,760.9941884002183,None,762.5329777000006,None,left,0.6892381999641657,762.5329777000006,None,763.2482212001923,None,right,0.8465817000251263,763.2482212001923,None,,,,,,,,,,,,,,,,,,,,,,,PPT53,001,2022-07-13_14h56.37.337,ABstudy,2022.1.4,59.9220055375777,
AB,Lag5_T1P_T2P,5,P,P,7,12,6,3,15,lips,Did you see the lips?,0.12,0.016,JPG\,cigarette,fork03c,greenolive,broccoli01a,avocado01,tennisball01b,lip,leaf02a,pig,fan,clock01a,stapler03a,envelope03a,birthdaycandle,teabag,blankImage,blankImage,lip,,,,,,,,,,,,0,102,102,95,,,,,,,,,,,,,,,,,,,,,,,,,,,,,,,,,,,764.1159737000708,765.1171376002021,765.1004140002187,765.6887404001318,765.6887404001318,None,767.5301912000868,None,left,0.49258749978616834,767.5301912000868,None,768.0543998000212,None,left,0.2880201998632401,768.0543998000212,None,,,,,,,,,,,,,,,,,,,,,,,PPT53,001,2022-07-13_14h56.37.337,ABstudy,2022.1.4,59.9220055375777,
AB,Lag1_T1A_T2P,1,A,P,8,9,7,5,14,calendar,Did you see the calendar?,0.12,0.016,JPG\,foosballtable,candy,envelope03a,microscope,pencil01,leaf02a,scissors01,watermelon01,stapler04b,dandelion,pineapple01a,hammer01,celery,thermometer02b,blankImage,blankImage,blankImage,trampoline,,,,,,,,,,,,0,103,103,245,,,,,,,,,,,,,,,,,,,,,,,,,,,,,,,,,,,768.3796624001116,769.387672000099,769.3707463000901,769.8712203002069,769.8712203002069,None,771.6752702000085,None,right,1.2756430997978896,771.6752702000085,None,772.9758679000661,None,left,0.23876789980567992,772.9758679000661,None,,,,,,,,,,,,,,,,,,,,,,,PPT53,001,2022-07-13_14h56.37.337,ABstudy,2022.1.4,59.9220055375777,
AB,Lag5_T1P_T2P,5,P,P,6,11,5,5,16,microwave,Did you see the microwave?,0.12,0.016,JPG\,pen04b,speaker04,lighter01,cherry01,weight04a,microwave,sock01a,toothbrush03b,broom01,sewingmachine01a,stapler06,iron01b,clock01a,sandal,cd,blueberry01,blankImage,microwave,,,,,,,,,,,,0,104,104,136,,,,,,,,,,,,,,,,,,,,,,,,,,,,,,,,,,,773.2537208001595,774.2595071000978,774.2428182000294,774.8398621000815,774.8398621000815,None,776.8097468002234,None,left,0.8047489000018686,776.8097468002234,None,777.645605500089,None,right,0.8571387999691069,777.645605500089,None,,,,,,,,,,,,,,,,,,,,,,,PPT53,001,2022-07-13_14h56.37.337,ABstudy,2022.1.4,59.9220055375777,
AB,Lag1_T1P_T2P,1,P,P,6,7,5,3,10,drum sticks,Did you see the drum sticks?,0.12,0.016,JPG\,pineapple01a,tennisball01b,computerkeyboard02,feather03a,belt02a,drumstick,stapler03b,blueberry01,medal02b,alligator,blankImage,blankImage,blankImage,blankImage,blankImage,blankImage,blankImage,drumstick,,,,,,,,,,,,0,105,105,61,,,,,,,,,,,,,,,,,,,,,,,,,,,,,,,,,,,778.5858999001794,779.5979880001396,779.5810663001612,780.1585757001303,780.1585757001303,None,781.2494472002145,None,left,1.14913299982436,781.2494472002145,None,782.4172050000634,None,left,0.213388399919495,782.4172050000634,None,,,,,,,,,,,,,,,,,,,,,,,PPT53,001,2022-07-13_14h56.37.337,ABstudy,2022.1.4,59.9220055375777,
AB,Lag5_T1P_T2A,5,P,A,5,10,4,3,13,fan,Did you see the fan?,0.12,0.016,JPG\,scissors01,grape01,mushroom01,toiletpaper01a,fanheater,pizza,cigarette,ashtray01,carrot01,pineapple01a,foosballtable,lipstick02a,teabag,blankImage,blankImage,blankImage,blankImage,fanheater,,,,,,,,,,,,0,106,106,220,,,,,,,,,,,,,,,,,,,,,,,,,,,,,,,,,,,782.6509967001621,783.6518223001622,783.6350379001815,784.2014324001502,784.2014324001502,None,785.8074459000491,None,right,1.3118459000252187,785.8074459000491,None,787.1385689000599,None,right,0.603986999951303,787.1385689000599,None,,,,,,,,,,,,,,,,,,,,,,,PPT53,001,2022-07-13_14h56.37.337,ABstudy,2022.1.4,59.9220055375777,
AB,Lag5_T1P_T2P,5,P,P,5,10,4,3,13,rose,Did you see the rose?,0.12,0.016,JPG\,lipstick02a,cucumber,candle08b,printer02,rose,violin,paintbrush01,lighter01,belt02a,stapler03b,thermometer02b,microscope,cigarette,blankImage,blankImage,blankImage,blankImage,rose,,,,,,,,,,,,0,107,107,158,,,,,,,,,,,,,,,,,,,,,,,,,,,,,,,,,,,787.8275811001658,788.8402554001659,788.8235237000044,789.4103692001663,789.4103692001663,None,790.9457372000907,None,left,0.7255504997447133,790.9457372000907,None,791.6931025001686,None,right,1.154435799922794,791.6931025001686,None,,,,,,,,,,,,,,,,,,,,,,,PPT53,001,2022-07-13_14h56.37.337,ABstudy,2022.1.4,59.9220055375777,
AB,Lag5_T1A_T2P,5,A,P,5,10,4,5,15,shower,Did you see the shower?,0.12,0.016,JPG\,sewingmachine01a,thermometer02b,sponge01,eraser,broccoli01a,fork03c,pizza,violin,belt02a,stapler04b,pineapple01a,tennisball01b,dandelion,cauliflower01,lemon02,blankImage,blankImage,redfox,,,,,,,,,,,,0,108,108,271,,,,,,,,,,,,,,,,,,,,,,,,,,,,,,,,,,,792.8811549001839,793.8953712000512,793.8785685000475,794.4697282002307,794.4697282002307,None,796.2574220001698,None,right,0.7571217997465283,796.2574220001698,None,797.031281700125,None,right,0.23122860002331436,797.031281700125,None,,,,,,,,,,,,,,,,,,,,,,,PPT53,001,2022-07-13_14h56.37.337,ABstudy,2022.1.4,59.9220055375777,
AB,Lag1_T1P_T2P,1,P,P,6,7,5,5,12,bat,Did you see the bat?,0.12,0.016,JPG\,comb02a,key01,medal02b,battery02b,lighter01,bat,stapler05,sandal,pig,cellphone,computerkeyboard02,calculator01,blankImage,blankImage,blankImage,blankImage,blankImage,bat,,,,,,,,,,,,0,109,109,35,,,,,,,,,,,,,,,,,,,,,,,,,,,,,,,,,,,797.3486036001705,798.3497680001892,798.3330568000674,798.9229425000958,798.9229425000958,None,800.332916600164,None,left,0.5138538999017328,800.332916600164,None,800.8687384000514,None,left,0.23332139989361167,800.8687384000514,None,,,,,,,,,,,,,,,,,,,,,,,PPT53,001,2022-07-13_14h56.37.337,ABstudy,2022.1.4,59.9220055375777,
AB,Lag5_T1A_T2P,5,A,P,6,11,5,3,14,keys,Did you see the keys?,0.12,0.016,JPG\,pencil01,microscope,banana01,computerkeyboard02,celery,cellphone,scissors01,sock01a,book01b,onion,stapler03a,binoculars01b,baseball01a,iron01b,blankImage,blankImage,blankImage,treadmill,,,,,,,,,,,,0,110,110,275,,,,,,,,,,,,,,,,,,,,,,,,,,,,,,,,,,,801.1242946002167,802.1368073001504,802.1201543000061,802.7436301000416,802.7436301000416,None,804.4794420001563,None,right,0.9747594997752458,804.4794420001563,None,805.4736004001461,None,left,0.1806010997388512,805.4736004001461,None,,,,,,,,,,,,,,,,,,,,,,,PPT53,001,2022-07-13_14h56.37.337,ABstudy,2022.1.4,59.9220055375777,
AB,Lag1_T1P_T2P,1,P,P,6,7,5,4,11,American football,Did you see the American football?,0.12,0.016,JPG\,toaster01,garlic01a,faucet,fan,comb02a,football,stapler06,watch02a,onion,blueberry01,toiletpaper01a,blankImage,blankImage,blankImage,blankImage,blankImage,blankImage,football,,,,,,,,,,,,0,111,111,12,,,,,,,,,,,,,,,,,,,,,,,,,,,,,,,,,,,805.6827663001604,806.6915265000425,806.6748066002037,807.2598093000706,807.2598093000706,None,808.6400428002235,None,left,0.8863741997629404,808.6400428002235,None,809.5442689000629,None,right,0.2219735998660326,809.5442689000629,None,,,,,,,,,,,,,,,,,,,,,,,PPT53,001,2022-07-13_14h56.37.337,ABstudy,2022.1.4,59.9220055375777,
AB,Lag1_T1P_T2A,1,P,A,7,8,6,3,11,Snowshoe,Did you see the Snowshoe?,0.12,0.016,JPG\,birthdaycandle,mushroom01,strawberry,match,cherry01,eraser,snowshoe,thermometer02b,sock01a,ring01,feather03a,blankImage,blankImage,blankImage,blankImage,blankImage,blankImage,snowshoe,,,,,,,,,,,,0,112,112,194,,,,,,,,,,,,,,,,,,,,,,,,,,,,,,,,,,,809.8003917001188,810.8122114001308,810.7955003001262,811.2960828000214,811.2960828000214,None,812.7050656001084,None,left,0.7976972998585552,812.7050656001084,None,813.5313015000429,None,right,0.43459999980404973,813.5313015000429,None,,,,,,,,,,,,,,,,,,,,,,,PPT53,001,2022-07-13_14h56.37.337,ABstudy,2022.1.4,59.9220055375777,
AB,Lag1_T1A_T2A,1,A,A,8,9,7,3,12,punching bag,Did you see the punching bag?,0.12,0.016,JPG\,key01,apple07,ring01,leaf02a,hammer01,tableknife02,violin,sponge01,baseball01a,thermometer02b,celery,calculator01,blankImage,blankImage,blankImage,blankImage,blankImage,bathtub,,,,,,,,,,,,0,113,113,291,,,,,,,,,,,,,,,,,,,,,,,,,,,,,,,,,,,814.0015749000013,815.0161658001598,814.999467600137,815.6651407000609,815.5937114001717,None,817.0898168000858,None,right,0.8125412999652326,817.0898168000858,None,817.9191021001898,None,right,0.19973209989257157,817.9191021001898,None,,,,,,,,,,,,,,,,,,,,,,,PPT53,001,2022-07-13_14h56.37.337,ABstudy,2022.1.4,59.9220055375777,
AB,Lag1_T1A_T2A,1,A,A,7,8,6,5,13,Poker chips,Did you see the Poker chips?,0.12,0.016,JPG\,violin,pizza,toothbrush03b,pineapple01a,banana01,ashtray01,candy,dandelion,clock04,sock01a,microscope,speaker04,calculator01,blankImage,blankImage,blankImage,blankImage,cigar,,,,,,,,,,,,0,114,114,289,,,,,,,,,,,,,,,,,,,,,,,,,,,,,,,,,,,818.1426835001912,819.1542244001757,819.1375264001545,819.7493171000388,819.7493171000388,None,821.2994714002125,None,right,0.9625784996896982,821.2994714002125,None,822.2907699001953,None,right,0.23532420000992715,822.2907699001953,None,,,,,,,,,,,,,,,,,,,,,,,PPT53,001,2022-07-13_14h56.37.337,ABstudy,2022.1.4,59.9220055375777,
AB,Lag5_T1P_T2P,5,P,P,8,13,7,4,17,lamp,Did you see the lamp?,0.12,0.016,JPG\,globe,broccoli01a,binoculars01b,iron01b,avocado01,dandelion,pineapple01a,floorlamp,fan,pizza,celery,blueberry01,stapler01,dice05a,watermelon01,candy,blankImage,floorlamp,,,,,,,,,,,,0,115,115,99,,,,,,,,,,,,,,,,,,,,,,,,,,,,,,,,,,,822.5636863000691,823.5746563000139,823.5579759001266,824.1523104000371,824.1523104000371,None,826.0817224001512,None,left,1.1722047000657767,826.0817224001512,None,827.2786383000202,None,left,1.2072373998817056,827.2786383000202,None,,,,,,,,,,,,,,,,,,,,,,,PPT53,001,2022-07-13_14h56.37.337,ABstudy,2022.1.4,59.9220055375777,
AB,Lag1_T1P_T2P,1,P,P,7,8,6,4,12,skunk,Did you see the skunk?,0.12,0.016,JPG\,fan,tomato01,candy,screwdriver04b,alligator,cd,skunk,stapler03b,button01,plate01b,brownsugar,lighter01,blankImage,blankImage,blankImage,blankImage,blankImage,skunk,,,,,,,,,,,,0,116,116,48,,,,,,,,,,,,,,,,,,,,,,,,,,,,,,,,,,,828.5205714001786,829.5305016001221,829.51412850013,830.1164276001509,830.1164276001509,None,831.558124500094,None,left,0.8326253998093307,831.558124500094,None,832.4169912000652,None,right,0.47879319987259805,832.4169912000652,None,,,,,,,,,,,,,,,,,,,,,,,PPT53,001,2022-07-13_14h56.37.337,ABstudy,2022.1.4,59.9220055375777,
AB,Lag5_T1P_T2A,5,P,A,6,11,5,3,14,Balcony,Did you see the Balcony?,0.12,0.016,JPG\,tomato01,pen04b,shirt02,carrot01,lamp04a,balcony02,pizza,avocado01,sewingmachine01a,apple07,iron01b,book01b,chain01,sock01a,blankImage,blankImage,blankImage,balcony02,,,,,,,,,,,,0,117,117,207,,,,,,,,,,,,,,,,,,,,,,,,,,,,,,,,,,,832.9234393001534,833.9352299000602,833.9185631000437,834.4923210002016,834.4923210002016,None,836.2060819000471,None,left,0.9360722999554127,836.2060819000471,None,837.1718168000225,None,left,0.31446419982239604,837.1718168000225,None,,,,,,,,,,,,,,,,,,,,,,,PPT53,001,2022-07-13_14h56.37.337,ABstudy,2022.1.4,59.9220055375777,
AB,Lag5_T1P_T2P,5,P,P,7,12,6,3,15,marble,Did you see the marble?,0.12,0.016,JPG\,cigarette,ashtray01,envelope03a,sandal,chain01,cucumber,marble,tomato01,dandelion,candle01,lemon02,stapler03b,potato02b,cymbal,clock01a,blankImage,blankImage,marble,,,,,,,,,,,,0,118,118,146,,,,,,,,,,,,,,,,,,,,,,,,,,,,,,,,,,,837.5105216000229,838.523170000175,838.5064275001641,839.0759866000153,839.0759866000153,None,840.9359255000018,None,right,0.8300751999486238,840.9359255000018,None,841.7930081000086,None,right,0.25307029974646866,841.7930081000086,None,,,,,,,,,,,,,,,,,,,,,,,PPT53,001,2022-07-13_14h56.37.337,ABstudy,2022.1.4,59.9220055375777,
AB,Lag5_T1P_T2P,5,P,P,7,12,6,4,16,Wolf,Did you see the Wolf?,0.12,0.016,JPG\,brick,eraser,cucumber,ashtray01,thermometer02b,binoculars01b,greywolf,screwdriver04b,grape01,brownsugar,battery02b,stapler03b,dice05a,avocado01,birthdaycandle,watch02a,blankImage,greywolf,,,,,,,,,,,,0,119,119,89,,,,,,,,,,,,,,,,,,,,,,,,,,,,,,,,,,,842.0791984000243,843.0943175000139,843.0610768001061,843.6388725000434,843.6388725000434,None,845.6638199000154,None,left,0.4223303000908345,845.6638199000154,None,846.1153124000411,None,left,0.1631879999767989,846.1153124000411,None,,,,,,,,,,,,,,,,,,,,,,,PPT53,001,2022-07-13_14h56.37.337,ABstudy,2022.1.4,59.9220055375777,
AB,Lag1_T1P_T2P,1,P,P,5,6,4,5,11,Guitar case,Did you see the Guitar case?,0.12,0.016,JPG\,broccoli01a,scissors01,toothbrush03b,foosballtable,guitarcase,stapler05,hammer01,toiletpaper01a,cd,garlic01a,carrot01,blankImage,blankImage,blankImage,blankImage,blankImage,blankImage,guitarcase,,,,,,,,,,,,0,120,120,14,,,,,,,,,,,,,,,,,,,,,,,,,,,,,,,,,,,846.3083783001639,847.3155627001543,847.2989232002292,847.8974402002059,847.8974402002059,None,849.2339035000186,None,left,0.5322626000270247,849.2339035000186,None,849.7843022001907,None,left,0.1743447999469936,849.7843022001907,None,,,,,,,,,,,,,,,,,,,,,,,PPT53,001,2022-07-13_14h56.37.337,ABstudy,2022.1.4,59.9220055375777,
AB,Lag5_T1P_T2P,5,P,P,5,10,4,5,15,hockey puck,Did you see the hockey puck?,0.12,0.016,JPG\,chain01,pen04b,birthdaycandle,watermelon01,hockeypuck,scissors01,measuringcup01,candle01,hammer01,stapler06,ashtray01,feather03a,sewingmachine01a,thermometer02b,alligator,blankImage,blankImage,hockeypuck,,,,,,,,,,,,0,121,121,110,,,,,,,,,,,,,,,,,,,,,,,,,,,,,,,,,,,849.9909361000173,851.0021952001844,850.9854523001704,851.5683922001626,851.5683922001626,None,853.3044460001402,None,right,0.6373541997745633,853.3044460001402,None,853.9716196001973,None,right,0.17851439979858696,853.9716196001973,None,,,,,,,,,,,,,,,,,,,,,,,PPT53,001,2022-07-13_14h56.37.337,ABstudy,2022.1.4,59.9220055375777,
AB,Lag1_T1A_T2P,1,A,P,5,6,4,3,9,Crown,Did you see the Crown?,0.12,0.016,JPG\,leaf02a,pear01,measuringcup01,cigarette,fan,stapler04b,teabag,tableknife02,ring01,blankImage,blankImage,blankImage,blankImage,blankImage,blankImage,blankImage,blankImage,arrow02,,,,,,,,,,,,0,122,122,248,,,,,,,,,,,,,,,,,,,,,,,,,,,,,,,,,,,854.1720134001225,855.1729725000914,855.1562912000809,855.7415818001609,855.7415818001609,None,856.8206842001528,None,right,1.1533361000474542,856.8206842001528,None,857.9925200000871,None,left,0.1503749997355044,857.9925200000871,None,,,,,,,,,,,,,,,,,,,,,,,PPT53,001,2022-07-13_14h56.37.337,ABstudy,2022.1.4,59.9220055375777,
AB,Lag5_T1P_T2P,5,P,P,8,13,7,5,18,hand,Did you see the hand?,0.12,0.016,JPG\,foosballtable,candy,envelope03a,microscope,pencil01,leaf02a,scissors01,hand01b,grape01,dandelion,pineapple01a,hammer01,stapler03a,thermometer02b,ring01,sewingmachine01a,blankImage,hand01b,,,,,,,,,,,,0,123,123,131,,,,,,,,,,,,,,,,,,,,,,,,,,,,,,,,,,,858.1632025002036,859.176890200004,859.1603360001463,859.6607852000743,859.6441676001996,None,861.6614250000566,None,left,0.42484439979307353,861.6614250000566,None,862.1138214000966,None,left,0.16424819990061224,862.1138214000966,None,,,,,,,,,,,,,,,,,,,,,,,PPT53,001,2022-07-13_14h56.37.337,ABstudy,2022.1.4,59.9220055375777,
AB,Lag1_T1P_T2A,1,P,A,5,6,4,5,11,Electric toothbrush,Did you see the Electric toothbrush?,0.12,0.016,JPG\,carrot01,greenolive,fork03c,chain01,electrictoothbrush01c,watermelon01,tableknife02,printer02,comb02a,toaster01,orange,blankImage,blankImage,blankImage,blankImage,blankImage,blankImage,electrictoothbrush01c,,,,,,,,,,,,0,124,124,186,,,,,,,,,,,,,,,,,,,,,,,,,,,,,,,,,,,862.3043923000805,863.3144456001464,863.2977390000597,863.8799248000141,863.8799248000141,None,865.2554984001908,None,left,0.7988419998437166,865.2554984001908,None,866.083341400139,None,right,0.1629627998918295,866.083341400139,None,,,,,,,,,,,,,,,,,,,,,,,PPT53,001,2022-07-13_14h56.37.337,ABstudy,2022.1.4,59.9220055375777,
AB,Lag1_T1P_T2P,1,P,P,5,6,4,5,11,Basketball,Did you see the Basketball?,0.12,0.016,JPG\,pencil01,microscope,banana01,computerkeyboard02,basketball01,stapler04b,scissors01,sock01a,book01b,onion,dice05a,blankImage,blankImage,blankImage,blankImage,blankImage,blankImage,basketball01,,,,,,,,,,,,0,125,125,34,,,,,,,,,,,,,,,,,,,,,,,,,,,,,,,,,,,866.3321795000229,867.3352036001161,867.3185749000404,867.8974619000219,867.8974619000219,None,869.1648750000168,None,left,1.22520889993757,869.1648750000168,None,870.4215561000165,None,left,1.0966318999417126,870.4215561000165,None,,,,,,,,,,,,,,,,,,,,,,,PPT53,001,2022-07-13_14h56.37.337,ABstudy,2022.1.4,59.9220055375777,
AB,Lag1_T1P_T2A,1,P,A,6,7,5,3,10,Dragon fly,Did you see the Dragon fly?,0.12,0.016,JPG\,leaf02a,pear01,measuringcup01,cigarette,fan,dragonfly01,teabag,tableknife02,ring01,pencil01,blankImage,blankImage,blankImage,blankImage,blankImage,blankImage,blankImage,dragonfly01,,,,,,,,,,,,0,126,126,185,,,,,,,,,,,,,,,,,,,,,,,,,,,,,,,,,,,871.5445882000495,872.5569026002195,872.5403395001777,873.1022974001244,873.1022974001244,None,874.3726163001265,None,left,0.8336885999888182,874.3726163001265,None,875.2263078000396,None,right,0.18005939992144704,875.2263078000396,None,,,,,,,,,,,,,,,,,,,,,,,PPT53,001,2022-07-13_14h56.37.337,ABstudy,2022.1.4,59.9220055375777,
AB,Lag5_T1P_T2P,5,P,P,7,12,6,5,17,tie,Did you see the tie?,0.12,0.016,JPG\,iron01b,orange,birthdaycandle,potato02b,cauliflower01,pencil01,tie02,candle08b,celery,tableknife02,pen04b,stapler06,ring01,rice,lemon02,tomato01,blankImage,tie02,,,,,,,,,,,,0,127,127,161,,,,,,,,,,,,,,,,,,,,,,,,,,,,,,,,,,,875.4828936001286,876.4942199001089,876.4774893000722,877.043077400187,877.043077400187,None,878.9451719000936,None,left,1.197554999962449,878.9451719000936,None,880.1645533000119,None,right,0.329028699779883,880.1645533000119,None,,,,,,,,,,,,,,,,,,,,,,,PPT53,001,2022-07-13_14h56.37.337,ABstudy,2022.1.4,59.9220055375777,
AB,Lag5_T1P_T2P,5,P,P,5,10,4,5,15,penguin,Did you see the penguin?,0.12,0.016,JPG\,watermelon01,cigarette,pintofbeer,cymbal,penguin,feather03a,cherry01,broom01,battery02b,stapler05,baseball01a,iron01b,garlic01a,computerkeyboard02,pig,blankImage,blankImage,penguin,,,,,,,,,,,,0,128,128,137,,,,,,,,,,,,,,,,,,,,,,,,,,,,,,,,,,,880.5201660001185,881.5328658001963,881.5164455000777,882.1097904001363,882.1097904001363,None,883.8286767001264,None,left,0.4017055998556316,883.8286767001264,None,884.2519904000219,None,left,0.21820249990560114,884.2519904000219,None,,,,,,,,,,,,,,,,,,,,,,,PPT53,001,2022-07-13_14h56.37.337,ABstudy,2022.1.4,59.9220055375777,
AB,Lag1_T1P_T2P,1,P,P,6,7,5,3,10,windmill,Did you see the windmill?,0.12,0.016,JPG\,pizza,printer02,medal02b,spoon01,grape01,windmill,stapler04b,watermelon01,celery,battery02b,blankImage,blankImage,blankImage,blankImage,blankImage,blankImage,blankImage,windmill,,,,,,,,,,,,0,129,129,75,,,,,,,,,,,,,,,,,,,,,,,,,,,,,,,,,,,884.5059935001191,885.5198508000467,885.5033543000463,886.0976138000842,886.0976138000842,None,887.3138766000047,None,left,0.9398680999875069,887.3138766000047,None,888.2726642000489,None,right,0.18941549980081618,888.2726642000489,None,,,,,,,,,,,,,,,,,,,,,,,PPT53,001,2022-07-13_14h56.37.337,ABstudy,2022.1.4,59.9220055375777,
AB,Lag1_T1P_T2A,1,P,A,7,8,6,3,11,Seagull,Did you see the Seagull?,0.12,0.016,JPG\,toiletpaper01a,mushroom01,medal02b,sandal,rice,cd,seagull,pizza,candle08b,garlic01a,toaster01,blankImage,blankImage,blankImage,blankImage,blankImage,blankImage,seagull,,,,,,,,,,,,0,130,130,176,,,,,,,,,,,,,,,,,,,,,,,,,,,,,,,,,,,888.4955408000387,889.5069666001946,889.4904062000569,890.077491100179,890.077491100179,None,891.4904815000482,None,left,0.6274245998356491,891.4904815000482,None,892.1447625001892,None,right,0.25344909983687103,892.1447625001892,None,,,,,,,,,,,,,,,,,,,,,,,PPT53,001,2022-07-13_14h56.37.337,ABstudy,2022.1.4,59.9220055375777,
AB,Lag1_T1P_T2A,1,P,A,7,8,6,4,12,gate,Did you see the gate?,0.12,0.016,JPG\,pen04b,speaker04,lighter01,cherry01,pintofbeer,onion,entrancegate,toothbrush03b,broom01,sewingmachine01a,book01b,iron01b,blankImage,blankImage,blankImage,blankImage,blankImage,entrancegate,,,,,,,,,,,,0,131,131,187,,,,,,,,,,,,,,,,,,,,,,,,,,,,,,,,,,,892.4297927001026,893.4444632001687,893.4110786002129,893.9910866999999,893.9910866999999,None,895.4842385000084,None,left,1.7136856000870466,895.4842385000084,None,897.2149846001994,None,right,0.5349083999171853,897.2149846001994,None,,,,,,,,,,,,,,,,,,,,,,,PPT53,001,2022-07-13_14h56.37.337,ABstudy,2022.1.4,59.9220055375777,
AB,Lag5_T1P_T2P,5,P,P,5,10,4,3,13,bathtub,Did you see the bathtub?,0.12,0.016,JPG\,belt02a,sunglasses04,computerkeyboard02,cherry01,bathtub,eraser,watch02a,dice05a,blueberry01,stapler04b,match,leaf02a,iron01b,blankImage,blankImage,blankImage,blankImage,bathtub,,,,,,,,,,,,0,132,132,103,,,,,,,,,,,,,,,,,,,,,,,,,,,,,,,,,,,897.7864124001935,898.7996738001239,898.7832020001952,899.3511715000495,899.3511715000495,None,900.9691598000936,None,left,0.9499921998940408,900.9691598000936,None,901.936484400183,None,left,0.18165249982848763,901.936484400183,None,,,,,,,,,,,,,,,,,,,,,,,PPT53,001,2022-07-13_14h56.37.337,ABstudy,2022.1.4,59.9220055375777,
AB,Lag5_T1A_T2A,5,A,A,5,10,4,4,14,music sheet,Did you see the music sheet?,0.12,0.016,JPG\,celery,pencil01,fan,foosballtable,iron01b,shirt02,potato02b,fork03c,button01,pineapple01a,baseball01a,printer02,cauliflower01,dandelion,blankImage,blankImage,blankImage,licenseplate,,,,,,,,,,,,0,133,133,304,,,,,,,,,,,,,,,,,,,,,,,,,,,,,,,,,,,902.1416032002307,903.1542139002122,903.137484600069,903.7033177001867,903.7033177001867,None,905.3230267001782,None,left,3.123382000019774,905.3230267001782,None,908.4761998001486,None,right,0.8814722998067737,908.4761998001486,None,,,,,,,,,,,,,,,,,,,,,,,PPT53,001,2022-07-13_14h56.37.337,ABstudy,2022.1.4,59.9220055375777,
AB,Lag1_T1P_T2P,1,P,P,8,9,7,5,14,Waterfall,Did you see the Waterfall?,0.12,0.016,JPG\,pizza,watch02a,greenolive,cucumber,match,violin,scissors01,waterfall,stapler03a,cherry01,ring01,cigarette,microscope,cellphone,blankImage,blankImage,blankImage,waterfall,,,,,,,,,,,,0,134,134,52,,,,,,,,,,,,,,,,,,,,,,,,,,,,,,,,,,,909.3822461001109,910.394793700194,910.3780661001801,911.0169093001168,911.0169093001168,None,912.6765995000023,None,left,0.5698909997008741,912.6765995000023,None,913.2641458001453,None,right,1.5102715999819338,913.2641458001453,None,,,,,,,,,,,,,,,,,,,,,,,PPT53,001,2022-07-13_14h56.37.337,ABstudy,2022.1.4,59.9220055375777,
AB,Lag5_T1A_T2P,5,A,P,7,12,6,4,16,church,Did you see the church?,0.12,0.016,JPG\,printer02,leaf02a,cauliflower01,sock01a,brownsugar,paintbrush01,pig,orange,belt02a,shirt02,key01,stapler06,cigarette,scissors01,envelope03a,blueberry01,blankImage,ant,,,,,,,,,,,,0,135,135,279,,,,,,,,,,,,,,,,,,,,,,,,,,,,,,,,,,,914.8024213002063,915.8167195001151,915.8000646000728,916.4903319000732,916.4162438001949,None,918.3576036000159,None,right,0.6881960998289287,918.3576036000159,None,919.0704789001029,None,left,0.16099640005268157,919.0704789001029,None,,,,,,,,,,,,,,,,,,,,,,,PPT53,001,2022-07-13_14h56.37.337,ABstudy,2022.1.4,59.9220055375777,
AB,Lag1_T1P_T2P,1,P,P,8,9,7,3,12,Fire hydrant,Did you see the Fire hydrant?,0.12,0.016,JPG\,foosballtable,candy,envelope03a,microscope,pencil01,leaf02a,scissors01,firehydrant,stapler01,dandelion,pineapple01a,hammer01,blankImage,blankImage,blankImage,blankImage,blankImage,firehydrant,,,,,,,,,,,,0,136,136,83,,,,,,,,,,,,,,,,,,,,,,,,,,,,,,,,,,,919.2660164001863,920.2707807000261,920.2540594001766,920.7545827000868,920.7545827000868,None,922.2984056000132,None,left,0.7476102998480201,922.2984056000132,None,923.074451800203,None,right,0.28391849994659424,923.074451800203,None,,,,,,,,,,,,,,,,,,,,,,,PPT53,001,2022-07-13_14h56.37.337,ABstudy,2022.1.4,59.9220055375777,
AB,Lag1_T1P_T2P,1,P,P,5,6,4,5,11,golf ball,Did you see the golf ball?,0.12,0.016,JPG\,foosballtable,cigarette,pen04b,birthdaycandle,golfball,stapler05,binoculars01b,chain01,potato02b,cauliflower01,paintbrush01,blankImage,blankImage,blankImage,blankImage,blankImage,blankImage,golfball,,,,,,,,,,,,0,137,137,13,,,,,,,,,,,,,,,,,,,,,,,,,,,,,,,,,,,923.3964355001226,924.4086585000623,924.3919286001474,924.8925535001326,924.8925535001326,None,926.2980270001572,None,right,1.219779099803418,926.2980270001572,None,927.5450729001313,None,left,0.22064489987678826,927.5450729001313,None,,,,,,,,,,,,,,,,,,,,,,,PPT53,001,2022-07-13_14h56.37.337,ABstudy,2022.1.4,59.9220055375777,
