TrialType,CondType,Lag,T1_PA,T2_PA,T1Loc,T2Loc,PreDistractor,PostDistractor,TotalImg,cueWord,T1cue,StimLength,isi,PicFolder,Img1,Img2,Img3,Img4,Img5,Img6,Img7,Img8,Img9,Img10,Img11,Img12,Img13,Img14,Img15,Img16,Img17,T1_Identity,ImageType,T1PA,T2PA,Picture,Image,FullPathName,FilePath,Practice_Trials.thisRepN,Practice_Trials.thisTrialN,Practice_Trials.thisN,Practice_Trials.thisIndex,trials.thisRepN,trials.thisTrialN,trials.thisN,trials.thisIndex,trials_2.thisRepN,trials_2.thisTrialN,trials_2.thisN,trials_2.thisIndex,Practice_Ins.started,Practice_Ins.stopped,End_Prac_Ins.keys,End_Prac_Ins.rt,End_Prac_Ins.started,End_Prac_Ins.stopped,text_2.started,text_2.stopped,Fixation_Cross_2.started,Fixation_Cross_2.stopped,Rapid_Image_Present_2.started,Rapid_Image_Present_2.stopped,key_resp.keys,key_resp.rt,key_resp.started,key_resp.stopped,T1Response_2.started,T1Response_2.stopped,T2Response_2.started,T2Response_2.stopped,key_resp_4.keys,key_resp_4.rt,key_resp_4.started,key_resp_4.stopped,text.started,text.stopped,End_Instructions.keys,End_Instructions.rt,End_Instructions.started,End_Instructions.stopped,text_5.started,text_5.stopped,FC.started,FC.stopped,Rapid_Image_Present.started,Rapid_Image_Present.stopped,T1Response.started,T1Response.stopped,key_resp_2.keys,key_resp_2.rt,key_resp_2.started,key_resp_2.stopped,T2Response.started,T2Response.stopped,key_resp_3.keys,key_resp_3.rt,key_resp_3.started,key_resp_3.stopped,text_6.started,text_6.stopped,Fin_ins.keys,Fin_ins.rt,Fin_ins.started,Fin_ins.stopped,MemTest.started,MemTest.stopped,MemResponse.keys,MemResponse.rt,MemResponse.started,MemResponse.stopped,Display.started,Display.stopped,text_7.started,text_7.stopped,endOfExperiment.started,endOfExperiment.stopped,key_resp_5.keys,key_resp_5.rt,key_resp_5.started,key_resp_5.stopped,participant,session,date,expName,psychopyVersion,frameRate,
,,,,,,,,,,,,,,,,,,,,,,,,,,,,,,,,,,,,,,,,,,,,,,,,,,,,11.811540900000182,None,space,12.754383799998323,11.811540900000182,None,,,,,,,,,,,,,,,,,,,,,,,,,,,,,,,,,,,,,,,,,,,,,,,,,,,,,,,,,,,,,,,,,PPT57,001,2022-07-15_16h00.25.166,ABstudy,2022.1.4,59.88529570416393,
AB_Prac,Lag5_T1P_T2A,5,P,A,6,11,5,5,16,bread,Did you see the bread?,0.5,0.016,JPG\,cleaver01,clipboard,dustpan,hikingshoe01,notebook03a,baguette01,playingcard,pliers02b,styrofoamcup,rollingpin01a,swimgoggles,wineglass01,fryingpan02a,safetypin,syringe01,thimble,blankImage,baguette01,,,,,,,,0,0,0,8,,,,,,,,,,,,,,,24.6222656000009,25.622914800000217,25.60575390000122,26.193694999999934,26.193694999999934,None,left,1.6194869999981165,34.36320390000037,None,34.36320390000037,None,35.99962510000114,None,right,0.878008999998201,35.99962510000114,None,,,,,,,,,,,,,,,,,,,,,,,,,,,,,,,,,,,,,,,,,,,,,,,PPT57,001,2022-07-15_16h00.25.166,ABstudy,2022.1.4,59.88529570416393,
AB_Prac,Lag1_T1P_T2P,1,P,P,8,9,7,5,14,Tennis racket,Did you see the Tennis racket?,0.5,0.016,JPG\,coconut,computermouse06,croissant01,deodorant02a,pillow01a,peanut01,boot02b,tennisracket,stapler03b,crayon,eggplant,marker01a,plant01,radish01,blankImage,blankImage,blankImage,tennisracket,,,,,,,,0,1,1,0,,,,,,,,,,,,,,,36.90269050000097,37.918268100000205,37.88484490000155,38.463457000001654,38.463457000001654,None,left,0.9627842999980203,45.47537090000151,None,45.47537090000151,None,46.46003760000167,None,left,1.0435397999972338,46.46003760000167,None,,,,,,,,,,,,,,,,,,,,,,,,,,,,,,,,,,,,,,,,,,,,,,,PPT57,001,2022-07-15_16h00.25.166,ABstudy,2022.1.4,59.88529570416393,
AB_Prac,Lag5_T1P_T2P,5,P,P,5,10,4,5,15,washing machine,Did you see the washing machine?,0.5,0.016,JPG\,waterbottle03,wheel01,flashlight02b,zucchini01,washingmachine,headphones02b,nutcracker01,paintroller01,paperclip03,stapler06,ribbon04,electricrazor,bottleofredwine01,pitabread,pot02a,blankImage,blankImage,washingmachine,,,,,,,,0,2,2,4,,,,,,,,,,,,,,,47.52953359999992,48.528594800000064,48.512070500000846,49.078406200000245,49.078406200000245,None,left,0.514054399998713,56.71614660000159,None,56.71614660000159,None,57.2541411000002,None,left,0.49551160000009986,57.2541411000002,None,,,,,,,,,,,,,,,,,,,,,,,,,,,,,,,,,,,,,,,,,,,,,,,PPT57,001,2022-07-15_16h00.25.166,ABstudy,2022.1.4,59.88529570416393,
AB_Prac,Lag5_T1P_T2P,5,P,P,5,10,4,5,15,Vulture,Did you see the Vulture?,0.5,0.016,JPG\,shorts01,toast,ramekin01,bib,vulture,cracker02,date,glasses01a,hat03b,stapler01,measuringtape01,nail,pill,drum01,starfish01,blankImage,blankImage,vulture,,,,,,,,0,3,3,3,,,,,,,,,,,,,,,57.772613800001636,58.77233830000114,58.75576420000107,59.35833570000068,59.35833570000068,None,left,0.9488211999978375,66.84196950000114,None,66.84196950000114,None,67.81484410000121,None,left,0.5275155999988783,67.81484410000121,None,,,,,,,,,,,,,,,,,,,,,,,,,,,,,,,,,,,,,,,,,,,,,,,PPT57,001,2022-07-15_16h00.25.166,ABstudy,2022.1.4,59.88529570416393,
AB_Prac,Lag5_T1A_T2P,5,A,P,6,11,5,3,14,dog,Did you see the dog?,0.5,0.016,JPG\,bucket01a,doorlock,cookiecutter,fireextinguisher01,gluestick,highlighter02b,sportbag,spraybottle01,suitcase,thread02,stapler05,walnut01c,icecubetray01a,vikingmask01b,blankImage,blankImage,blankImage,None,,,,,,,,0,4,4,9,,,,,,,,,,,,,,,68.36531620000096,69.36629150000044,69.34937770000033,69.92443190000085,69.92443190000085,None,right,1.3159028999998554,76.94661650000126,None,76.94661650000126,None,78.29168740000023,None,left,0.5388377999988734,78.29168740000023,None,,,,,,,,,,,,,,,,,,,,,,,,,,,,,,,,,,,,,,,,,,,,,,,PPT57,001,2022-07-15_16h00.25.166,ABstudy,2022.1.4,59.88529570416393,
AB_Prac,Lag1_T1P_T2P,1,P,P,6,7,5,5,12,triangle,Did you see the triangle?,0.5,0.016,JPG\,ginger,mousetrap,plum01,slipper01b,dropper01,triangle,stapler04b,pants,raspberry01,rope03,scale01a,vase01,blankImage,blankImage,blankImage,blankImage,blankImage,triangle,,,,,,,,0,5,5,1,,,,,,,,,,,,,,,78.85892890000105,79.85992350000015,79.84328129999994,80.41672290000133,80.41672290000133,None,left,0.7356861999996909,86.49426220000169,None,86.49426220000169,None,87.2505011000012,None,left,0.3480203999988589,87.2505011000012,None,,,,,,,,,,,,,,,,,,,,,,,,,,,,,,,,,,,,,,,,,,,,,,,PPT57,001,2022-07-15_16h00.25.166,ABstudy,2022.1.4,59.88529570416393,
AB_Prac,Lag5_T1P_T2A,5,P,A,6,11,5,5,16,Wheat,Did you see the Wheat?,0.5,0.016,JPG\,bottleopener01,dentalfloss03b,cooler01,icecreamcone01a,paperclip01b,wheat,pencilsharpener02a,plasticbasket01a,toycar04,apricot,hairclip02,rock01a,honeydewmelon,antenna,blackberry,cardboardbox,blankImage,wheat,,,,,,,,0,6,6,7,,,,,,,,,,,,,,,87.67255880000084,88.68549170000006,88.66877050000039,89.22816180000154,89.22816180000154,None,left,0.8981144999997923,97.25975650000146,None,97.25975650000146,None,98.17809149999994,None,right,0.3079572999977245,98.17809149999994,None,,,,,,,,,,,,,,,,,,,,,,,,,,,,,,,,,,,,,,,,,,,,,,,PPT57,001,2022-07-15_16h00.25.166,ABstudy,2022.1.4,59.88529570416393,
AB_Prac,Lag5_T1P_T2P,5,P,P,7,12,6,3,15,vacuum,Did you see the vacuum?,0.5,0.016,JPG\,fork07b,lightbulb01,manshoe,saw02b,shoelace,soap03a,vacuumcleaner01,floortile01,necklace,doll,cabbage,stapler03a,hanger02a,laptop01a,nailpolish03b,blankImage,blankImage,vacuumcleaner01,,,,,,,,0,7,7,2,,,,,,,,,,,,,,,98.51314869999987,99.51285700000153,99.49621939999997,100.05226040000161,100.05226040000161,None,left,0.42029769999862765,107.60179690000041,None,107.60179690000041,None,108.0548902999999,None,left,0.33523739999873214,108.0548902999999,None,,,,,,,,,,,,,,,,,,,,,,,,,,,,,,,,,,,,,,,,,,,,,,,PPT57,001,2022-07-15_16h00.25.166,ABstudy,2022.1.4,59.88529570416393,
AB_Prac,Lag1_T1P_T2A,1,P,A,8,9,7,5,14,flower,Did you see the flower?,0.5,0.016,JPG\,razor01,axe01,binder03b,bowl01,kettle01,lettuce,lime,plasticflower01b,mitten04,pencilcase01,plunger02,strawbasket01,toothpick02,wallet02a,blankImage,blankImage,blankImage,plasticflower01b,,,,,,,,0,8,8,5,,,,,,,,,,,,,,,108.48931570000059,109.48938530000123,109.4728025000004,110.03179540000019,110.03179540000019,None,left,0.5634399999999005,117.14778520000073,None,117.14778520000073,None,117.7311264,None,right,0.2822660999991058,117.7311264,None,,,,,,,,,,,,,,,,,,,,,,,,,,,,,,,,,,,,,,,,,,,,,,,PPT57,001,2022-07-15_16h00.25.166,ABstudy,2022.1.4,59.88529570416393,
AB_Prac,Lag1_T1A_T2A,1,A,A,8,9,7,3,12,Moose,Did you see the Moose?,0.5,0.016,JPG\,clothespin03b,corkscrew03a,drillbit03a,fusilli03a,needlenosepliers01,perfume01a,pistachio,scrubbingbrush05b,spatula03,toothpastetube,hinge,toydinosaur,blankImage,blankImage,blankImage,blankImage,blankImage,None,,,,,,,,0,9,9,10,,,,,,,,,,,,,,,118.03332600000067,119.03219720000016,119.01565630000005,119.57272550000016,119.57272550000016,None,right,1.0098186999985046,125.69955830000072,None,125.69955830000072,None,126.74014290000014,None,right,0.2497153000003891,126.74014290000014,None,,,,,,,,,,,,,,,,,,,,,,,,,,,,,,,,,,,,,,,,,,,,,,,PPT57,001,2022-07-15_16h00.25.166,ABstudy,2022.1.4,59.88529570416393,
AB_Prac,Lag1_T1P_T2A,1,P,A,5,6,4,5,11,Webcam,Did you see the Webcam?,0.5,0.016,JPG\,pictureframe04,binder03b,straw,adjustablewrench01b,webcam,cane,hairdryer02a,icepack,kitchenscale01a,lifejacket,piggybank,blankImage,blankImage,blankImage,blankImage,blankImage,blankImage,webcam,,,,,,,,0,10,10,6,,,,,,,,,,,,,,,127.00720890000048,128.00777440000093,127.99122780000107,128.55765220000103,128.55765220000103,None,left,0.8148043000001053,134.20722000000023,None,134.20722000000023,None,135.04821400000037,None,right,0.24594259999867063,135.04821400000037,None,,,,,,,,,,,,,,,,,,,,,,,,,,,,,,,,,,,,,,,,,,,,,,,PPT57,001,2022-07-15_16h00.25.166,ABstudy,2022.1.4,59.88529570416393,
AB_Prac,Lag5_T1A_T2A,5,A,A,6,11,5,5,16,castle,Did you see the castle?,0.5,0.016,JPG\,tape02a,englishmuffin,flask,ladle02a,monitor,peach01,keychain,squeegee01b,telephone01b,whisk,walkman,syringe02,baguette01,coaster,box01a,coffeepot03a,blankImage,None,,,,,,,,0,11,11,11,,,,,,,,,,,,,,,135.31525600000168,136.31634200000008,136.29943850000018,136.8683344000001,136.8683344000001,None,right,0.6909085999996023,144.93095100000028,None,144.93095100000028,None,145.64199700000063,None,right,0.2677697999988595,145.64199700000063,None,,,,,,,,,,,,,,,,,,,,,,,,,,,,,,,,,,,,,,,,,,,,,,,PPT57,001,2022-07-15_16h00.25.166,ABstudy,2022.1.4,59.88529570416393,
,,,,,,,,,,,,,,,,,,,,,,,,,,,,,,,,,,,,,,,,,,,,,,,,,,,,,,,,,,,,,,,,,,,,,,,,,,,,145.94247840000025,None,space,25.831093799999508,145.94247840000025,None,,,,,,,,,,,,,,,,,,,,,,,,,,,,,,,,,,,,,,,,,PPT57,001,2022-07-15_16h00.25.166,ABstudy,2022.1.4,59.88529570416393,
AB,Lag1_T1A_T2P,1,A,P,6,7,5,3,10,Jellyfish,Did you see the Jellyfish?,0.12,0.016,JPG\,thermometer02b,avocado01,scissors01,tennisball01b,medal02b,banana01,stapler01,cigarette,potato02b,pineapple01a,blankImage,blankImage,blankImage,blankImage,blankImage,blankImage,blankImage,firehydrant,,,,,,,,,,,,0,0,0,255,,,,,,,,,,,,,,,,,,,,,,,,,,,,,,,,,,,172.37683890000153,173.3864480000011,173.36986340000112,173.95614410000053,173.95614410000053,None,175.2049319000016,None,right,1.152775999998994,175.2049319000016,None,176.38967880000018,None,left,0.8875415999991674,176.38967880000018,None,,,,,,,,,,,,,,,,,,,,,,,PPT57,001,2022-07-15_16h00.25.166,ABstudy,2022.1.4,59.88529570416393,
AB,Lag1_T1A_T2A,1,A,A,5,6,4,4,10,rose,Did you see the rose?,0.12,0.016,JPG\,sock01a,spoon01,alligator,comb02a,printer02,medal02b,lamp04a,cymbal,greenolive,computerkeyboard02,blankImage,blankImage,blankImage,blankImage,blankImage,blankImage,blankImage,cruiseship,,,,,,,,,,,,0,1,1,293,,,,,,,,,,,,,,,,,,,,,,,,,,,,,,,,,,,177.30713990000004,178.3079555000004,178.29130000000077,178.86641260000033,178.86641260000033,None,180.0844778999999,None,right,0.8093912999993336,180.0844778999999,None,180.91085960000055,None,right,0.3188961999985622,180.91085960000055,None,,,,,,,,,,,,,,,,,,,,,,,PPT57,001,2022-07-15_16h00.25.166,ABstudy,2022.1.4,59.88529570416393,
AB,Lag5_T1A_T2P,5,A,P,5,10,4,4,14,mail box,Did you see the mail box?,0.12,0.016,JPG\,button01,celery,birthdaycandle,apple07,avocado01,tennisball01b,dice05a,teabag,clock01a,stapler05,tomato01,scarf,orange,battery02b,blankImage,blankImage,blankImage,jeep,,,,,,,,,,,,0,2,2,263,,,,,,,,,,,,,,,,,,,,,,,,,,,,,,,,,,,181.26275220000025,182.26167780000105,182.2453415,182.8147108000012,182.8147108000012,None,184.5175844000005,None,right,0.7843503999993118,184.5175844000005,None,185.33178570000018,None,left,0.2656705999997939,185.33178570000018,None,,,,,,,,,,,,,,,,,,,,,,,PPT57,001,2022-07-15_16h00.25.166,ABstudy,2022.1.4,59.88529570416393,
AB,Lag5_T1P_T2P,5,P,P,7,12,6,3,15,mail box,Did you see the mail box?,0.12,0.016,JPG\,key01,apple07,ring01,leaf02a,hammer01,tableknife02,postalmailbox01,sponge01,baseball01a,thermometer02b,celery,stapler06,grape01,cucumber,tennisball01b,blankImage,blankImage,postalmailbox01,,,,,,,,,,,,0,3,3,113,,,,,,,,,,,,,,,,,,,,,,,,,,,,,,,,,,,185.61528140000155,186.61621980000018,186.59950970000136,187.1569683000016,187.1569683000016,None,189.06688320000103,None,left,0.43429379999906814,189.06688320000103,None,189.51902040000095,None,left,0.28009109999948123,189.51902040000095,None,,,,,,,,,,,,,,,,,,,,,,,PPT57,001,2022-07-15_16h00.25.166,ABstudy,2022.1.4,59.88529570416393,
AB,Lag1_T1P_T2P,1,P,P,5,6,4,3,9,hockey stick,Did you see the hockey stick?,0.12,0.016,JPG\,violin,pizza,toothbrush03b,pineapple01a,hockeystick,stapler03b,candy,dandelion,clock04,blankImage,blankImage,blankImage,blankImage,blankImage,blankImage,blankImage,blankImage,hockeystick,,,,,,,,,,,,0,4,4,63,,,,,,,,,,,,,,,,,,,,,,,,,,,,,,,,,,,189.81955600000038,190.82067740000093,190.80387190000147,191.3683058000006,191.3683058000006,None,192.5924429000006,None,left,0.6928300999989006,192.5924429000006,None,193.3062544000004,None,right,0.2591248999997333,193.3062544000004,None,,,,,,,,,,,,,,,,,,,,,,,PPT57,001,2022-07-15_16h00.25.166,ABstudy,2022.1.4,59.88529570416393,
AB,Lag5_T1P_T2P,5,P,P,5,10,4,5,15,scorpion,Did you see the scorpion?,0.12,0.016,JPG\,fan,tomato01,candy,screwdriver04b,scorpion,cd,thermometer02b,apple07,button01,stapler01,brownsugar,lighter01,clock01a,envelope03a,clock04,blankImage,blankImage,scorpion,,,,,,,,,,,,0,5,5,97,,,,,,,,,,,,,,,,,,,,,,,,,,,,,,,,,,,193.59095380000144,194.59089250000034,194.5741863000003,195.14215650000006,195.14215650000006,None,196.99257150000085,None,left,0.3892801999973017,196.99257150000085,None,197.41035740000007,None,left,0.24329219999890483,197.41035740000007,None,,,,,,,,,,,,,,,,,,,,,,,PPT57,001,2022-07-15_16h00.25.166,ABstudy,2022.1.4,59.88529570416393,
AB,Lag5_T1P_T2P,5,P,P,5,10,4,5,15,Ipad,Did you see the Ipad?,0.12,0.016,JPG\,fork03c,toothbrush03b,cellphone,fan,ipad02,clock01a,ring01,eraser,sunglasses04,stapler06,violin,brownsugar,blueberry01,pear01,pencil01,blankImage,blankImage,ipad02,,,,,,,,,,,,0,6,6,150,,,,,,,,,,,,,,,,,,,,,,,,,,,,,,,,,,,197.67817510000168,198.67839580000145,198.66147010000168,199.2206182000009,199.2206182000009,None,201.07791540000107,None,left,0.37541399999827263,201.07791540000107,None,201.4811019000008,None,left,0.3168179999975109,201.4811019000008,None,,,,,,,,,,,,,,,,,,,,,,,PPT57,001,2022-07-15_16h00.25.166,ABstudy,2022.1.4,59.88529570416393,
AB,Lag5_T1P_T2P,5,P,P,6,11,5,4,15,Witch hat,Did you see the Witch hat?,0.12,0.016,JPG\,pizza,watch02a,greenolive,cucumber,match,witchhat,scissors01,broom01,globe,cherry01,stapler03a,cigarette,microscope,cellphone,speaker04,blankImage,blankImage,witchhat,,,,,,,,,,,,0,7,7,101,,,,,,,,,,,,,,,,,,,,,,,,,,,,,,,,,,,201.81497240000135,202.81584170000133,202.7989819000013,203.37016370000129,203.37016370000129,None,205.25462570000127,None,left,0.5105217000000266,205.25462570000127,None,205.7852401,None,left,0.3238850999987335,205.7852401,None,,,,,,,,,,,,,,,,,,,,,,,PPT57,001,2022-07-15_16h00.25.166,ABstudy,2022.1.4,59.88529570416393,
AB,Lag5_T1P_T2A,5,P,A,8,13,7,4,17,Drum set,Did you see the Drum set?,0.12,0.016,JPG\,pencil01,microscope,banana01,computerkeyboard02,celery,cellphone,scissors01,drumset,book01b,onion,dice05a,binoculars01b,baseball01a,iron01b,screw02,fork03c,blankImage,drumset,,,,,,,,,,,,0,8,8,212,,,,,,,,,,,,,,,,,,,,,,,,,,,,,,,,,,,206.1358177000002,207.13662210000075,207.1201441000012,207.67175140000109,207.67175140000109,None,209.62175110000135,None,left,0.8719524999996793,209.62175110000135,None,210.5234816000011,None,right,0.2176897999997891,210.5234816000011,None,,,,,,,,,,,,,,,,,,,,,,,PPT57,001,2022-07-15_16h00.25.166,ABstudy,2022.1.4,59.88529570416393,
AB,Lag1_T1A_T2P,1,A,P,6,7,5,5,12,Piano,Did you see the Piano?,0.12,0.016,JPG\,toiletpaper01a,mushroom01,medal02b,sandal,rice,cd,stapler01,pizza,candle08b,garlic01a,toaster01,belt02a,blankImage,blankImage,blankImage,blankImage,blankImage,moose,,,,,,,,,,,,0,9,9,239,,,,,,,,,,,,,,,,,,,,,,,,,,,,,,,,,,,210.7748328000016,211.77476070000012,211.75801880000108,212.34238670000013,212.34238670000013,None,213.98675530000037,None,right,0.915052199998172,213.98675530000037,None,214.92775660000007,None,left,0.35850609999943117,214.92775660000007,None,,,,,,,,,,,,,,,,,,,,,,,PPT57,001,2022-07-15_16h00.25.166,ABstudy,2022.1.4,59.88529570416393,
AB,Lag1_T1P_T2P,1,P,P,7,8,6,3,11,cloud,Did you see the cloud?,0.12,0.016,JPG\,lighter01,hammer01,spoon01,chain01,cymbal,sponge01,cloud,stapler06,pig,watermelon01,cauliflower01,blankImage,blankImage,blankImage,blankImage,blankImage,blankImage,cloud,,,,,,,,,,,,0,10,10,36,,,,,,,,,,,,,,,,,,,,,,,,,,,,,,,,,,,215.31144200000017,216.31257520000145,216.29596330000095,216.85695710000073,216.85695710000073,None,218.26765810000143,None,left,1.2745474000003014,218.26765810000143,None,219.56597980000151,None,right,1.3199626999994507,219.56597980000151,None,,,,,,,,,,,,,,,,,,,,,,,PPT57,001,2022-07-15_16h00.25.166,ABstudy,2022.1.4,59.88529570416393,
AB,Lag5_T1P_T2P,5,P,P,6,11,5,5,16,Car,Did you see the Car?,0.12,0.016,JPG\,leaf02a,apple07,cd,pineapple01a,envelope03a,car,pig,canoftennisballs,rice,feather03a,stapler03a,balloon01b,avocado01,calculator01,watermelon01,teabag,blankImage,car,,,,,,,,,,,,0,11,11,127,,,,,,,,,,,,,,,,,,,,,,,,,,,,,,,,,,,220.91848140000002,221.9181419000015,221.90130000000136,222.46273110000038,222.46273110000038,None,224.45297700000083,None,left,0.35202379999827826,224.45297700000083,None,224.83753849999994,None,left,0.2636218999996345,224.83753849999994,None,,,,,,,,,,,,,,,,,,,,,,,PPT57,001,2022-07-15_16h00.25.166,ABstudy,2022.1.4,59.88529570416393,
AB,Lag5_T1A_T2P,5,A,P,5,10,4,5,15,parachute,Did you see the parachute?,0.12,0.016,JPG\,binoculars01b,speaker04,sandal,envelope03a,plate01b,comb02a,battery02b,chain01,measuringcup01,stapler03b,medal02b,lamp04a,tennisball01b,pizza,cigarette,blankImage,blankImage,knee,,,,,,,,,,,,0,12,12,264,,,,,,,,,,,,,,,,,,,,,,,,,,,,,,,,,,,225.15336730000126,226.15580870000122,226.13889010000094,226.7074373000014,226.7074373000014,None,228.5011325000014,None,right,0.76059339999847,228.5011325000014,None,229.29202930000065,None,right,0.2576805999979115,229.29202930000065,None,,,,,,,,,,,,,,,,,,,,,,,PPT57,001,2022-07-15_16h00.25.166,ABstudy,2022.1.4,59.88529570416393,
AB,Lag5_T1A_T2P,5,A,P,5,10,4,3,13,License Plate,Did you see the License Plate?,0.12,0.016,JPG\,tomato01,pen04b,shirt02,carrot01,lamp04a,key01,pizza,avocado01,sewingmachine01a,stapler06,iron01b,book01b,chain01,blankImage,blankImage,blankImage,blankImage,porcupine,,,,,,,,,,,,0,13,13,270,,,,,,,,,,,,,,,,,,,,,,,,,,,,,,,,,,,229.5780179000012,230.59344870000132,230.56003860000055,231.1273824,231.1273824,None,232.75797260000036,None,right,1.0159454999975424,232.75797260000036,None,233.79664650000086,None,left,0.2812934999983554,233.79664650000086,None,,,,,,,,,,,,,,,,,,,,,,,PPT57,001,2022-07-15_16h00.25.166,ABstudy,2022.1.4,59.88529570416393,
AB,Lag5_T1P_T2P,5,P,P,5,10,4,5,15,mouse,Did you see the mouse?,0.12,0.016,JPG\,pineapple01a,leaf02a,grape01,toiletpaper01a,mouse,tennisball01b,spoon01,chain01,pig,stapler03a,ring01,lemon02,dice05a,pizza,potato02b,blankImage,blankImage,mouse,,,,,,,,,,,,0,14,14,94,,,,,,,,,,,,,,,,,,,,,,,,,,,,,,,,,,,234.09696609999992,235.0978887000001,235.08116060000066,235.64211830000022,235.64211830000022,None,237.47096540000166,None,left,0.37486039999930654,237.47096540000166,None,237.86716850000084,None,left,0.27461769999717944,237.86716850000084,None,,,,,,,,,,,,,,,,,,,,,,,PPT57,001,2022-07-15_16h00.25.166,ABstudy,2022.1.4,59.88529570416393,
AB,Lag5_T1P_T2P,5,P,P,5,10,4,5,15,penguin,Did you see the penguin?,0.12,0.016,JPG\,watermelon01,cigarette,pintofbeer,cymbal,penguin,feather03a,cherry01,broom01,battery02b,stapler05,baseball01a,iron01b,garlic01a,computerkeyboard02,pig,blankImage,blankImage,penguin,,,,,,,,,,,,0,15,15,137,,,,,,,,,,,,,,,,,,,,,,,,,,,,,,,,,,,238.16780030000155,239.1685675000008,239.15204730000005,239.72317660000044,239.72317660000044,None,241.47158149999996,None,left,0.42241289999765286,241.47158149999996,None,241.9212559000007,None,left,0.3005842999991728,241.9212559000007,None,,,,,,,,,,,,,,,,,,,,,,,PPT57,001,2022-07-15_16h00.25.166,ABstudy,2022.1.4,59.88529570416393,
AB,Lag5_T1A_T2P,5,A,P,7,12,6,4,16,flower,Did you see the flower?,0.12,0.016,JPG\,printer02,envelope03a,potato02b,calculator01,tableknife02,cigarette,ashtray01,pig,broom01,greenolive,candle08b,stapler03a,strawberry,candle01,foosballtable,tennisball01b,blankImage,calendar,,,,,,,,,,,,0,16,16,282,,,,,,,,,,,,,,,,,,,,,,,,,,,,,,,,,,,242.23854960000062,243.23942890000035,243.22253040000032,243.78852140000163,243.78852140000163,None,245.83123670000168,None,right,0.6539639999991778,245.83123670000168,None,246.50919870000143,None,left,0.2801065999974526,246.50919870000143,None,,,,,,,,,,,,,,,,,,,,,,,PPT57,001,2022-07-15_16h00.25.166,ABstudy,2022.1.4,59.88529570416393,
AB,Lag5_T1A_T2P,5,A,P,7,12,6,4,16,hand,Did you see the hand?,0.12,0.016,JPG\,celery,tennisball01b,calculator01,pear01,screw02,orange,button01,cellphone,onion,apple07,iron01b,stapler05,banana01,paintbrush01,dandelion,toothbrush03b,blankImage,bull,,,,,,,,,,,,0,17,17,281,,,,,,,,,,,,,,,,,,,,,,,,,,,,,,,,,,,246.8095237000016,247.81045050000102,247.79384610000125,248.35651620000135,248.35651620000135,None,250.3130127000004,None,right,0.6599627999985387,250.3130127000004,None,250.99717340000097,None,left,0.1999123999976291,250.99717340000097,None,,,,,,,,,,,,,,,,,,,,,,,PPT57,001,2022-07-15_16h00.25.166,ABstudy,2022.1.4,59.88529570416393,
AB,Lag1_T1A_T2P,1,A,P,8,9,7,5,14,clock,Did you see the clock?,0.12,0.016,JPG\,speaker04,sewingmachine01a,eraser,violin,globe,belt02a,sunglasses04,cymbal,stapler01,greenolive,alligator,pear01,watch02a,screwdriver04b,blankImage,blankImage,blankImage,peacock,,,,,,,,,,,,0,18,18,240,,,,,,,,,,,,,,,,,,,,,,,,,,,,,,,,,,,251.21392750000086,252.2148769000014,252.1981874000012,252.7672846000005,252.7672846000005,None,254.55732250000074,None,right,0.7924383999979909,254.55732250000074,None,255.36789750000025,None,left,0.1659892999996373,255.36789750000025,None,,,,,,,,,,,,,,,,,,,,,,,PPT57,001,2022-07-15_16h00.25.166,ABstudy,2022.1.4,59.88529570416393,
AB,Lag5_T1A_T2P,5,A,P,6,11,5,3,14,Kiwi,Did you see the Kiwi?,0.12,0.016,JPG\,paintbrush01,dice05a,watermelon01,broccoli01a,hammer01,leaf02a,match,tennisball01b,lemon02,fan,stapler06,grape01,envelope03a,sponge01,blankImage,blankImage,blankImage,granolabar01,,,,,,,,,,,,0,19,19,261,,,,,,,,,,,,,,,,,,,,,,,,,,,,,,,,,,,255.55294180000055,256.55268930000057,256.5358476000001,257.09533420000116,257.09533420000116,None,258.8224736000011,None,right,0.6150896999988618,258.8224736000011,None,259.455433000001,None,right,0.2386289999994915,259.455433000001,None,,,,,,,,,,,,,,,,,,,,,,,PPT57,001,2022-07-15_16h00.25.166,ABstudy,2022.1.4,59.88529570416393,
AB,Lag5_T1A_T2P,5,A,P,5,10,4,4,14,Chefs hat,Did you see the Chefs hat?,0.12,0.016,JPG\,candle01,fork03c,plate01b,violin,computerkeyboard02,candy,calculator01,paintbrush01,cherry01,stapler06,teabag,banana01,cd,lighter01,blankImage,blankImage,blankImage,horseshoe,,,,,,,,,,,,0,20,20,278,,,,,,,,,,,,,,,,,,,,,,,,,,,,,,,,,,,259.7229031000006,260.72346240000115,260.70678770000086,261.26127710000037,261.26127710000037,None,263.00322700000106,None,right,0.730524399998103,263.00322700000106,None,263.7598873000006,None,left,0.21305599999868718,263.7598873000006,None,,,,,,,,,,,,,,,,,,,,,,,PPT57,001,2022-07-15_16h00.25.166,ABstudy,2022.1.4,59.88529570416393,
AB,Lag1_T1P_T2A,1,P,A,7,8,6,4,12,gate,Did you see the gate?,0.12,0.016,JPG\,pen04b,speaker04,lighter01,cherry01,pintofbeer,onion,entrancegate,toothbrush03b,broom01,sewingmachine01a,book01b,iron01b,blankImage,blankImage,blankImage,blankImage,blankImage,entrancegate,,,,,,,,,,,,0,21,21,187,,,,,,,,,,,,,,,,,,,,,,,,,,,,,,,,,,,263.9931598000003,264.99434010000004,264.9777384000008,265.53260170000067,265.53260170000067,None,267.00493430000097,None,left,0.7360032999986288,267.00493430000097,None,267.76408830000037,None,left,0.1608686999989004,267.76408830000037,None,,,,,,,,,,,,,,,,,,,,,,,PPT57,001,2022-07-15_16h00.25.166,ABstudy,2022.1.4,59.88529570416393,
AB,Lag5_T1P_T2A,5,P,A,7,12,6,5,17,flower,Did you see the flower?,0.12,0.016,JPG\,cellphone,tomato01,comb02a,candy,celery,cucumber,craneflower,fan,feather03a,pen04b,lemon02,blueberry01,plate01b,cherry01,baseball01a,candle08b,blankImage,craneflower,,,,,,,,,,,,0,22,22,211,,,,,,,,,,,,,,,,,,,,,,,,,,,,,,,,,,,267.9472568000001,268.94832060000044,268.93169540000054,269.4911111000001,269.4911111000001,None,271.58458210000026,None,right,0.39692399999876216,271.58458210000026,None,272.0013792000009,None,left,0.21179749999828346,272.0013792000009,None,,,,,,,,,,,,,,,,,,,,,,,PPT57,001,2022-07-15_16h00.25.166,ABstudy,2022.1.4,59.88529570416393,
AB,Lag1_T1P_T2P,1,P,P,5,6,4,5,11,football,Did you see the football?,0.12,0.016,JPG\,globe,belt02a,sponge01,violin,soccerball,stapler01,clock01a,microscope,balloon01b,scarf,teabag,blankImage,blankImage,blankImage,blankImage,blankImage,blankImage,soccerball,,,,,,,,,,,,0,23,23,26,,,,,,,,,,,,,,,,,,,,,,,,,,,,,,,,,,,272.2351942000005,273.2360467000017,273.2191169000016,273.7901488000007,273.7901488000007,None,275.13162490000104,None,left,0.6586550999982137,275.13162490000104,None,275.82183950000035,None,right,0.23111519999838492,275.82183950000035,None,,,,,,,,,,,,,,,,,,,,,,,PPT57,001,2022-07-15_16h00.25.166,ABstudy,2022.1.4,59.88529570416393,
AB,Lag1_T1P_T2A,1,P,A,7,8,6,4,12,Steering wheel,Did you see the Steering wheel?,0.12,0.016,JPG\,alligator,banana01,apple07,tomato01,button01,spoon01,steeringwheel,fork03c,canoftennisballs,potato02b,grape01,leaf02a,blankImage,blankImage,blankImage,blankImage,blankImage,steeringwheel,,,,,,,,,,,,0,24,24,198,,,,,,,,,,,,,,,,,,,,,,,,,,,,,,,,,,,276.07423740000013,277.0896433000016,277.0562370000007,277.5568594000015,277.5568594000015,None,279.10927640000045,None,left,0.5045453999991878,279.10927640000045,None,279.6419915000006,None,left,0.6831676000001607,279.6419915000006,None,,,,,,,,,,,,,,,,,,,,,,,PPT57,001,2022-07-15_16h00.25.166,ABstudy,2022.1.4,59.88529570416393,
AB,Lag1_T1P_T2P,1,P,P,6,7,5,4,11,no parking sign,Did you see the no parking sign?,0.12,0.016,JPG\,fork03c,belt02a,grape01,computerkeyboard02,lemon02,parkingsign,stapler05,toiletpaper01a,toaster01,lipstick02a,book01b,blankImage,blankImage,blankImage,blankImage,blankImage,blankImage,parkingsign,,,,,,,,,,,,0,25,25,47,,,,,,,,,,,,,,,,,,,,,,,,,,,,,,,,,,,280.34356750000006,281.34370410000156,281.3272856000003,281.8832676000002,281.8832676000002,None,283.27180790000057,None,left,0.6613722999991296,283.27180790000057,None,283.9631141000009,None,right,0.19416509999791742,283.9631141000009,None,,,,,,,,,,,,,,,,,,,,,,,PPT57,001,2022-07-15_16h00.25.166,ABstudy,2022.1.4,59.88529570416393,
AB,Lag1_T1P_T2A,1,P,A,6,7,5,4,11,bird,Did you see the bird?,0.12,0.016,JPG\,foosballtable,candy,envelope03a,microscope,pencil01,cedarwaxwing,scissors01,watermelon01,grape01,dandelion,pineapple01a,blankImage,blankImage,blankImage,blankImage,blankImage,blankImage,cedarwaxwing,,,,,,,,,,,,0,26,26,182,,,,,,,,,,,,,,,,,,,,,,,,,,,,,,,,,,,284.1800914000014,285.1810591000012,285.16456390000167,285.6647367000005,285.6647367000005,None,287.1036242000009,None,left,0.6939738000000943,287.1036242000009,None,287.81712250000055,None,right,0.15633129999878292,287.81712250000055,None,,,,,,,,,,,,,,,,,,,,,,,PPT57,001,2022-07-15_16h00.25.166,ABstudy,2022.1.4,59.88529570416393,
AB,Lag1_T1P_T2P,1,P,P,7,8,6,3,11,swing,Did you see the swing?,0.12,0.016,JPG\,sewingmachine01a,thermometer02b,sponge01,eraser,broccoli01a,fork03c,swing,stapler03b,belt02a,medal02b,pineapple01a,blankImage,blankImage,blankImage,blankImage,blankImage,blankImage,swing,,,,,,,,,,,,0,27,27,30,,,,,,,,,,,,,,,,,,,,,,,,,,,,,,,,,,,288.00062380000054,289.00143780000144,288.9850073000016,289.55450680000104,289.55450680000104,None,290.96203530000093,None,left,0.34785569999803556,290.96203530000093,None,291.3370207000007,None,left,0.14021409999804746,291.3370207000007,None,,,,,,,,,,,,,,,,,,,,,,,PPT57,001,2022-07-15_16h00.25.166,ABstudy,2022.1.4,59.88529570416393,
AB,Lag5_T1P_T2P,5,P,P,6,11,5,4,15,shovel,Did you see the shovel?,0.12,0.016,JPG\,carrot01,watch02a,clock04,microscope,toiletpaper01a,shovel01,alligator,ring01,brick,watermelon01,stapler03b,pencil01,measuringcup01,balloon01b,computerkeyboard02,blankImage,blankImage,shovel01,,,,,,,,,,,,0,28,28,139,,,,,,,,,,,,,,,,,,,,,,,,,,,,,,,,,,,291.5042650000014,292.5051948,292.4883038000007,293.04715750000105,293.04715750000105,None,294.8652671,None,left,0.34771269999873766,294.8652671,None,295.2410634000007,None,left,0.13208440000016708,295.2410634000007,None,,,,,,,,,,,,,,,,,,,,,,,PPT57,001,2022-07-15_16h00.25.166,ABstudy,2022.1.4,59.88529570416393,
AB,Lag5_T1P_T2P,5,P,P,6,11,5,3,14,fish,Did you see the fish?,0.12,0.016,JPG\,broom01,globe,cellphone,tableknife02,cauliflower01,holdfast,ring01,alligator,rice,toaster01,stapler03b,grape01,microscope,cucumber,blankImage,blankImage,blankImage,holdfast,,,,,,,,,,,,0,29,29,133,,,,,,,,,,,,,,,,,,,,,,,,,,,,,,,,,,,295.3912272000016,296.39222680000057,296.37556770000083,296.92998179999995,296.92998179999995,None,298.6929274000013,None,left,0.3452832999992097,298.6929274000013,None,299.0613527000005,None,left,0.12754799999856914,299.0613527000005,None,,,,,,,,,,,,,,,,,,,,,,,PPT57,001,2022-07-15_16h00.25.166,ABstudy,2022.1.4,59.88529570416393,
AB,Lag5_T1P_T2P,5,P,P,8,13,7,5,18,bed,Did you see the bed?,0.12,0.016,JPG\,pencil01,broccoli01a,button01,sponge01,watermelon01,lipstick02a,comb02a,bed,lighter01,sock01a,spoon01,blueberry01,stapler04b,onion,grape01,avocado01,blankImage,bed,,,,,,,,,,,,0,30,30,124,,,,,,,,,,,,,,,,,,,,,,,,,,,,,,,,,,,299.21192930000143,300.2125638000016,300.1960753000003,300.75256660000014,300.75256660000014,None,302.7803947000011,None,left,0.3532015999990108,302.7803947000011,None,303.1655627,None,left,0.12803960000019288,303.1655627,None,,,,,,,,,,,,,,,,,,,,,,,PPT57,001,2022-07-15_16h00.25.166,ABstudy,2022.1.4,59.88529570416393,
AB,Lag1_T1P_T2P,1,P,P,6,7,5,5,12,bat,Did you see the bat?,0.12,0.016,JPG\,comb02a,key01,medal02b,battery02b,lighter01,bat,stapler05,sandal,pig,cellphone,computerkeyboard02,calculator01,blankImage,blankImage,blankImage,blankImage,blankImage,bat,,,,,,,,,,,,0,31,31,35,,,,,,,,,,,,,,,,,,,,,,,,,,,,,,,,,,,303.3171301000002,304.31684160000077,304.3001694000013,304.85782570000083,304.85782570000083,None,306.4052582000004,None,left,0.5043416999997135,306.4052582000004,None,306.9360215000015,None,left,0.1498212999995303,306.9360215000015,None,,,,,,,,,,,,,,,,,,,,,,,PPT57,001,2022-07-15_16h00.25.166,ABstudy,2022.1.4,59.88529570416393,
AB,Lag5_T1P_T2P,5,P,P,6,11,5,5,16,sword,Did you see the sword?,0.12,0.016,JPG\,chain01,speaker04,avocado01,watermelon01,scarf,sword01,lamp04a,fork03c,toaster01,slipper03b,stapler03a,cucumber,teabag,ashtray01,computerkeyboard02,book01b,blankImage,sword01,,,,,,,,,,,,0,32,32,143,,,,,,,,,,,,,,,,,,,,,,,,,,,,,,,,,,,307.1030305000004,308.10403150000093,308.0870429000006,308.6463476000008,308.6463476000008,None,310.6403011000002,None,left,0.3651656999991246,310.6403011000002,None,311.02353140000014,None,left,0.31781859999864537,311.02353140000014,None,,,,,,,,,,,,,,,,,,,,,,,PPT57,001,2022-07-15_16h00.25.166,ABstudy,2022.1.4,59.88529570416393,
AB,Lag5_T1P_T2A,5,P,A,7,12,6,5,17,shoulder,Did you see the shoulder?,0.12,0.016,JPG\,battery02b,sunglasses04,pear01,tennisball01b,clock01a,speaker04,shoulder,spoon01,alligator,pineapple01a,avocado01,grape01,blueberry01,violin,strawberry,sock01a,blankImage,shoulder,,,,,,,,,,,,0,33,33,224,,,,,,,,,,,,,,,,,,,,,,,,,,,,,,,,,,,311.37381200000164,312.374947100001,312.3580142999999,312.92121550000047,312.92121550000047,None,314.9233097000015,None,left,0.6026869999986957,314.9233097000015,None,315.5447520000016,None,right,0.3008100999995804,315.5447520000016,None,,,,,,,,,,,,,,,,,,,,,,,PPT57,001,2022-07-15_16h00.25.166,ABstudy,2022.1.4,59.88529570416393,
AB,Lag1_T1P_T2P,1,P,P,8,9,7,3,12,Wheelchair,Did you see the Wheelchair?,0.12,0.016,JPG\,cigarette,pig,banana01,strawberry,clock01a,plate01b,spoon01,wheelchair,stapler03b,pineapple01a,chain01,paintbrush01,blankImage,blankImage,blankImage,blankImage,blankImage,wheelchair,,,,,,,,,,,,0,34,34,27,,,,,,,,,,,,,,,,,,,,,,,,,,,,,,,,,,,315.87855110000055,316.8791228000009,316.86261100000047,317.4159161000007,317.4159161000007,None,318.9476231000008,None,left,1.1070282999990013,318.9476231000008,None,320.0825853000006,None,left,0.31443229999786126,320.0825853000006,None,,,,,,,,,,,,,,,,,,,,,,,PPT57,001,2022-07-15_16h00.25.166,ABstudy,2022.1.4,59.88529570416393,
AB,Lag1_T1A_T2P,1,A,P,6,7,5,3,10,curtain,Did you see the curtain?,0.12,0.016,JPG\,carrot01,greenolive,fork03c,chain01,ashtray01,watermelon01,stapler06,printer02,comb02a,toaster01,blankImage,blankImage,blankImage,blankImage,blankImage,blankImage,blankImage,birdhouse,,,,,,,,,,,,0,35,35,249,,,,,,,,,,,,,,,,,,,,,,,,,,,,,,,,,,,320.41628720000153,321.41731170000094,321.4005590000015,321.95662170000105,321.95662170000105,None,323.20914790000097,None,right,0.7404483999980584,323.20914790000097,None,323.9696670000012,None,left,0.2114966999979515,323.9696670000012,None,,,,,,,,,,,,,,,,,,,,,,,PPT57,001,2022-07-15_16h00.25.166,ABstudy,2022.1.4,59.88529570416393,
AB,Lag5_T1P_T2P,5,P,P,7,12,6,3,15,lips,Did you see the lips?,0.12,0.016,JPG\,cigarette,fork03c,greenolive,broccoli01a,avocado01,tennisball01b,lip,leaf02a,pig,fan,clock01a,stapler03a,envelope03a,birthdaycandle,teabag,blankImage,blankImage,lip,,,,,,,,,,,,0,36,36,95,,,,,,,,,,,,,,,,,,,,,,,,,,,,,,,,,,,324.20334960000037,325.2043663000004,325.18773450000117,325.74190460000136,325.74190460000136,None,327.60019080000166,None,left,0.3247897000001103,327.60019080000166,None,327.95706770000106,None,left,0.1523773999979312,327.95706770000106,None,,,,,,,,,,,,,,,,,,,,,,,PPT57,001,2022-07-15_16h00.25.166,ABstudy,2022.1.4,59.88529570416393,
AB,Lag1_T1P_T2A,1,P,A,7,8,6,3,11,Snowshoe,Did you see the Snowshoe?,0.12,0.016,JPG\,birthdaycandle,mushroom01,strawberry,match,cherry01,eraser,snowshoe,thermometer02b,sock01a,ring01,feather03a,blankImage,blankImage,blankImage,blankImage,blankImage,blankImage,snowshoe,,,,,,,,,,,,0,37,37,194,,,,,,,,,,,,,,,,,,,,,,,,,,,,,,,,,,,328.1724240000003,329.17489130000104,329.1581799000014,329.6586580000003,329.6586580000003,None,331.02558950000093,None,right,0.6679671999972925,331.02558950000093,None,331.71077160000095,None,right,0.22267359999932523,331.71077160000095,None,,,,,,,,,,,,,,,,,,,,,,,PPT57,001,2022-07-15_16h00.25.166,ABstudy,2022.1.4,59.88529570416393,
AB,Lag5_T1P_T2P,5,P,P,6,11,5,4,15,shower,Did you see the shower?,0.12,0.016,JPG\,dice05a,watch02a,pig,lighter01,button01,shower,paintbrush01,microscope,plate01b,pen04b,stapler05,weight04a,carrot01,shirt02,globe,blankImage,blankImage,shower,,,,,,,,,,,,0,38,38,121,,,,,,,,,,,,,,,,,,,,,,,,,,,,,,,,,,,331.9611663000014,332.9619661000015,332.9452336000013,333.5045592000006,333.5045592000006,None,335.42444910000086,None,left,0.3501312999997026,335.42444910000086,None,335.7981318000002,None,left,0.1430408999985957,335.7981318000002,None,,,,,,,,,,,,,,,,,,,,,,,PPT57,001,2022-07-15_16h00.25.166,ABstudy,2022.1.4,59.88529570416393,
AB,Lag1_T1P_T2P,1,P,P,5,6,4,5,11,owl,Did you see the owl?,0.12,0.016,JPG\,cellphone,tomato01,comb02a,candy,barnowl,stapler03a,toaster01,fan,feather03a,pen04b,lemon02,blankImage,blankImage,blankImage,blankImage,blankImage,blankImage,barnowl,,,,,,,,,,,,0,39,39,33,,,,,,,,,,,,,,,,,,,,,,,,,,,,,,,,,,,335.96890800000074,336.9825701000009,336.94931110000107,337.50715390000005,337.50715390000005,None,338.91825560000143,None,left,0.7914789999977074,338.91825560000143,None,339.7354503000006,None,right,0.19065879999834578,339.7354503000006,None,,,,,,,,,,,,,,,,,,,,,,,PPT57,001,2022-07-15_16h00.25.166,ABstudy,2022.1.4,59.88529570416393,
AB,Lag1_T1P_T2P,1,P,P,8,9,7,3,12,mail box,Did you see the mail box?,0.12,0.016,JPG\,paintbrush01,dice05a,watermelon01,broccoli01a,hammer01,leaf02a,match,mailbox01,stapler05,fan,lipstick02a,grape01,blankImage,blankImage,blankImage,blankImage,blankImage,mailbox01,,,,,,,,,,,,0,40,40,20,,,,,,,,,,,,,,,,,,,,,,,,,,,,,,,,,,,339.95244940000157,340.9534082000009,340.93658030000006,341.49032980000084,341.49032980000084,None,343.0196655,None,right,0.6413244999985181,343.0196655,None,343.68921000000046,None,left,0.1958569999987958,343.68921000000046,None,,,,,,,,,,,,,,,,,,,,,,,PPT57,001,2022-07-15_16h00.25.166,ABstudy,2022.1.4,59.88529570416393,
AB,Lag1_T1P_T2A,1,P,A,6,7,5,5,12,foot,Did you see the foot?,0.12,0.016,JPG\,watermelon01,cigarette,weight04a,cymbal,cauliflower01,foot,cherry01,broom01,battery02b,key01,baseball01a,iron01b,blankImage,blankImage,blankImage,blankImage,blankImage,foot,,,,,,,,,,,,0,41,41,188,,,,,,,,,,,,,,,,,,,,,,,,,,,,,,,,,,,343.91052579999996,344.9239135000007,344.8904011000013,345.45799780000016,345.45799780000016,None,346.98152180000034,None,left,0.6479886999986775,346.98152180000034,None,347.6598517000002,None,right,0.13720309999735036,347.6598517000002,None,,,,,,,,,,,,,,,,,,,,,,,PPT57,001,2022-07-15_16h00.25.166,ABstudy,2022.1.4,59.88529570416393,
AB,Lag5_T1P_T2A,5,P,A,5,10,4,5,15,Shield,Did you see the Shield?,0.12,0.016,JPG\,cigarette,fork03c,greenolive,broccoli01a,shield02,tennisball01b,balloon01b,leaf02a,pig,fan,clock01a,strawberry,envelope03a,birthdaycandle,teabag,blankImage,blankImage,shield02,,,,,,,,,,,,0,42,42,223,,,,,,,,,,,,,,,,,,,,,,,,,,,,,,,,,,,347.82693990000007,348.82777420000093,348.81105170000046,349.3659200000002,349.3659200000002,None,351.236892500001,None,left,0.9127768999987893,351.236892500001,None,352.1811131000013,None,right,0.05635139999867533,352.1811131000013,None,,,,,,,,,,,,,,,,,,,,,,,PPT57,001,2022-07-15_16h00.25.166,ABstudy,2022.1.4,59.88529570416393,
AB,Lag5_T1P_T2P,5,P,P,5,10,4,4,14,License Plate,Did you see the License Plate?,0.12,0.016,JPG\,toaster01,chain01,sponge01,baseball01a,licenseplate,belt02a,book01b,iron01b,grape01,stapler06,celery,onion,mushroom01,toothbrush03b,blankImage,blankImage,blankImage,licenseplate,,,,,,,,,,,,0,43,43,120,,,,,,,,,,,,,,,,,,,,,,,,,,,,,,,,,,,352.2653278000016,353.2656227000007,353.2488798000013,353.81369500000073,353.81369500000073,None,355.5402759000008,None,left,0.3376656999971601,355.5402759000008,None,355.9014595000008,None,left,0.1435591999979806,355.9014595000008,None,,,,,,,,,,,,,,,,,,,,,,,PPT57,001,2022-07-15_16h00.25.166,ABstudy,2022.1.4,59.88529570416393,
AB,Lag1_T1A_T2P,1,A,P,5,6,4,3,9,Stool,Did you see the Stool?,0.12,0.016,JPG\,cherry01,cymbal,envelope03a,foosballtable,shirt02,stapler01,sewingmachine01a,candle08b,battery02b,blankImage,blankImage,blankImage,blankImage,blankImage,blankImage,blankImage,blankImage,hulahoop,,,,,,,,,,,,0,44,44,236,,,,,,,,,,,,,,,,,,,,,,,,,,,,,,,,,,,356.06778680000025,357.06930490000013,357.0526836000008,357.6094331000004,357.6094331000004,None,358.768687400001,None,right,0.7006031999990228,358.768687400001,None,359.4884933000012,None,right,0.21309889999974985,359.4884933000012,None,,,,,,,,,,,,,,,,,,,,,,,PPT57,001,2022-07-15_16h00.25.166,ABstudy,2022.1.4,59.88529570416393,
AB,Lag5_T1P_T2P,5,P,P,5,10,4,4,14,Salt shaker,Did you see the Salt shaker?,0.12,0.016,JPG\,fork03c,belt02a,grape01,computerkeyboard02,saltshaker03a,printer02,broom01,toiletpaper01a,toaster01,stapler01,book01b,blueberry01,spoon01,apple07,blankImage,blankImage,blankImage,saltshaker03a,,,,,,,,,,,,0,45,45,96,,,,,,,,,,,,,,,,,,,,,,,,,,,,,,,,,,,359.72259830000075,360.7229711,360.70636860000013,361.2576799000017,361.2576799000017,None,363.0257305000014,None,left,0.49931009999818343,363.0257305000014,None,363.54243400000087,None,right,0.27813029999742866,363.54243400000087,None,,,,,,,,,,,,,,,,,,,,,,,PPT57,001,2022-07-15_16h00.25.166,ABstudy,2022.1.4,59.88529570416393,
AB,Lag5_T1P_T2A,5,P,A,6,11,5,5,16,fish,Did you see the fish?,0.12,0.016,JPG\,cucumber,ring01,lipstick02a,microscope,violin,redlionfish,celery,lighter01,cherry01,sewingmachine01a,belt02a,key01,binoculars01b,medal02b,watermelon01,dice05a,blankImage,redlionfish,,,,,,,,,,,,0,46,46,221,,,,,,,,,,,,,,,,,,,,,,,,,,,,,,,,,,,363.87885200000164,364.89375530000143,364.8771413000013,365.43613260000166,365.43613260000166,None,367.33464660000027,None,right,0.48626599999988684,367.33464660000027,None,367.8468578000011,None,right,0.1747323999989021,367.8468578000011,None,,,,,,,,,,,,,,,,,,,,,,,PPT57,001,2022-07-15_16h00.25.166,ABstudy,2022.1.4,59.88529570416393,
AB,Lag1_T1P_T2P,1,P,P,8,9,7,3,12,Sheep,Did you see the Sheep?,0.12,0.016,JPG\,celery,orange,scissors01,balloon01b,avocado01,printer02,mushroom01,sheep,stapler03b,dice05a,ashtray01,fan,blankImage,blankImage,blankImage,blankImage,blankImage,sheep,,,,,,,,,,,,0,47,47,71,,,,,,,,,,,,,,,,,,,,,,,,,,,,,,,,,,,368.0463866000009,369.04807430000074,369.0311088000017,369.58740780000153,369.58740780000153,None,371.12841110000045,None,left,0.5883017999985896,371.12841110000045,None,371.73393560000113,None,right,0.23938189999898896,371.73393560000113,None,,,,,,,,,,,,,,,,,,,,,,,PPT57,001,2022-07-15_16h00.25.166,ABstudy,2022.1.4,59.88529570416393,
AB,Lag1_T1P_T2P,1,P,P,6,7,5,4,11,American football,Did you see the American football?,0.12,0.016,JPG\,toaster01,garlic01a,faucet,fan,comb02a,football,stapler06,watch02a,onion,blueberry01,toiletpaper01a,blankImage,blankImage,blankImage,blankImage,blankImage,blankImage,football,,,,,,,,,,,,0,48,48,12,,,,,,,,,,,,,,,,,,,,,,,,,,,,,,,,,,,372.00547760000154,373.0183769000014,372.98504890000004,373.55376310000065,373.55376310000065,None,374.9202972000003,None,left,0.4681555999995908,374.9202972000003,None,375.4208419000006,None,left,0.19294339999760268,375.4208419000006,None,,,,,,,,,,,,,,,,,,,,,,,PPT57,001,2022-07-15_16h00.25.166,ABstudy,2022.1.4,59.88529570416393,
AB,Lag5_T1P_T2P,5,P,P,5,10,4,5,15,sword fish,Did you see the sword fish?,0.12,0.016,JPG\,scissors01,balloon01b,eraser,feather03a,swordfish,candle01,measuringcup01,calculator01,thermometer02b,stapler04b,pear01,carrot01,globe,baseball01a,leaf02a,blankImage,blankImage,swordfish,,,,,,,,,,,,0,49,49,160,,,,,,,,,,,,,,,,,,,,,,,,,,,,,,,,,,,375.637855500001,376.6388147000016,376.62223630000153,377.17489410000053,377.17489410000053,None,379.04388370000015,None,left,0.36144659999990836,379.04388370000015,None,379.42509210000026,None,left,0.17944799999895622,379.42509210000026,None,,,,,,,,,,,,,,,,,,,,,,,PPT57,001,2022-07-15_16h00.25.166,ABstudy,2022.1.4,59.88529570416393,
AB,Lag5_T1A_T2A,5,A,A,6,11,5,3,14,mirror,Did you see the mirror?,0.12,0.016,JPG\,foosballtable,candy,envelope03a,microscope,pencil01,leaf02a,scissors01,watermelon01,grape01,dandelion,pineapple01a,hammer01,celery,thermometer02b,blankImage,blankImage,blankImage,shower,,,,,,,,,,,,0,50,50,305,,,,,,,,,,,,,,,,,,,,,,,,,,,,,,,,,,,379.6252052,380.6262579000013,380.6093195000012,381.10975690000123,381.10975690000123,None,382.9144924000011,None,right,0.42623969999840483,382.9144924000011,None,383.3622282000015,None,right,0.23465779999969527,383.3622282000015,None,,,,,,,,,,,,,,,,,,,,,,,PPT57,001,2022-07-15_16h00.25.166,ABstudy,2022.1.4,59.88529570416393,
AB,Lag1_T1A_T2P,1,A,P,8,9,7,4,13,nose,Did you see the nose?,0.12,0.016,JPG\,pizza,strawberry,potato02b,speaker04,battery02b,iron01b,dice05a,cellphone,stapler06,banana01,medal02b,baseball01a,toaster01,blankImage,blankImage,blankImage,blankImage,cow,,,,,,,,,,,,0,51,51,231,,,,,,,,,,,,,,,,,,,,,,,,,,,,,,,,,,,383.6291062,384.63019090000125,384.6134852000014,385.18624440000167,385.18624440000167,None,386.82180860000153,None,right,0.5515960999982781,386.82180860000153,None,387.3996465,None,right,0.3172015999989526,387.3996465,None,,,,,,,,,,,,,,,,,,,,,,,PPT57,001,2022-07-15_16h00.25.166,ABstudy,2022.1.4,59.88529570416393,
AB,Lag5_T1P_T2P,5,P,P,8,13,7,5,18,popcorn,Did you see the popcorn?,0.12,0.016,JPG\,toaster01,garlic01a,hairclip03,fan,comb02a,apple07,orange,popcorn,onion,blueberry01,toiletpaper01a,fork03c,stapler06,pineapple01a,scarf,eraser,blankImage,popcorn,,,,,,,,,,,,0,52,52,155,,,,,,,,,,,,,,,,,,,,,,,,,,,,,,,,,,,387.75006230000145,388.7507695000004,388.7341911000003,389.3017869000014,389.3017869000014,None,391.2611637000009,None,left,0.34340809999775956,391.2611637000009,None,391.6370848000006,None,left,0.15218339999955788,391.6370848000006,None,,,,,,,,,,,,,,,,,,,,,,,PPT57,001,2022-07-15_16h00.25.166,ABstudy,2022.1.4,59.88529570416393,
AB,Lag1_T1P_T2P,1,P,P,7,8,6,5,13,arrow,Did you see the arrow?,0.12,0.016,JPG\,pencil01,broccoli01a,button01,sponge01,watermelon01,lipstick02a,arrow02,stapler04b,lighter01,sock01a,spoon01,blueberry01,belt02a,blankImage,blankImage,blankImage,blankImage,arrow02,,,,,,,,,,,,0,53,53,76,,,,,,,,,,,,,,,,,,,,,,,,,,,,,,,,,,,391.82054530000096,392.8216067000012,392.8049408000006,393.3563968000017,393.3563968000017,None,394.9606715000009,None,left,0.4598625999988144,394.9606715000009,None,395.44075990000056,None,right,0.1878216999994038,395.44075990000056,None,,,,,,,,,,,,,,,,,,,,,,,PPT57,001,2022-07-15_16h00.25.166,ABstudy,2022.1.4,59.88529570416393,
AB,Lag5_T1P_T2P,5,P,P,7,12,6,3,15,Rollerblade,Did you see the Rollerblade?,0.12,0.016,JPG\,hammer01,sponge01,toaster01,cherry01,feather03a,mushroom01,rollerblade,pencil01,tennisball01b,brick,clock04,stapler06,teabag,garlic01a,envelope03a,blankImage,blankImage,rollerblade,,,,,,,,,,,,0,54,54,116,,,,,,,,,,,,,,,,,,,,,,,,,,,,,,,,,,,395.65995210000074,396.6755041000015,396.6422125000008,397.1952953,397.1952953,None,399.0418066000002,None,left,0.30763779999870167,399.0418066000002,None,399.37758900000154,None,left,0.16308229999958712,399.37758900000154,None,,,,,,,,,,,,,,,,,,,,,,,PPT57,001,2022-07-15_16h00.25.166,ABstudy,2022.1.4,59.88529570416393,
AB,Lag5_T1P_T2P,5,P,P,5,10,4,4,14,duck,Did you see the duck?,0.12,0.016,JPG\,celery,pencil01,fan,foosballtable,duck01,shirt02,potato02b,fork03c,button01,stapler03a,baseball01a,printer02,cauliflower01,dandelion,blankImage,blankImage,blankImage,duck01,,,,,,,,,,,,0,55,55,130,,,,,,,,,,,,,,,,,,,,,,,,,,,,,,,,,,,399.5962958,400.5959137000009,400.5959137000009,401.2144605000012,401.14184940000086,None,402.74841000000015,None,left,0.3530427999976382,402.74841000000015,None,403.1319484000014,None,left,0.16084639999826322,403.1319484000014,None,,,,,,,,,,,,,,,,,,,,,,,PPT57,001,2022-07-15_16h00.25.166,ABstudy,2022.1.4,59.88529570416393,
AB,Lag5_T1P_T2P,5,P,P,8,13,7,5,18,hand,Did you see the hand?,0.12,0.016,JPG\,foosballtable,candy,envelope03a,microscope,pencil01,leaf02a,scissors01,hand01b,grape01,dandelion,pineapple01a,hammer01,stapler03a,thermometer02b,ring01,sewingmachine01a,blankImage,hand01b,,,,,,,,,,,,0,56,56,131,,,,,,,,,,,,,,,,,,,,,,,,,,,,,,,,,,,403.31485150000117,404.3163400000012,404.2997684000002,404.80030070000066,404.80030070000066,None,406.8065709000002,None,left,0.36678309999842895,406.8065709000002,None,407.20285610000064,None,left,0.14649389999976847,407.20285610000064,None,,,,,,,,,,,,,,,,,,,,,,,PPT57,001,2022-07-15_16h00.25.166,ABstudy,2022.1.4,59.88529570416393,
AB,Lag5_T1P_T2P,5,P,P,6,11,5,3,14,wrench,Did you see the wrench?,0.12,0.016,JPG\,cherry01,cymbal,envelope03a,foosballtable,shirt02,stubbywrench01a,sewingmachine01a,candle08b,battery02b,apple07,stapler03b,screwdriver04b,strawberry,sunglasses04,blankImage,blankImage,blankImage,stubbywrench01a,,,,,,,,,,,,0,57,57,122,,,,,,,,,,,,,,,,,,,,,,,,,,,,,,,,,,,407.36891710000054,408.3704258000016,408.3538432000005,408.9139825000002,408.9139825000002,None,410.6360988000015,None,left,0.3374287999995431,410.6360988000015,None,411.00637650000135,None,left,0.11901589999979478,411.00637650000135,None,,,,,,,,,,,,,,,,,,,,,,,PPT57,001,2022-07-15_16h00.25.166,ABstudy,2022.1.4,59.88529570416393,
AB,Lag5_T1P_T2P,5,P,P,6,11,5,4,15,boxing glove,Did you see the boxing glove?,0.12,0.016,JPG\,button01,celery,birthdaycandle,apple07,avocado01,boxingglove01,dice05a,teabag,clock01a,feather03a,stapler06,scarf,orange,battery02b,thermometer02b,blankImage,blankImage,boxingglove01,,,,,,,,,,,,0,58,58,165,,,,,,,,,,,,,,,,,,,,,,,,,,,,,,,,,,,411.19303410000066,412.2076762000015,412.19079520000014,412.7552151,412.7552151,None,414.59074500000133,None,left,0.3423955999987811,414.59074500000133,None,414.9603978000014,None,left,0.1246434999993653,414.9603978000014,None,,,,,,,,,,,,,,,,,,,,,,,PPT57,001,2022-07-15_16h00.25.166,ABstudy,2022.1.4,59.88529570416393,
AB,Lag5_T1P_T2P,5,P,P,6,11,5,4,15,sword,Did you see the sword?,0.12,0.016,JPG\,8ball,banana01,scissors01,pig,shirt02,broadsword,pear01,sponge01,fork03c,tableknife02,stapler06,match,toothbrush03b,birthdaycandle,candle01,blankImage,blankImage,broadsword,,,,,,,,,,,,0,59,59,167,,,,,,,,,,,,,,,,,,,,,,,,,,,,,,,,,,,415.1103923999999,416.1113512000011,416.09483590000127,416.66184539999995,416.66184539999995,None,418.55133540000134,None,left,0.277296700000079,418.55133540000134,None,418.8476447000012,None,left,0.14967309999883582,418.8476447000012,None,,,,,,,,,,,,,,,,,,,,,,,PPT57,001,2022-07-15_16h00.25.166,ABstudy,2022.1.4,59.88529570416393,
AB,Lag5_T1P_T2P,5,P,P,8,13,7,3,16,shrimp,Did you see the shrimp?,0.12,0.016,JPG\,globe,belt02a,sponge01,violin,fork03c,tomato01,clock01a,cocktailshrimp02,balloon01b,scarf,teabag,pen04b,stapler03a,brownsugar,speaker04,screwdriver04b,blankImage,cocktailshrimp02,,,,,,,,,,,,0,60,60,169,,,,,,,,,,,,,,,,,,,,,,,,,,,,,,,,,,,419.01496900000166,420.01541460000044,419.9986630000003,420.5815547000002,420.5815547000002,None,422.51539159999993,None,left,0.33764759999939997,422.51539159999993,None,422.8848399000017,None,left,0.14369329999863112,422.8848399000017,None,,,,,,,,,,,,,,,,,,,,,,,PPT57,001,2022-07-15_16h00.25.166,ABstudy,2022.1.4,59.88529570416393,
AB,Lag1_T1P_T2P,1,P,P,6,7,5,3,10,windmill,Did you see the windmill?,0.12,0.016,JPG\,pizza,printer02,medal02b,spoon01,grape01,windmill,stapler04b,watermelon01,celery,battery02b,blankImage,blankImage,blankImage,blankImage,blankImage,blankImage,blankImage,windmill,,,,,,,,,,,,0,61,61,75,,,,,,,,,,,,,,,,,,,,,,,,,,,,,,,,,,,423.05159470000035,424.05293080000047,424.03608280000117,424.6036559000004,424.6036559000004,None,425.8707609000012,None,left,0.6063657999984571,425.8707609000012,None,426.5051943000017,None,right,0.13174789999902714,426.5051943000017,None,,,,,,,,,,,,,,,,,,,,,,,PPT57,001,2022-07-15_16h00.25.166,ABstudy,2022.1.4,59.88529570416393,
AB,Lag1_T1P_T2P,1,P,P,8,9,7,5,14,Waterfall,Did you see the Waterfall?,0.12,0.016,JPG\,pizza,watch02a,greenolive,cucumber,match,violin,scissors01,waterfall,stapler03a,cherry01,ring01,cigarette,microscope,cellphone,blankImage,blankImage,blankImage,waterfall,,,,,,,,,,,,0,62,62,52,,,,,,,,,,,,,,,,,,,,,,,,,,,,,,,,,,,426.6556954000007,427.65637530000095,427.63970190000146,428.2083674000005,428.2083674000005,None,429.95700770000076,None,left,0.5196865999987494,429.95700770000076,None,430.49187470000106,None,right,1.344542699998783,430.49187470000106,None,,,,,,,,,,,,,,,,,,,,,,,PPT57,001,2022-07-15_16h00.25.166,ABstudy,2022.1.4,59.88529570416393,
AB,Lag5_T1P_T2P,5,P,P,8,13,7,5,18,skis,Did you see the skis?,0.12,0.016,JPG\,tennisball01b,paintbrush01,medal02b,apple07,speaker04,iron01b,avocado01,downhillski,belt02a,toiletpaper01a,watermelon01,candle01,stapler01,cymbal,ashtray01,screwdriver04b,blankImage,downhillski,,,,,,,,,,,,0,63,63,106,,,,,,,,,,,,,,,,,,,,,,,,,,,,,,,,,,,431.860555700001,432.8613662000007,432.84476300000097,433.4125681000005,433.4125681000005,None,435.34579510000003,None,left,0.3073402999980317,435.34579510000003,None,435.68090180000036,None,left,0.11560529999951541,435.68090180000036,None,,,,,,,,,,,,,,,,,,,,,,,PPT57,001,2022-07-15_16h00.25.166,ABstudy,2022.1.4,59.88529570416393,
AB,Lag1_T1P_T2P,1,P,P,6,7,5,5,12,Snowboard,Did you see the Snowboard?,0.12,0.016,JPG\,belt02a,measuringcup01,spoon01,chain01,greenolive,snowboard,stapler01,onion,fan,strawberry,candle01,broom01,blankImage,blankImage,blankImage,blankImage,blankImage,snowboard,,,,,,,,,,,,0,64,64,49,,,,,,,,,,,,,,,,,,,,,,,,,,,,,,,,,,,435.8150060000007,436.81538770000043,436.7987280000016,437.35494290000133,437.35494290000133,None,438.817392500001,None,right,0.6997981999993499,438.817392500001,None,439.53445210000064,None,left,0.1499045999989903,439.53445210000064,None,,,,,,,,,,,,,,,,,,,,,,,PPT57,001,2022-07-15_16h00.25.166,ABstudy,2022.1.4,59.88529570416393,
AB,Lag1_T1A_T2P,1,A,P,7,8,6,5,13,Ant,Did you see the Ant?,0.12,0.016,JPG\,rice,watermelon01,tableknife02,scarf,computerkeyboard02,cauliflower01,battery02b,stapler03b,book01b,sandal,sponge01,microscope,tomato01,blankImage,blankImage,blankImage,blankImage,sandcastle,,,,,,,,,,,,0,65,65,242,,,,,,,,,,,,,,,,,,,,,,,,,,,,,,,,,,,439.7018782000014,440.7025689000002,440.68595220000134,441.24633090000134,441.24633090000134,None,442.859102800001,None,right,0.689599499997712,442.859102800001,None,443.57195950000096,None,left,0.2098627999985183,443.57195950000096,None,,,,,,,,,,,,,,,,,,,,,,,PPT57,001,2022-07-15_16h00.25.166,ABstudy,2022.1.4,59.88529570416393,
AB,Lag1_T1P_T2P,1,P,P,7,8,6,5,13,dream catcher,Did you see the dream catcher?,0.12,0.016,JPG\,clock01a,cellphone,toaster01,toothbrush03b,cauliflower01,microscope,dreamcatcher,stapler05,scarf,clock04,sponge01,iron01b,watch02a,blankImage,blankImage,blankImage,blankImage,dreamcatcher,,,,,,,,,,,,0,66,66,81,,,,,,,,,,,,,,,,,,,,,,,,,,,,,,,,,,,443.8058019,444.8067221000001,444.79010820000076,445.35723880000114,445.35723880000114,None,446.94843160000164,None,left,0.92015629999878,446.94843160000164,None,447.89319220000107,None,right,0.2633931999989727,447.89319220000107,None,,,,,,,,,,,,,,,,,,,,,,,PPT57,001,2022-07-15_16h00.25.166,ABstudy,2022.1.4,59.88529570416393,
AB,Lag1_T1P_T2P,1,P,P,5,6,4,5,11,Light switch,Did you see the Light switch?,0.12,0.016,JPG\,iron01b,orange,birthdaycandle,potato02b,lightswitch01,stapler03b,key01,candle08b,celery,tableknife02,pen04b,blankImage,blankImage,blankImage,blankImage,blankImage,blankImage,lightswitch01,,,,,,,,,,,,0,67,67,18,,,,,,,,,,,,,,,,,,,,,,,,,,,,,,,,,,,448.1769021,449.1777322000016,449.16117640000084,449.724156100001,449.724156100001,None,451.06764960000146,None,right,0.9221206000001985,451.06764960000146,None,452.0138428999999,None,left,0.1986271999994642,452.0138428999999,None,,,,,,,,,,,,,,,,,,,,,,,PPT57,001,2022-07-15_16h00.25.166,ABstudy,2022.1.4,59.88529570416393,
AB,Lag1_T1A_T2P,1,A,P,7,8,6,3,11,lion,Did you see the lion?,0.12,0.016,JPG\,sock01a,spoon01,alligator,comb02a,printer02,medal02b,lamp04a,stapler01,greenolive,computerkeyboard02,cauliflower01,blankImage,blankImage,blankImage,blankImage,blankImage,blankImage,bullet,,,,,,,,,,,,0,68,68,229,,,,,,,,,,,,,,,,,,,,,,,,,,,,,,,,,,,452.2307066000012,453.23174370000015,453.21494430000166,453.77849080000124,453.77849080000124,None,455.17056200000115,None,right,0.46621139999842853,455.17056200000115,None,455.6672421000003,None,right,0.1696169999995618,455.6672421000003,None,,,,,,,,,,,,,,,,,,,,,,,PPT57,001,2022-07-15_16h00.25.166,ABstudy,2022.1.4,59.88529570416393,
AB,Lag1_T1P_T2A,1,P,A,6,7,5,5,12,Barn,Did you see the Barn?,0.12,0.016,JPG\,celery,pencil01,fan,foosballtable,iron01b,barn,potato02b,fork03c,button01,pineapple01a,baseball01a,printer02,blankImage,blankImage,blankImage,blankImage,blankImage,barn,,,,,,,,,,,,0,69,69,181,,,,,,,,,,,,,,,,,,,,,,,,,,,,,,,,,,,455.86907670000073,456.86873370000103,456.8517735000005,457.4081059,457.4081059,None,458.98492720000104,None,right,0.6921191000001272,458.98492720000104,None,459.7055973000006,None,right,0.32300149999900896,459.7055973000006,None,,,,,,,,,,,,,,,,,,,,,,,PPT57,001,2022-07-15_16h00.25.166,ABstudy,2022.1.4,59.88529570416393,
AB,Lag5_T1P_T2P,5,P,P,7,12,6,4,16,Fireplace,Did you see the Fireplace?,0.12,0.016,JPG\,printer02,leaf02a,cauliflower01,sock01a,brownsugar,paintbrush01,fireplace,orange,belt02a,shirt02,key01,stapler01,cigarette,scissors01,envelope03a,blueberry01,blankImage,fireplace,,,,,,,,,,,,0,70,70,88,,,,,,,,,,,,,,,,,,,,,,,,,,,,,,,,,,,460.0571108000004,461.0562675000001,461.0394612,461.6072899999999,461.6072899999999,None,463.5968238000005,None,left,0.42335559999810357,463.5968238000005,None,464.04226630000085,None,right,0.17010379999919678,464.04226630000085,None,,,,,,,,,,,,,,,,,,,,,,,PPT57,001,2022-07-15_16h00.25.166,ABstudy,2022.1.4,59.88529570416393,
AB,Lag5_T1P_T2P,5,P,P,8,13,7,4,17,cruise ship,Did you see the cruise ship?,0.12,0.016,JPG\,measuringcup01,dice05a,greenolive,lipstick02a,feather03a,balloon01b,lighter01,cruiseship,carrot01,plate01b,microscope,brick,stapler05,screw02,speaker04,spoon01,blankImage,cruiseship,,,,,,,,,,,,0,71,71,105,,,,,,,,,,,,,,,,,,,,,,,,,,,,,,,,,,,464.27130020000004,465.2771397000015,465.26033690000077,465.82851290000144,465.82851290000144,None,467.76406190000125,None,left,0.4887527999981103,467.76406190000125,None,468.2799003,None,right,0.23681740000029095,468.2799003,None,,,,,,,,,,,,,,,,,,,,,,,PPT57,001,2022-07-15_16h00.25.166,ABstudy,2022.1.4,59.88529570416393,
AB,Lag1_T1A_T2P,1,A,P,7,8,6,5,13,Horseshoe,Did you see the Horseshoe?,0.12,0.016,JPG\,leaf02a,apple07,cd,pineapple01a,envelope03a,paintbrush01,pig,stapler06,rice,feather03a,lemon02,balloon01b,avocado01,blankImage,blankImage,blankImage,blankImage,rooster,,,,,,,,,,,,0,72,72,241,,,,,,,,,,,,,,,,,,,,,,,,,,,,,,,,,,,468.55076700000063,469.56474789999993,469.5313599000001,470.0879369000013,470.0879369000013,None,471.75418020000143,None,right,0.4744416999983514,471.75418020000143,None,472.2507116000015,None,left,0.17779569999947853,472.2507116000015,None,,,,,,,,,,,,,,,,,,,,,,,PPT57,001,2022-07-15_16h00.25.166,ABstudy,2022.1.4,59.88529570416393,
AB,Lag5_T1P_T2P,5,P,P,7,12,6,5,17,Badminton Racket,Did you see the Badminton Racket?,0.12,0.016,JPG\,paintbrush01,dice05a,watermelon01,broccoli01a,hammer01,leaf02a,badmintonracket,tennisball01b,lemon02,fan,lipstick02a,stapler04b,envelope03a,sponge01,foosballtable,orange,blankImage,badmintonracket,,,,,,,,,,,,0,73,73,163,,,,,,,,,,,,,,,,,,,,,,,,,,,,,,,,,,,472.45155120000163,473.4518232999999,473.43521770000007,473.9931654000011,473.9931654000011,None,475.98998890000075,None,left,0.3508883999984391,475.98998890000075,None,476.3712035000008,None,left,0.11332199999742443,476.3712035000008,None,,,,,,,,,,,,,,,,,,,,,,,PPT57,001,2022-07-15_16h00.25.166,ABstudy,2022.1.4,59.88529570416393,
AB,Lag1_T1P_T2A,1,P,A,8,9,7,5,14,Fridge,Did you see the Fridge?,0.12,0.016,JPG\,cherry01,cymbal,envelope03a,foosballtable,shirt02,cellphone,sewingmachine01a,fridge,battery02b,apple07,pencil01,screwdriver04b,strawberry,sunglasses04,blankImage,blankImage,blankImage,fridge,,,,,,,,,,,,0,74,74,173,,,,,,,,,,,,,,,,,,,,,,,,,,,,,,,,,,,476.50532340000063,477.5060037000003,477.48914200000036,478.04573300000084,478.04573300000084,None,479.808957700001,None,right,0.7007364999990386,479.808957700001,None,480.54240180000124,None,right,0.15052279999872553,480.54240180000124,None,,,,,,,,,,,,,,,,,,,,,,,PPT57,001,2022-07-15_16h00.25.166,ABstudy,2022.1.4,59.88529570416393,
AB,Lag5_T1P_T2A,5,P,A,7,12,6,3,15,Toy soldier,Did you see the Toy soldier?,0.12,0.016,JPG\,binoculars01b,cymbal,pizza,candy,paintbrush01,sponge01,toysoldier01b,thermometer02b,speaker04,lemon02,lipstick02a,strawberry,candle01,acorn,plate01b,blankImage,blankImage,toysoldier01b,,,,,,,,,,,,0,75,75,203,,,,,,,,,,,,,,,,,,,,,,,,,,,,,,,,,,,480.7259339000011,481.7269503000007,481.71054320000076,482.2733293000001,482.2733293000001,None,484.11268569999993,None,left,0.8200726999984909,484.11268569999993,None,484.96347530000094,None,right,10.30459989999872,484.96347530000094,None,,,,,,,,,,,,,,,,,,,,,,,PPT57,001,2022-07-15_16h00.25.166,ABstudy,2022.1.4,59.88529570416393,
AB,Lag1_T1P_T2P,1,P,P,6,7,5,5,12,snowman,Did you see the snowman?,0.12,0.016,JPG\,comb02a,watch02a,scissors01,dice05a,tableknife02,snowman,stapler03a,printer02,dandelion,spoon01,ashtray01,battery02b,blankImage,blankImage,blankImage,blankImage,blankImage,snowman,,,,,,,,,,,,0,76,76,4,,,,,,,,,,,,,,,,,,,,,,,,,,,,,,,,,,,495.33182450000095,496.3413892000008,496.32464360000085,496.88472210000145,496.88472210000145,None,498.3412094000014,None,left,0.5997341999991477,498.3412094000014,None,498.96076020000146,None,right,0.18814969999948516,498.96076020000146,None,,,,,,,,,,,,,,,,,,,,,,,PPT57,001,2022-07-15_16h00.25.166,ABstudy,2022.1.4,59.88529570416393,
AB,Lag1_T1P_T2A,1,P,A,5,6,4,5,11,Moon,Did you see the Moon?,0.12,0.016,JPG\,lamp04a,broccoli01a,alligator,garlic01a,moon,brownsugar,avocado01,ring01,leaf02a,cellphone,medal02b,blankImage,blankImage,blankImage,blankImage,blankImage,blankImage,moon,,,,,,,,,,,,0,77,77,190,,,,,,,,,,,,,,,,,,,,,,,,,,,,,,,,,,,499.1774215000005,500.17846480000117,500.1618358000014,500.7185362,500.7185362,None,502.095620600001,None,right,0.4690177999982552,502.095620600001,None,502.59762690000025,None,right,0.135767499999929,502.59762690000025,None,,,,,,,,,,,,,,,,,,,,,,,PPT57,001,2022-07-15_16h00.25.166,ABstudy,2022.1.4,59.88529570416393,
AB,Lag5_T1P_T2P,5,P,P,5,10,4,3,13,rose,Did you see the rose?,0.12,0.016,JPG\,lipstick02a,cucumber,candle08b,printer02,rose,violin,paintbrush01,lighter01,belt02a,stapler03b,thermometer02b,microscope,cigarette,blankImage,blankImage,blankImage,blankImage,rose,,,,,,,,,,,,0,78,78,158,,,,,,,,,,,,,,,,,,,,,,,,,,,,,,,,,,,502.76445800000147,503.76543290000154,503.74853299999995,504.3003908999999,504.3003908999999,None,505.9218542000017,None,left,0.3623954999984562,505.9218542000017,None,506.30110200000126,None,left,0.1354643999984546,506.30110200000126,None,,,,,,,,,,,,,,,,,,,,,,,PPT57,001,2022-07-15_16h00.25.166,ABstudy,2022.1.4,59.88529570416393,
AB,Lag1_T1A_T2P,1,A,P,5,6,4,3,9,barrel,Did you see the barrel?,0.12,0.016,JPG\,clock01a,cellphone,toaster01,toothbrush03b,cauliflower01,stapler01,comb02a,paintbrush01,scarf,blankImage,blankImage,blankImage,blankImage,blankImage,blankImage,blankImage,blankImage,sheep,,,,,,,,,,,,0,79,79,243,,,,,,,,,,,,,,,,,,,,,,,,,,,,,,,,,,,506.4681141000001,507.46910710000157,507.4521474000012,508.0151682000014,508.0151682000014,None,509.1735148000007,None,right,1.615420299998732,509.1735148000007,None,510.80569240000113,None,left,0.19893069999852742,510.80569240000113,None,,,,,,,,,,,,,,,,,,,,,,,PPT57,001,2022-07-15_16h00.25.166,ABstudy,2022.1.4,59.88529570416393,
AB,Lag1_T1A_T2A,1,A,A,8,9,7,3,12,popcorn,Did you see the popcorn?,0.12,0.016,JPG\,brownsugar,candle01,match,printer02,broom01,balloon01b,belt02a,potato02b,computerkeyboard02,feather03a,rice,mushroom01,blankImage,blankImage,blankImage,blankImage,blankImage,banjo,,,,,,,,,,,,0,80,80,290,,,,,,,,,,,,,,,,,,,,,,,,,,,,,,,,,,,511.0228717000009,512.0234701000008,512.007005200001,512.5072499000016,512.5072499000016,None,514.113467000001,None,right,0.723222499998883,514.113467000001,None,514.8596524000004,None,right,0.36846649999824876,514.8596524000004,None,,,,,,,,,,,,,,,,,,,,,,,PPT57,001,2022-07-15_16h00.25.166,ABstudy,2022.1.4,59.88529570416393,
AB,Lag1_T1P_T2P,1,P,P,7,8,6,4,12,Christmas Tree,Did you see the Christmas Tree?,0.12,0.016,JPG\,sandal,fan,printer02,cellphone,mushroom01,candle08b,firtree,stapler03a,lamp04a,hammer01,teabag,aceofdiamond,blankImage,blankImage,blankImage,blankImage,blankImage,firtree,,,,,,,,,,,,0,81,81,6,,,,,,,,,,,,,,,,,,,,,,,,,,,,,,,,,,,515.2603510000008,516.2611984000014,516.2443692000015,516.8071402000005,516.8071402000005,None,518.3268584000016,None,left,1.0868331999990914,518.3268584000016,None,519.4308342000004,None,right,0.34968579999804206,519.4308342000004,None,,,,,,,,,,,,,,,,,,,,,,,PPT57,001,2022-07-15_16h00.25.166,ABstudy,2022.1.4,59.88529570416393,
AB,Lag5_T1P_T2P,5,P,P,7,12,6,3,15,marble,Did you see the marble?,0.12,0.016,JPG\,cigarette,ashtray01,envelope03a,sandal,chain01,cucumber,marble,tomato01,dandelion,candle01,lemon02,stapler03b,potato02b,cymbal,clock01a,blankImage,blankImage,marble,,,,,,,,,,,,0,82,82,146,,,,,,,,,,,,,,,,,,,,,,,,,,,,,,,,,,,519.7980762000007,520.799051,520.7823820000012,521.3352811000004,521.3352811000004,None,523.2413124000013,None,left,0.35539109999808716,523.2413124000013,None,523.618656300001,None,left,0.16977769999903103,523.618656300001,None,,,,,,,,,,,,,,,,,,,,,,,PPT57,001,2022-07-15_16h00.25.166,ABstudy,2022.1.4,59.88529570416393,
AB,Lag5_T1P_T2A,5,P,A,6,11,5,5,16,hat,Did you see the hat?,0.12,0.016,JPG\,apple07,toiletpaper01a,pizza,dandelion,greenolive,pilgrimhat,microscope,violin,orange,lipstick02a,balloon01b,sandal,lighter01,fan,book01b,sewingmachine01a,blankImage,pilgrimhat,,,,,,,,,,,,0,83,83,206,,,,,,,,,,,,,,,,,,,,,,,,,,,,,,,,,,,523.8186908000007,524.8196439000003,524.8030855000015,525.3661964000003,525.3661964000003,None,527.3344525000011,None,right,1.582604100000026,527.3344525000011,None,528.9406148000016,None,right,0.6241525999994337,528.9406148000016,None,,,,,,,,,,,,,,,,,,,,,,,PPT57,001,2022-07-15_16h00.25.166,ABstudy,2022.1.4,59.88529570416393,
AB,Lag1_T1P_T2P,1,P,P,6,7,5,3,10,fortune cookie,Did you see the fortune cookie?,0.12,0.016,JPG\,scissors01,grape01,mushroom01,toiletpaper01a,greenolive,fortunecookie,stapler03b,ashtray01,carrot01,pineapple01a,blankImage,blankImage,blankImage,blankImage,blankImage,blankImage,blankImage,fortunecookie,,,,,,,,,,,,0,84,84,42,,,,,,,,,,,,,,,,,,,,,,,,,,,,,,,,,,,529.5916663000007,530.5921409000002,530.5754635000012,531.1279579000002,531.1279579000002,None,532.3863918000006,None,right,0.6257261999999173,532.3863918000006,None,533.0445227,None,left,0.215998399997261,533.0445227,None,,,,,,,,,,,,,,,,,,,,,,,PPT57,001,2022-07-15_16h00.25.166,ABstudy,2022.1.4,59.88529570416393,
AB,Lag5_T1P_T2A,5,P,A,5,10,4,4,14,Ship in a bottle,Did you see the Ship in a bottle?,0.12,0.016,JPG\,sewingmachine01a,thermometer02b,sponge01,eraser,shipinabottle,fork03c,pizza,violin,belt02a,medal02b,pineapple01a,tennisball01b,dandelion,cauliflower01,blankImage,blankImage,blankImage,shipinabottle,,,,,,,,,,,,0,85,85,208,,,,,,,,,,,,,,,,,,,,,,,,,,,,,,,,,,,533.2787604000005,534.2790221000014,534.2624501000009,534.8279538000006,534.8279538000006,None,536.5651403000011,None,left,0.6309053000004496,536.5651403000011,None,537.214860600001,None,right,0.09398119999968912,537.214860600001,None,,,,,,,,,,,,,,,,,,,,,,,PPT57,001,2022-07-15_16h00.25.166,ABstudy,2022.1.4,59.88529570416393,
AB,Lag1_T1P_T2A,1,P,A,7,8,6,5,13,Well,Did you see the Well?,0.12,0.016,JPG\,leaf02a,apple07,cd,pineapple01a,envelope03a,paintbrush01,well,acorn,rice,feather03a,lemon02,balloon01b,avocado01,blankImage,blankImage,blankImage,blankImage,well,,,,,,,,,,,,0,86,86,178,,,,,,,,,,,,,,,,,,,,,,,,,,,,,,,,,,,537.3322533999999,538.3330873000014,538.3164184000016,538.8727550000003,538.8727550000003,None,540.5250496000008,None,left,0.38362599999891245,540.5250496000008,None,540.935634200001,None,right,0.2130275999988953,540.935634200001,None,,,,,,,,,,,,,,,,,,,,,,,PPT57,001,2022-07-15_16h00.25.166,ABstudy,2022.1.4,59.88529570416393,
AB,Lag1_T1A_T2P,1,A,P,8,9,7,4,13,Fireplace,Did you see the Fireplace?,0.12,0.016,JPG\,scissors01,ashtray01,garlic01a,medal02b,cigarette,candle08b,leaf02a,envelope03a,stapler06,rice,toiletpaper01a,greenolive,cymbal,blankImage,blankImage,blankImage,blankImage,dartboard,,,,,,,,,,,,0,87,87,252,,,,,,,,,,,,,,,,,,,,,,,,,,,,,,,,,,,541.2004268000001,542.203895300001,542.1869795000002,542.7432080000017,542.7432080000017,None,544.2433931000014,None,right,0.7535147999988112,544.2433931000014,None,545.0230704000005,None,left,0.2614851999987877,545.0230704000005,None,,,,,,,,,,,,,,,,,,,,,,,PPT57,001,2022-07-15_16h00.25.166,ABstudy,2022.1.4,59.88529570416393,
AB,Lag1_T1A_T2P,1,A,P,8,9,7,3,12,elbow,Did you see the elbow?,0.12,0.016,JPG\,watermelon01,cigarette,faucet,cymbal,cauliflower01,feather03a,cherry01,broom01,stapler01,key01,baseball01a,iron01b,blankImage,blankImage,blankImage,blankImage,blankImage,cashregister01,,,,,,,,,,,,0,88,88,251,,,,,,,,,,,,,,,,,,,,,,,,,,,,,,,,,,,545.3070007000006,546.3075474000016,546.2911054000015,546.8597347000014,546.8597347000014,None,548.4345290000001,None,right,0.7783730999981344,548.4345290000001,None,549.2439752000009,None,left,0.16078299999935552,549.2439752000009,None,,,,,,,,,,,,,,,,,,,,,,,PPT57,001,2022-07-15_16h00.25.166,ABstudy,2022.1.4,59.88529570416393,
AB,Lag5_T1A_T2P,5,A,P,6,11,5,5,16,baseball bat,Did you see the baseball bat?,0.12,0.016,JPG\,avocado01,aceofdiamond,match,cauliflower01,paintbrush01,clock01a,pig,cd,balloon01b,cellphone,stapler01,pear01,toaster01,sponge01,orange,blueberry01,blankImage,stool01,,,,,,,,,,,,0,89,89,273,,,,,,,,,,,,,,,,,,,,,,,,,,,,,,,,,,,549.4271224000004,550.4285918000005,550.4118746000004,550.9808922000011,550.9808922000011,None,552.9161638000005,None,right,0.5443189999987226,552.9161638000005,None,553.4813809000007,None,left,0.23497569999926782,553.4813809000007,None,,,,,,,,,,,,,,,,,,,,,,,PPT57,001,2022-07-15_16h00.25.166,ABstudy,2022.1.4,59.88529570416393,
AB,Lag1_T1P_T2P,1,P,P,8,9,7,3,12,Eiffel tower,Did you see the Eiffel tower?,0.12,0.016,JPG\,celery,tennisball01b,calculator01,pear01,screw02,orange,button01,eiffeltower,stapler03b,apple07,iron01b,brownsugar,blankImage,blankImage,blankImage,blankImage,blankImage,eiffeltower,,,,,,,,,,,,0,90,90,40,,,,,,,,,,,,,,,,,,,,,,,,,,,,,,,,,,,553.7505611000015,554.749393600001,554.7329200000004,555.2919108000006,555.2919108000006,None,556.701970600001,None,left,0.7037037999980384,556.701970600001,None,557.4366943000005,None,left,0.1434239999980491,557.4366943000005,None,,,,,,,,,,,,,,,,,,,,,,,PPT57,001,2022-07-15_16h00.25.166,ABstudy,2022.1.4,59.88529570416393,
AB,Lag5_T1P_T2P,5,P,P,8,13,7,3,16,banjo,Did you see the banjo?,0.12,0.016,JPG\,celery,brownsugar,key01,sunglasses04,leaf02a,toothbrush03b,dice05a,banjo,scarf,globe,paintbrush01,scissors01,stapler03a,battery02b,feather03a,cymbal,blankImage,banjo,,,,,,,,,,,,0,91,91,102,,,,,,,,,,,,,,,,,,,,,,,,,,,,,,,,,,,557.6040313000012,558.6031704000015,558.5866974,559.1474218000003,559.1474218000003,None,561.0631943000008,None,left,0.34131969999907597,561.0631943000008,None,561.4240047000003,None,left,0.14009189999887894,561.4240047000003,None,,,,,,,,,,,,,,,,,,,,,,,PPT57,001,2022-07-15_16h00.25.166,ABstudy,2022.1.4,59.88529570416393,
AB,Lag5_T1A_T2P,5,A,P,6,11,5,4,15,fish,Did you see the fish?,0.12,0.016,JPG\,pingpongpaddle01c,banana01,scissors01,pig,shirt02,leaf02a,pear01,sponge01,fork03c,tableknife02,stapler03a,match,toothbrush03b,birthdaycandle,candle01,blankImage,blankImage,lighthouse,,,,,,,,,,,,0,92,92,265,,,,,,,,,,,,,,,,,,,,,,,,,,,,,,,,,,,561.5901249000017,562.5906388000003,562.5739827000016,563.1390781000009,563.1390781000009,None,564.9715495,None,right,0.46460509999997157,564.9715495,None,565.459663900001,None,right,0.17648349999944912,565.459663900001,None,,,,,,,,,,,,,,,,,,,,,,,PPT57,001,2022-07-15_16h00.25.166,ABstudy,2022.1.4,59.88529570416393,
AB,Lag5_T1P_T2A,5,P,A,5,10,4,3,13,pin,Did you see the pin?,0.12,0.016,JPG\,candle01,fork03c,plate01b,violin,pin,candy,calculator01,paintbrush01,cherry01,sock01a,teabag,banana01,cd,blankImage,blankImage,blankImage,blankImage,pin,,,,,,,,,,,,0,93,93,215,,,,,,,,,,,,,,,,,,,,,,,,,,,,,,,,,,,565.6603910000013,566.6613275,566.6445859000014,567.1980166000012,567.1980166000012,None,568.9216732000004,None,right,0.5386139000002004,568.9216732000004,None,569.4823664000014,None,right,0.18561159999808297,569.4823664000014,None,,,,,,,,,,,,,,,,,,,,,,,PPT57,001,2022-07-15_16h00.25.166,ABstudy,2022.1.4,59.88529570416393,
AB,Lag5_T1P_T2A,5,P,A,5,10,4,4,14,rocket,Did you see the rocket?,0.12,0.016,JPG\,fan,tomato01,candy,screwdriver04b,spacerocket,cd,thermometer02b,apple07,button01,plate01b,brownsugar,lighter01,clock01a,envelope03a,blankImage,blankImage,blankImage,spacerocket,,,,,,,,,,,,0,94,94,226,,,,,,,,,,,,,,,,,,,,,,,,,,,,,,,,,,,569.6979392000012,570.6987277000007,570.6820041999999,571.2451179,571.2451179,None,572.9971464000009,None,left,0.43134079999799724,572.9971464000009,None,573.4519316000005,None,right,0.17664129999866418,573.4519316000005,None,,,,,,,,,,,,,,,,,,,,,,,PPT57,001,2022-07-15_16h00.25.166,ABstudy,2022.1.4,59.88529570416393,
AB,Lag1_T1A_T2P,1,A,P,7,8,6,3,11,Fox,Did you see the Fox?,0.12,0.016,JPG\,toaster01,chain01,sponge01,baseball01a,carrot01,belt02a,book01b,stapler03b,grape01,brick,celery,blankImage,blankImage,blankImage,blankImage,blankImage,blankImage,fingerprint,,,,,,,,,,,,0,95,95,234,,,,,,,,,,,,,,,,,,,,,,,,,,,,,,,,,,,573.6574526000004,574.6694188000001,574.6526875,575.2195276000002,575.2195276000002,None,576.6274266,None,right,0.6890964999984135,576.6274266,None,577.3387315,None,left,0.22570879999875615,577.3387315,None,,,,,,,,,,,,,,,,,,,,,,,PPT57,001,2022-07-15_16h00.25.166,ABstudy,2022.1.4,59.88529570416393,
AB,Lag5_T1P_T2A,5,P,A,5,10,4,3,13,martini glass,Did you see the martini glass?,0.12,0.016,JPG\,brick,eraser,cucumber,ashtray01,martiniglass01b,binoculars01b,lipstick02a,screwdriver04b,grape01,brownsugar,battery02b,iron01b,dice05a,blankImage,blankImage,blankImage,blankImage,martiniglass01b,,,,,,,,,,,,0,96,96,217,,,,,,,,,,,,,,,,,,,,,,,,,,,,,,,,,,,577.5888742000006,578.5898351000014,578.5730918000008,579.1331862000006,579.1331862000006,None,580.7745983000004,None,left,1.3654549999973824,580.7745983000004,None,582.160085200001,None,right,0.09332519999952638,582.160085200001,None,,,,,,,,,,,,,,,,,,,,,,,PPT57,001,2022-07-15_16h00.25.166,ABstudy,2022.1.4,59.88529570416393,
AB,Lag5_T1P_T2P,5,P,P,7,12,6,5,17,truck,Did you see the truck?,0.12,0.016,JPG\,binoculars01b,speaker04,sandal,envelope03a,plate01b,comb02a,boxtruck,chain01,measuringcup01,key01,medal02b,stapler05,tennisball01b,pizza,cigarette,sunglasses04,blankImage,boxtruck,,,,,,,,,,,,0,97,97,166,,,,,,,,,,,,,,,,,,,,,,,,,,,,,,,,,,,582.2769959000016,583.2783230000005,583.2613941,583.8344969000009,583.8344969000009,None,585.8183442000009,None,left,0.32977240000036545,585.8183442000009,None,586.1808191,None,left,0.13569949999873643,586.1808191,None,,,,,,,,,,,,,,,,,,,,,,,PPT57,001,2022-07-15_16h00.25.166,ABstudy,2022.1.4,59.88529570416393,
AB,Lag5_T1P_T2A,5,P,A,8,13,7,3,16,leaf blower,Did you see the leaf blower?,0.12,0.016,JPG\,printer02,leaf02a,cauliflower01,sock01a,brownsugar,paintbrush01,pig,leafblower01,belt02a,shirt02,key01,match,cigarette,scissors01,envelope03a,blueberry01,blankImage,leafblower01,,,,,,,,,,,,0,98,98,216,,,,,,,,,,,,,,,,,,,,,,,,,,,,,,,,,,,586.3477734000007,587.348661,587.331894500001,587.8981486000012,587.8981486000012,None,589.8886094000009,None,left,0.5158274999994319,589.8886094000009,None,590.4362936000016,None,right,0.1999629999991157,590.4362936000016,None,,,,,,,,,,,,,,,,,,,,,,,PPT57,001,2022-07-15_16h00.25.166,ABstudy,2022.1.4,59.88529570416393,
AB,Lag1_T1P_T2P,1,P,P,8,9,7,4,13,Hula hoop,Did you see the Hula hoop?,0.12,0.016,JPG\,brownsugar,candle01,match,printer02,broom01,balloon01b,belt02a,hulahoop,stapler04b,feather03a,rice,mushroom01,pencil01,blankImage,blankImage,blankImage,blankImage,hulahoop,,,,,,,,,,,,0,99,99,64,,,,,,,,,,,,,,,,,,,,,,,,,,,,,,,,,,,590.6930260000008,591.7028451000006,591.6863636000016,592.1867246000002,592.1867246000002,None,593.8285935000004,None,left,0.553168899998127,593.8285935000004,None,594.4057764000008,None,left,0.14308879999771307,594.4057764000008,None,,,,,,,,,,,,,,,,,,,,,,,PPT57,001,2022-07-15_16h00.25.166,ABstudy,2022.1.4,59.88529570416393,
AB,Lag5_T1A_T2P,5,A,P,5,10,4,3,13,flower,Did you see the flower?,0.12,0.016,JPG\,cucumber,ring01,lipstick02a,microscope,violin,garlic01a,celery,lighter01,cherry01,stapler03a,belt02a,key01,binoculars01b,blankImage,blankImage,blankImage,blankImage,christmastree,,,,,,,,,,,,0,100,100,284,,,,,,,,,,,,,,,,,,,,,,,,,,,,,,,,,,,594.5724593000014,595.5734292000016,595.556709800001,596.1144009,596.1144009,None,597.8127865000006,None,right,0.4637261999978364,597.8127865000006,None,598.3096953000004,None,right,0.23097739999866462,598.3096953000004,None,,,,,,,,,,,,,,,,,,,,,,,PPT57,001,2022-07-15_16h00.25.166,ABstudy,2022.1.4,59.88529570416393,
AB,Lag1_T1P_T2P,1,P,P,5,6,4,5,11,shark,Did you see the shark?,0.12,0.016,JPG\,cucumber,sponge01,alligator,pear01,greatwhiteshark,stapler06,clock04,battery02b,fork03c,binoculars01b,mushroom01,blankImage,blankImage,blankImage,blankImage,blankImage,blankImage,greatwhiteshark,,,,,,,,,,,,0,101,101,84,,,,,,,,,,,,,,,,,,,,,,,,,,,,,,,,,,,598.5612285000007,599.5605395000002,599.5440809000011,600.1045352000001,600.1045352000001,None,601.4618125000015,None,left,0.7270618999991711,601.4618125000015,None,602.2132893000016,None,right,0.2947764999989886,602.2132893000016,None,,,,,,,,,,,,,,,,,,,,,,,PPT57,001,2022-07-15_16h00.25.166,ABstudy,2022.1.4,59.88529570416393,
AB,Lag1_T1P_T2P,1,P,P,7,8,6,5,13,tiger,Did you see the tiger?,0.12,0.016,JPG\,globe,broccoli01a,binoculars01b,iron01b,avocado01,dandelion,tiger02,stapler03b,fan,pizza,celery,blueberry01,sewingmachine01a,blankImage,blankImage,blankImage,blankImage,tiger02,,,,,,,,,,,,0,102,102,50,,,,,,,,,,,,,,,,,,,,,,,,,,,,,,,,,,,602.5303464000008,603.5315404000012,603.5146289000004,604.082782200001,604.082782200001,None,605.7521597000014,None,left,0.483618899999783,605.7521597000014,None,606.2674540000007,None,right,0.28130849999979546,606.2674540000007,None,,,,,,,,,,,,,,,,,,,,,,,PPT57,001,2022-07-15_16h00.25.166,ABstudy,2022.1.4,59.88529570416393,
AB,Lag1_T1P_T2A,1,P,A,5,6,4,5,11,Electric toothbrush,Did you see the Electric toothbrush?,0.12,0.016,JPG\,carrot01,greenolive,fork03c,chain01,electrictoothbrush01c,watermelon01,tableknife02,printer02,comb02a,toaster01,orange,blankImage,blankImage,blankImage,blankImage,blankImage,blankImage,electrictoothbrush01c,,,,,,,,,,,,0,103,103,186,,,,,,,,,,,,,,,,,,,,,,,,,,,,,,,,,,,606.5723001000006,607.5853104000016,607.5521321000015,608.1131981000017,608.1131981000017,None,609.4890310999999,None,left,0.5632164999988163,609.4890310999999,None,610.0711288000002,None,right,0.31754819999878237,610.0711288000002,None,,,,,,,,,,,,,,,,,,,,,,,PPT57,001,2022-07-15_16h00.25.166,ABstudy,2022.1.4,59.88529570416393,
AB,Lag1_T1P_T2A,1,P,A,5,6,4,4,10,paper airplane,Did you see the paper airplane?,0.12,0.016,JPG\,thermometer02b,avocado01,scissors01,tennisball01b,paperairplane,banana01,strawberry,cigarette,potato02b,pineapple01a,blankImage,blankImage,blankImage,blankImage,blankImage,blankImage,blankImage,paperairplane,,,,,,,,,,,,0,104,104,191,,,,,,,,,,,,,,,,,,,,,,,,,,,,,,,,,,,610.4219172000012,611.4226434000011,611.4058533000007,611.9651458000008,611.9651458000008,None,613.2097446000007,None,left,0.7224170999979833,613.2097446000007,None,613.9583651000012,None,right,0.2141098999982205,613.9583651000012,None,,,,,,,,,,,,,,,,,,,,,,,PPT57,001,2022-07-15_16h00.25.166,ABstudy,2022.1.4,59.88529570416393,
AB,Lag1_T1A_T2P,1,A,P,8,9,7,4,13,Rabbit,Did you see the Rabbit?,0.12,0.016,JPG\,lamp04a,broccoli01a,alligator,garlic01a,dandelion,brownsugar,avocado01,ring01,stapler06,cellphone,medal02b,cd,calculator01,blankImage,blankImage,blankImage,blankImage,escalator,,,,,,,,,,,,0,105,105,254,,,,,,,,,,,,,,,,,,,,,,,,,,,,,,,,,,,614.1922914000006,615.1929522999999,615.1763568000006,615.7309708000012,615.7309708000012,None,617.387342,None,right,0.4643717999988439,617.387342,None,617.8789925000001,None,left,0.2608935999978712,617.8789925000001,None,,,,,,,,,,,,,,,,,,,,,,,PPT57,001,2022-07-15_16h00.25.166,ABstudy,2022.1.4,59.88529570416393,
AB,Lag1_T1P_T2P,1,P,P,5,6,4,4,10,skateboard,Did you see the skateboard?,0.12,0.016,JPG\,binoculars01b,cymbal,pizza,candy,skateboard,stapler05,grape01,thermometer02b,speaker04,lemon02,blankImage,blankImage,blankImage,blankImage,blankImage,blankImage,blankImage,skateboard,,,,,,,,,,,,0,106,106,25,,,,,,,,,,,,,,,,,,,,,,,,,,,,,,,,,,,618.1628552000002,619.1635242000011,619.1467736000013,619.7141035000004,619.7141035000004,None,620.9804289000003,None,left,0.4556040999996185,620.9804289000003,None,621.465900000001,None,right,0.2424713000000338,621.465900000001,None,,,,,,,,,,,,,,,,,,,,,,,PPT57,001,2022-07-15_16h00.25.166,ABstudy,2022.1.4,59.88529570416393,
AB,Lag5_T1P_T2P,5,P,P,6,11,5,4,15,punching bag,Did you see the punching bag?,0.12,0.016,JPG\,foosballtable,cigarette,pen04b,birthdaycandle,hammer01,punchingbag,binoculars01b,chain01,potato02b,cauliflower01,stapler04b,ashtray01,scarf,cellphone,calculator01,blankImage,blankImage,punchingbag,,,,,,,,,,,,0,107,107,156,,,,,,,,,,,,,,,,,,,,,,,,,,,,,,,,,,,621.7331945000005,622.7337743000007,622.7171512000004,623.2176739000006,623.2176739000006,None,625.2121769000005,None,left,0.3597730999990745,625.2121769000005,None,625.6043884999999,None,left,0.1912836999981664,625.6043884999999,None,,,,,,,,,,,,,,,,,,,,,,,PPT57,001,2022-07-15_16h00.25.166,ABstudy,2022.1.4,59.88529570416393,
AB,Lag5_T1P_T2A,5,P,A,8,13,7,5,18,Nunchuks,Did you see the Nunchuks?,0.12,0.016,JPG\,celery,tennisball01b,calculator01,pear01,screw02,orange,button01,nunchuk,onion,apple07,iron01b,brownsugar,banana01,paintbrush01,dandelion,toothbrush03b,blankImage,nunchuk,,,,,,,,,,,,0,108,108,218,,,,,,,,,,,,,,,,,,,,,,,,,,,,,,,,,,,625.8216326000002,626.8212881,626.8043632000008,627.3649017000007,627.3649017000007,None,629.3244171000006,None,left,0.3841889999985142,629.3244171000006,None,629.7259377999999,None,right,0.1905317999990075,629.7259377999999,None,,,,,,,,,,,,,,,,,,,,,,,PPT57,001,2022-07-15_16h00.25.166,ABstudy,2022.1.4,59.88529570416393,
AB,Lag1_T1P_T2P,1,P,P,8,9,7,3,12,Fire hydrant,Did you see the Fire hydrant?,0.12,0.016,JPG\,foosballtable,candy,envelope03a,microscope,pencil01,leaf02a,scissors01,firehydrant,stapler01,dandelion,pineapple01a,hammer01,blankImage,blankImage,blankImage,blankImage,blankImage,firehydrant,,,,,,,,,,,,0,109,109,83,,,,,,,,,,,,,,,,,,,,,,,,,,,,,,,,,,,629.9421206000006,630.9420507000013,630.9254171000011,631.4259146000004,631.4259146000004,None,632.9533549000007,None,left,0.786930599997504,632.9533549000007,None,633.7613969000013,None,left,0.7863145999999688,633.7613969000013,None,,,,,,,,,,,,,,,,,,,,,,,PPT57,001,2022-07-15_16h00.25.166,ABstudy,2022.1.4,59.88529570416393,
AB,Lag1_T1A_T2P,1,A,P,8,9,7,4,13,Christmas tree,Did you see the Christmas tree?,0.12,0.016,JPG\,broom01,globe,cellphone,tableknife02,cauliflower01,scissors01,ring01,alligator,stapler03a,toaster01,cigarette,grape01,microscope,blankImage,blankImage,blankImage,blankImage,windmill,,,,,,,,,,,,0,110,110,247,,,,,,,,,,,,,,,,,,,,,,,,,,,,,,,,,,,634.5797008000009,635.5798775000003,635.5633023999999,636.1169955000005,636.1169955000005,None,637.7983455000012,None,right,0.949804399999266,637.7983455000012,None,638.7680507000005,None,right,9.044542799998453,638.7680507000005,None,,,,,,,,,,,,,,,,,,,,,,,PPT57,001,2022-07-15_16h00.25.166,ABstudy,2022.1.4,59.88529570416393,
AB,Lag1_T1P_T2P,1,P,P,8,9,7,4,13,Doughnut,Did you see the Doughnut?,0.12,0.016,JPG\,brick,eraser,cucumber,ashtray01,thermometer02b,binoculars01b,lipstick02a,donut,stapler01,brownsugar,battery02b,iron01b,dice05a,blankImage,blankImage,blankImage,blankImage,donut,,,,,,,,,,,,0,111,111,39,,,,,,,,,,,,,,,,,,,,,,,,,,,,,,,,,,,647.8424293000007,648.8432698000015,648.8264640000016,649.3929502999999,649.3929502999999,None,651.0145140000004,None,left,0.6216365999989648,651.0145140000004,None,651.6627108000012,None,right,0.172828999997364,651.6627108000012,None,,,,,,,,,,,,,,,,,,,,,,,PPT57,001,2022-07-15_16h00.25.166,ABstudy,2022.1.4,59.88529570416393,
AB,Lag1_T1P_T2P,1,P,P,7,8,6,4,12,rooster,Did you see the rooster?,0.12,0.016,JPG\,pizza,strawberry,potato02b,speaker04,battery02b,iron01b,rooster,stapler03b,globe,banana01,medal02b,baseball01a,blankImage,blankImage,blankImage,blankImage,blankImage,rooster,,,,,,,,,,,,0,112,112,69,,,,,,,,,,,,,,,,,,,,,,,,,,,,,,,,,,,651.8632806000005,652.8636204000013,652.8472447000004,653.417625,653.417625,None,655.0163970000012,None,left,0.37993359999745735,655.0163970000012,None,655.4163962000002,None,left,0.1238374999993539,655.4163962000002,None,,,,,,,,,,,,,,,,,,,,,,,PPT57,001,2022-07-15_16h00.25.166,ABstudy,2022.1.4,59.88529570416393,
AB,Lag5_T1P_T2P,5,P,P,8,13,7,4,17,butterfly,Did you see the butterfly?,0.12,0.016,JPG\,speaker04,sewingmachine01a,eraser,violin,globe,belt02a,sunglasses04,butterfly,cd,greenolive,alligator,pear01,stapler01,screwdriver04b,banana01,cigarette,blankImage,butterfly,,,,,,,,,,,,0,113,113,126,,,,,,,,,,,,,,,,,,,,,,,,,,,,,,,,,,,655.5668155000003,656.5676430000003,656.5508112000007,657.1194173000004,657.1194173000004,None,659.0775398000005,None,left,0.3026135999989492,659.0775398000005,None,659.4035999000007,None,left,0.13684059999832243,659.4035999000007,None,,,,,,,,,,,,,,,,,,,,,,,PPT57,001,2022-07-15_16h00.25.166,ABstudy,2022.1.4,59.88529570416393,
AB,Lag5_T1P_T2P,5,P,P,6,11,5,3,14,shower head,Did you see the shower head?,0.12,0.016,JPG\,belt02a,measuringcup01,spoon01,chain01,greenolive,showerhead01,computerkeyboard02,onion,fan,strawberry,stapler01,broom01,binoculars01b,ashtray01,blankImage,blankImage,blankImage,showerhead01,,,,,,,,,,,,0,114,114,98,,,,,,,,,,,,,,,,,,,,,,,,,,,,,,,,,,,659.5706996000008,660.571527600001,660.5547979000003,661.1107745000008,661.1107745000008,None,662.855489900001,None,left,0.2850883999981306,662.855489900001,None,663.1573197000016,None,left,0.14278559999911522,663.1573197000016,None,,,,,,,,,,,,,,,,,,,,,,,PPT57,001,2022-07-15_16h00.25.166,ABstudy,2022.1.4,59.88529570416393,
AB,Lag1_T1P_T2P,1,P,P,5,6,4,5,11,golf ball,Did you see the golf ball?,0.12,0.016,JPG\,foosballtable,cigarette,pen04b,birthdaycandle,golfball,stapler05,binoculars01b,chain01,potato02b,cauliflower01,paintbrush01,blankImage,blankImage,blankImage,blankImage,blankImage,blankImage,golfball,,,,,,,,,,,,0,115,115,13,,,,,,,,,,,,,,,,,,,,,,,,,,,,,,,,,,,663.3249334000011,664.325303900001,664.3084060000001,664.8091129000004,664.8091129000004,None,666.2260084000009,None,left,0.36292499999763095,666.2260084000009,None,666.6117213000016,None,left,0.1198772999978246,666.6117213000016,None,,,,,,,,,,,,,,,,,,,,,,,PPT57,001,2022-07-15_16h00.25.166,ABstudy,2022.1.4,59.88529570416393,
AB,Lag5_T1P_T2P,5,P,P,7,12,6,5,17,statue,Did you see the statue?,0.12,0.016,JPG\,pear01,clock01a,cymbal,match,ashtray01,globe,statue,button01,lemon02,pen04b,dice05a,stapler06,toothbrush03b,screwdriver04b,feather03a,key01,blankImage,statue,,,,,,,,,,,,0,116,116,100,,,,,,,,,,,,,,,,,,,,,,,,,,,,,,,,,,,666.8201438000015,667.828810500001,667.7953627000006,668.3558623000008,668.3558623000008,None,670.247019800001,None,left,0.2775160999972286,670.247019800001,None,670.5482059000005,None,left,0.12732129999858444,670.5482059000005,None,,,,,,,,,,,,,,,,,,,,,,,PPT57,001,2022-07-15_16h00.25.166,ABstudy,2022.1.4,59.88529570416393,
AB,Lag5_T1A_T2A,5,A,A,5,10,4,5,15,truck,Did you see the truck?,0.12,0.016,JPG\,pizza,printer02,medal02b,spoon01,grape01,lighter01,belt02a,watermelon01,celery,battery02b,screw02,comb02a,cauliflower01,lipstick02a,potato02b,blankImage,blankImage,postalmailbox01,,,,,,,,,,,,0,117,117,297,,,,,,,,,,,,,,,,,,,,,,,,,,,,,,,,,,,670.6983937000005,671.6996679000003,671.6827052000008,672.2545520000003,672.2545520000003,None,674.1930894000016,None,right,0.3950989999975718,674.1930894000016,None,674.6189036000014,None,right,0.1453254999996716,674.6189036000014,None,,,,,,,,,,,,,,,,,,,,,,,PPT57,001,2022-07-15_16h00.25.166,ABstudy,2022.1.4,59.88529570416393,
AB,Lag1_T1P_T2P,1,P,P,7,8,6,3,11,tree,Did you see the tree?,0.12,0.016,JPG\,pear01,clock01a,cymbal,match,ashtray01,globe,tree,stapler03b,lemon02,pen04b,dice05a,blankImage,blankImage,blankImage,blankImage,blankImage,blankImage,tree,,,,,,,,,,,,0,118,118,51,,,,,,,,,,,,,,,,,,,,,,,,,,,,,,,,,,,674.7856905000008,675.7866282000014,675.7699334000008,676.3266818000011,676.3266818000011,None,677.7245846000005,None,left,0.335652999998274,677.7245846000005,None,678.0891917000008,None,left,0.25068219999957364,678.0891917000008,None,,,,,,,,,,,,,,,,,,,,,,,PPT57,001,2022-07-15_16h00.25.166,ABstudy,2022.1.4,59.88529570416393,
AB,Lag1_T1A_T2P,1,A,P,5,6,4,3,9,Crown,Did you see the Crown?,0.12,0.016,JPG\,leaf02a,pear01,measuringcup01,cigarette,fan,stapler04b,teabag,tableknife02,ring01,blankImage,blankImage,blankImage,blankImage,blankImage,blankImage,blankImage,blankImage,arrow02,,,,,,,,,,,,0,119,119,248,,,,,,,,,,,,,,,,,,,,,,,,,,,,,,,,,,,678.3727877000001,679.3736772000011,679.356827900001,679.9130609000003,679.9130609000003,None,681.1227267000013,None,right,0.6253703999991558,681.1227267000013,None,681.7761379000003,None,right,0.24353809999956866,681.7761379000003,None,,,,,,,,,,,,,,,,,,,,,,,PPT57,001,2022-07-15_16h00.25.166,ABstudy,2022.1.4,59.88529570416393,
AB,Lag1_T1P_T2A,1,P,A,5,6,4,4,10,flower,Did you see the flower?,0.12,0.016,JPG\,broom01,globe,cellphone,tableknife02,daffodil,scissors01,ring01,alligator,rice,toaster01,blankImage,blankImage,blankImage,blankImage,blankImage,blankImage,blankImage,daffodil,,,,,,,,,,,,0,120,120,184,,,,,,,,,,,,,,,,,,,,,,,,,,,,,,,,,,,682.0471868000004,683.0605153000015,683.0275145000014,683.5840537000004,683.5840537000004,None,684.8988653000015,None,left,0.34655319999910716,684.8988653000015,None,685.2625533999999,None,left,0.13329439999870374,685.2625533999999,None,,,,,,,,,,,,,,,,,,,,,,,PPT57,001,2022-07-15_16h00.25.166,ABstudy,2022.1.4,59.88529570416393,
AB,Lag5_T1P_T2A,5,P,A,6,11,5,3,14,Balcony,Did you see the Balcony?,0.12,0.016,JPG\,tomato01,pen04b,shirt02,carrot01,lamp04a,balcony02,pizza,avocado01,sewingmachine01a,apple07,iron01b,book01b,chain01,sock01a,blankImage,blankImage,blankImage,balcony02,,,,,,,,,,,,0,121,121,207,,,,,,,,,,,,,,,,,,,,,,,,,,,,,,,,,,,685.4136537000013,686.4140602000007,686.3973912000001,686.9646329000007,686.9646329000007,None,688.7892386000003,None,left,0.622858399998222,688.7892386000003,None,689.4334166000008,None,right,0.14660909999838623,689.4334166000008,None,,,,,,,,,,,,,,,,,,,,,,,PPT57,001,2022-07-15_16h00.25.166,ABstudy,2022.1.4,59.88529570416393,
AB,Lag5_T1P_T2A,5,P,A,5,10,4,3,13,fan,Did you see the fan?,0.12,0.016,JPG\,scissors01,grape01,mushroom01,toiletpaper01a,fanheater,pizza,cigarette,ashtray01,carrot01,pineapple01a,foosballtable,lipstick02a,teabag,blankImage,blankImage,blankImage,blankImage,fanheater,,,,,,,,,,,,0,122,122,220,,,,,,,,,,,,,,,,,,,,,,,,,,,,,,,,,,,689.6003535,690.6015491000016,690.5848596000014,691.1401713000014,691.1401713000014,None,692.7875518000001,None,left,0.7204890999983036,692.7875518000001,None,693.5377427000003,None,right,0.21005150000019057,693.5377427000003,None,,,,,,,,,,,,,,,,,,,,,,,PPT57,001,2022-07-15_16h00.25.166,ABstudy,2022.1.4,59.88529570416393,
AB,Lag1_T1P_T2P,1,P,P,8,9,7,3,12,cactus,Did you see the cactus?,0.12,0.016,JPG\,tennisball01b,paintbrush01,medal02b,apple07,speaker04,iron01b,avocado01,cactus,stapler03b,toiletpaper01a,watermelon01,candle01,blankImage,blankImage,blankImage,blankImage,blankImage,cactus,,,,,,,,,,,,0,123,123,58,,,,,,,,,,,,,,,,,,,,,,,,,,,,,,,,,,,693.7712302,694.7721087000009,694.7556099000012,695.3221698000016,695.3221698000016,None,696.8289285999999,None,left,0.5904847999991034,696.8289285999999,None,697.4415569000012,None,right,0.17006729999775416,697.4415569000012,None,,,,,,,,,,,,,,,,,,,,,,,PPT57,001,2022-07-15_16h00.25.166,ABstudy,2022.1.4,59.88529570416393,
AB,Lag1_T1P_T2P,1,P,P,8,9,7,4,13,bowling ball,Did you see the bowling ball?,0.12,0.016,JPG\,dandelion,pineapple01a,broom01,pen04b,sock01a,sandal,foosballtable,bowlingball,stapler01,toothbrush03b,celery,candle08b,tennisball01b,blankImage,blankImage,blankImage,blankImage,bowlingball,,,,,,,,,,,,0,124,124,7,,,,,,,,,,,,,,,,,,,,,,,,,,,,,,,,,,,697.6419864,698.6427747000016,698.6257841000006,699.1264952000001,699.1264952000001,None,700.8196977000007,None,right,0.9604081999987102,700.8196977000007,None,701.8124094000013,None,left,0.176522699999623,701.8124094000013,None,,,,,,,,,,,,,,,,,,,,,,,PPT57,001,2022-07-15_16h00.25.166,ABstudy,2022.1.4,59.88529570416393,
AB,Lag1_T1P_T2P,1,P,P,6,7,5,3,10,jelly beans,Did you see the jelly beans?,0.12,0.016,JPG\,lipstick02a,cucumber,candle08b,printer02,grape01,jellybean,stapler01,lighter01,belt02a,balloon01b,blankImage,blankImage,blankImage,blankImage,blankImage,blankImage,blankImage,jellybean,,,,,,,,,,,,0,125,125,15,,,,,,,,,,,,,,,,,,,,,,,,,,,,,,,,,,,702.0132034000017,703.0137221000005,702.9974861999999,703.5516154000015,703.5516154000015,None,704.8031212000005,None,left,0.6086899999991147,704.8031212000005,None,705.4329751000005,None,left,0.1549719999984518,705.4329751000005,None,,,,,,,,,,,,,,,,,,,,,,,PPT57,001,2022-07-15_16h00.25.166,ABstudy,2022.1.4,59.88529570416393,
AB,Lag5_T1A_T2P,5,A,P,6,11,5,4,15,butterfly,Did you see the butterfly?,0.12,0.016,JPG\,comb02a,key01,medal02b,battery02b,lighter01,microscope,watermelon01,sandal,pig,cellphone,stapler06,calculator01,cymbal,clock04,cucumber,blankImage,blankImage,uprightpiano01,,,,,,,,,,,,0,126,126,276,,,,,,,,,,,,,,,,,,,,,,,,,,,,,,,,,,,705.6167306000007,706.6172990000014,706.6006678000012,707.1579781,707.1579781,None,709.0080126000012,None,right,0.5162768999998661,709.0080126000012,None,709.5535435000002,None,left,0.1947943999985,709.5535435000002,None,,,,,,,,,,,,,,,,,,,,,,,PPT57,001,2022-07-15_16h00.25.166,ABstudy,2022.1.4,59.88529570416393,
AB,Lag1_T1P_T2P,1,P,P,7,8,6,4,12,cow,Did you see the cow?,0.12,0.016,JPG\,fork03c,plate01b,toiletpaper01a,greenolive,rice,blueberry01,cow,stapler01,envelope03a,orange,book01b,pencil01,blankImage,blankImage,blankImage,blankImage,blankImage,cow,,,,,,,,,,,,0,127,127,59,,,,,,,,,,,,,,,,,,,,,,,,,,,,,,,,,,,709.7705689000013,710.7715704000002,710.7548803000009,711.3054644000003,711.3054644000003,None,712.8165927000009,None,left,0.31634239999948477,712.8165927000009,None,713.1571761000014,None,left,0.15061649999915971,713.1571761000014,None,,,,,,,,,,,,,,,,,,,,,,,PPT57,001,2022-07-15_16h00.25.166,ABstudy,2022.1.4,59.88529570416393,
AB,Lag1_T1P_T2P,1,P,P,8,9,7,3,12,bridge,Did you see the bridge?,0.12,0.016,JPG\,speaker04,sewingmachine01a,eraser,violin,globe,belt02a,sunglasses04,bridge,stapler01,greenolive,alligator,pear01,blankImage,blankImage,blankImage,blankImage,blankImage,bridge,,,,,,,,,,,,0,128,128,78,,,,,,,,,,,,,,,,,,,,,,,,,,,,,,,,,,,713.3251388000008,714.3249859000007,714.3083974000001,714.8736136000007,714.8736136000007,None,716.3974804000009,None,left,0.3109664999992674,716.3974804000009,None,716.7274584000006,None,left,0.148522999998022,716.7274584000006,None,,,,,,,,,,,,,,,,,,,,,,,PPT57,001,2022-07-15_16h00.25.166,ABstudy,2022.1.4,59.88529570416393,
AB,Lag5_T1A_T2P,5,A,P,6,11,5,3,14,saxophone,Did you see the saxophone?,0.12,0.016,JPG\,globe,belt02a,sponge01,violin,fork03c,tomato01,clock01a,microscope,balloon01b,scarf,stapler03b,pen04b,brick,brownsugar,blankImage,blankImage,blankImage,microphone01,,,,,,,,,,,,0,129,129,267,,,,,,,,,,,,,,,,,,,,,,,,,,,,,,,,,,,716.9231158000002,717.9287369000012,717.9117780000015,718.4811641000015,718.4811641000015,None,720.0823200000013,None,right,0.5620775999996113,720.0823200000013,None,720.6646313000001,None,left,0.1629185999991023,720.6646313000001,None,,,,,,,,,,,,,,,,,,,,,,,PPT57,001,2022-07-15_16h00.25.166,ABstudy,2022.1.4,59.88529570416393,
AB,Lag1_T1P_T2P,1,P,P,5,6,4,4,10,Ladybug,Did you see the Ladybug?,0.12,0.016,JPG\,key01,apple07,ring01,leaf02a,ladybug03,stapler04b,violin,sponge01,baseball01a,thermometer02b,blankImage,blankImage,blankImage,blankImage,blankImage,blankImage,blankImage,ladybug03,,,,,,,,,,,,0,130,130,65,,,,,,,,,,,,,,,,,,,,,,,,,,,,,,,,,,,720.8486234000011,721.8491312000006,721.832548800001,722.3883971000014,722.3883971000014,None,723.6618454,None,left,0.3259632999979658,723.6618454,None,724.0179011,None,left,0.13011529999857885,724.0179011,None,,,,,,,,,,,,,,,,,,,,,,,PPT57,001,2022-07-15_16h00.25.166,ABstudy,2022.1.4,59.88529570416393,
AB,Lag1_T1A_T2A,1,A,A,8,9,7,5,14,Ping pong Table,Did you see the Ping pong Table?,0.12,0.016,JPG\,pineapple01a,tennisball01b,computerkeyboard02,feather03a,belt02a,acorn,violin,blueberry01,medal02b,alligator,greenolive,screwdriver04b,potato02b,fork03c,blankImage,blankImage,blankImage,statue,,,,,,,,,,,,0,131,131,287,,,,,,,,,,,,,,,,,,,,,,,,,,,,,,,,,,,724.168929200001,725.1692149999999,725.1524082000014,725.7155200000016,725.7155200000016,None,727.4798718000002,None,right,1.6277195999973628,727.4798718000002,None,729.1396563000017,None,right,0.25682399999823247,729.1396563000017,None,,,,,,,,,,,,,,,,,,,,,,,PPT57,001,2022-07-15_16h00.25.166,ABstudy,2022.1.4,59.88529570416393,
AB,Lag5_T1A_T2P,5,A,P,7,12,6,3,15,Car,Did you see the Car?,0.12,0.016,JPG\,lighter01,hammer01,spoon01,chain01,cymbal,sponge01,lipstick02a,alligator,pig,watermelon01,cauliflower01,stapler03b,broccoli01a,tableknife02,tennisball01b,blankImage,blankImage,wallclock,,,,,,,,,,,,0,132,132,277,,,,,,,,,,,,,,,,,,,,,,,,,,,,,,,,,,,729.4233817000004,730.4243618,730.4077811000006,730.9676748000002,730.9676748000002,None,732.8459042000013,None,right,0.48609859999851324,732.8459042000013,None,733.3608727999999,None,left,0.37078419999852485,733.3608727999999,None,,,,,,,,,,,,,,,,,,,,,,,PPT57,001,2022-07-15_16h00.25.166,ABstudy,2022.1.4,59.88529570416393,
AB,Lag5_T1P_T2A,5,P,A,8,13,7,3,16,Shelves,Did you see the Shelves?,0.12,0.016,JPG\,pineapple01a,leaf02a,grape01,toiletpaper01a,match,tennisball01b,spoon01,shelves,pig,measuringcup01,ring01,lemon02,dice05a,pizza,potato02b,eraser,blankImage,shelves,,,,,,,,,,,,0,133,133,222,,,,,,,,,,,,,,,,,,,,,,,,,,,,,,,,,,,733.7612041000011,734.7622854000001,734.7452301000012,735.3060857,735.3060857,None,737.2615547000005,None,left,0.6145007999984955,737.2615547000005,None,737.8986414999999,None,right,0.47290869999960705,737.8986414999999,None,,,,,,,,,,,,,,,,,,,,,,,PPT57,001,2022-07-15_16h00.25.166,ABstudy,2022.1.4,59.88529570416393,
AB,Lag1_T1P_T2A,1,P,A,5,6,4,5,11,Toaster oven,Did you see the Toaster oven?,0.12,0.016,JPG\,fork03c,toothbrush03b,cellphone,fan,toasteroven,clock01a,ring01,eraser,sunglasses04,thermometer02b,violin,blankImage,blankImage,blankImage,blankImage,blankImage,blankImage,toasteroven,,,,,,,,,,,,0,134,134,200,,,,,,,,,,,,,,,,,,,,,,,,,,,,,,,,,,,738.4461647000007,739.4501929000016,739.4334021000013,739.9849334999999,739.9849334999999,None,741.2974440000016,None,left,0.6589294999994308,741.2974440000016,None,741.9859178000006,None,right,0.2977367999992566,741.9859178000006,None,,,,,,,,,,,,,,,,,,,,,,,PPT57,001,2022-07-15_16h00.25.166,ABstudy,2022.1.4,59.88529570416393,
AB,Lag5_T1P_T2P,5,P,P,6,11,5,5,16,motorcycle,Did you see the motorcycle?,0.12,0.016,JPG\,cucumber,ring01,lipstick02a,microscope,violin,motorcycle,celery,lighter01,cherry01,sewingmachine01a,stapler04b,key01,binoculars01b,medal02b,watermelon01,dice05a,blankImage,motorcycle,,,,,,,,,,,,0,135,135,93,,,,,,,,,,,,,,,,,,,,,,,,,,,,,,,,,,,742.3029773000017,743.3037800000002,743.2872499000005,743.8468618000006,743.8468618000006,None,745.8276502000008,None,left,0.3282069999986561,745.8276502000008,None,746.1734775000004,None,left,0.1598662999986118,746.1734775000004,None,,,,,,,,,,,,,,,,,,,,,,,PPT57,001,2022-07-15_16h00.25.166,ABstudy,2022.1.4,59.88529570416393,
AB,Lag5_T1P_T2P,5,P,P,8,13,7,4,17,surf board,Did you see the surf board?,0.12,0.016,JPG\,candy,brownsugar,dice05a,cd,sock01a,blueberry01,button01,surfboard,feather03a,grape01,dandelion,scissors01,stapler03b,candle08b,book01b,globe,blankImage,surfboard,,,,,,,,,,,,0,136,136,142,,,,,,,,,,,,,,,,,,,,,,,,,,,,,,,,,,,746.4040551000016,747.4080895000006,747.3910618000009,747.9467902000015,747.9467902000015,None,749.9097389000017,None,left,0.317788099997415,749.9097389000017,None,750.2441949000004,None,left,0.14337639999757812,750.2441949000004,None,,,,,,,,,,,,,,,,,,,,,,,PPT57,001,2022-07-15_16h00.25.166,ABstudy,2022.1.4,59.88529570416393,
AB,Lag5_T1P_T2A,5,P,A,6,11,5,4,15,Spear,Did you see the Spear?,0.12,0.016,JPG\,belt02a,measuringcup01,spoon01,chain01,greenolive,spear02,computerkeyboard02,onion,fan,strawberry,candle01,broom01,binoculars01b,ashtray01,pingpongpaddle01c,blankImage,blankImage,spear02,,,,,,,,,,,,0,137,137,227,,,,,,,,,,,,,,,,,,,,,,,,,,,,,,,,,,,750.4110381999999,751.4119005000011,751.3952845000003,751.9523032000016,751.9523032000016,None,753.8229224000006,None,left,0.3971873999980744,753.8229224000006,None,754.2481871,None,right,0.27657949999957054,754.2481871,None,,,,,,,,,,,,,,,,,,,,,,,PPT57,001,2022-07-15_16h00.25.166,ABstudy,2022.1.4,59.88529570416393,
