TrialType,CondType,Lag,T1_PA,T2_PA,T1Loc,T2Loc,PreDistractor,PostDistractor,TotalImg,cueWord,T1cue,StimLength,isi,PicFolder,Img1,Img2,Img3,Img4,Img5,Img6,Img7,Img8,Img9,Img10,Img11,Img12,Img13,Img14,Img15,Img16,Img17,T1_Identity,ImageType,T1PA,T2PA,Picture,Image,FullPathName,FilePath,Practice_Trials.thisRepN,Practice_Trials.thisTrialN,Practice_Trials.thisN,Practice_Trials.thisIndex,trials.thisRepN,trials.thisTrialN,trials.thisN,trials.thisIndex,trials_2.thisRepN,trials_2.thisTrialN,trials_2.thisN,trials_2.thisIndex,Practice_Ins.started,Practice_Ins.stopped,End_Prac_Ins.keys,End_Prac_Ins.rt,End_Prac_Ins.started,End_Prac_Ins.stopped,text_2.started,text_2.stopped,Fixation_Cross_2.started,Fixation_Cross_2.stopped,Rapid_Image_Present_2.started,Rapid_Image_Present_2.stopped,key_resp.keys,key_resp.rt,key_resp.started,key_resp.stopped,T1Response_2.started,T1Response_2.stopped,T2Response_2.started,T2Response_2.stopped,key_resp_4.keys,key_resp_4.rt,key_resp_4.started,key_resp_4.stopped,text.started,text.stopped,End_Instructions.keys,End_Instructions.rt,End_Instructions.started,End_Instructions.stopped,text_5.started,text_5.stopped,FC.started,FC.stopped,Rapid_Image_Present.started,Rapid_Image_Present.stopped,T1Response.started,T1Response.stopped,key_resp_2.keys,key_resp_2.rt,key_resp_2.started,key_resp_2.stopped,T2Response.started,T2Response.stopped,key_resp_3.keys,key_resp_3.rt,key_resp_3.started,key_resp_3.stopped,text_6.started,text_6.stopped,Fin_ins.keys,Fin_ins.rt,Fin_ins.started,Fin_ins.stopped,MemTest.started,MemTest.stopped,MemResponse.keys,MemResponse.rt,MemResponse.started,MemResponse.stopped,Display.started,Display.stopped,text_7.started,text_7.stopped,endOfExperiment.started,endOfExperiment.stopped,key_resp_5.keys,key_resp_5.rt,key_resp_5.started,key_resp_5.stopped,participant,session,date,expName,psychopyVersion,frameRate,
,,,,,,,,,,,,,,,,,,,,,,,,,,,,,,,,,,,,,,,,,,,,,,,,,,,,23.366398100042716,None,space,25.049494800157845,23.366398100042716,None,,,,,,,,,,,,,,,,,,,,,,,,,,,,,,,,,,,,,,,,,,,,,,,,,,,,,,,,,,,,,,,,,PPT51,001,2022-07-12_14h50.11.074,ABstudy,2022.1.4,59.919851210580084,
AB_Prac,Lag5_T1P_T2P,5,P,P,5,10,4,5,15,Vulture,Did you see the Vulture?,0.5,0.016,JPG\,shorts01,toast,ramekin01,bib,vulture,cracker02,date,glasses01a,hat03b,stapler01,measuringtape01,nail,pill,drum01,starfish01,blankImage,blankImage,vulture,,,,,,,,0,0,0,3,,,,,,,,,,,,,,,48.505108800018206,49.509893300011754,49.493348400108516,50.14825530000962,50.14825530000962,None,left,0.9575566002167761,57.602148100035265,None,57.602148100035265,None,58.585406499914825,None,left,0.8141835001297295,58.585406499914825,None,,,,,,,,,,,,,,,,,,,,,,,,,,,,,,,,,,,,,,,,,,,,,,,PPT51,001,2022-07-12_14h50.11.074,ABstudy,2022.1.4,59.919851210580084,
AB_Prac,Lag5_T1P_T2A,5,P,A,6,11,5,5,16,Wheat,Did you see the Wheat?,0.5,0.016,JPG\,bottleopener01,dentalfloss03b,cooler01,icecreamcone01a,paperclip01b,wheat,pencilsharpener02a,plasticbasket01a,toycar04,apricot,hairclip02,rock01a,honeydewmelon,antenna,blackberry,cardboardbox,blankImage,wheat,,,,,,,,0,1,1,7,,,,,,,,,,,,,,,59.42645219992846,60.437234400073066,60.42056160001084,60.996019300073385,60.996019300073385,None,left,0.8064305000007153,69.01091680000536,None,69.01091680000536,None,69.84709329996258,None,right,0.633244700031355,69.84709329996258,None,,,,,,,,,,,,,,,,,,,,,,,,,,,,,,,,,,,,,,,,,,,,,,,PPT51,001,2022-07-12_14h50.11.074,ABstudy,2022.1.4,59.919851210580084,
AB_Prac,Lag5_T1P_T2P,5,P,P,7,12,6,3,15,vacuum,Did you see the vacuum?,0.5,0.016,JPG\,fork07b,lightbulb01,manshoe,saw02b,shoelace,soap03a,vacuumcleaner01,floortile01,necklace,doll,cabbage,stapler03a,hanger02a,laptop01a,nailpolish03b,blankImage,blankImage,vacuumcleaner01,,,,,,,,0,2,2,2,,,,,,,,,,,,,,,70.51336569990963,71.51506350003183,71.49836859991774,72.10465240012854,72.10465240012854,None,left,0.7147804000414908,79.66104879998602,None,79.66104879998602,None,80.40699320007116,None,left,0.6570115999784321,80.40699320007116,None,,,,,,,,,,,,,,,,,,,,,,,,,,,,,,,,,,,,,,,,,,,,,,,PPT51,001,2022-07-12_14h50.11.074,ABstudy,2022.1.4,59.919851210580084,
AB_Prac,Lag5_T1P_T2P,5,P,P,5,10,4,5,15,washing machine,Did you see the washing machine?,0.5,0.016,JPG\,waterbottle03,wheel01,flashlight02b,zucchini01,washingmachine,headphones02b,nutcracker01,paintroller01,paperclip03,stapler06,ribbon04,electricrazor,bottleofredwine01,pitabread,pot02a,blankImage,blankImage,washingmachine,,,,,,,,0,3,3,4,,,,,,,,,,,,,,,81.09842940000817,82.10886069992557,82.09224079991691,82.68274209997617,82.68274209997617,None,left,0.4967114001046866,90.16774499998428,None,90.16774499998428,None,90.68347749998793,None,left,0.5322928999084979,90.68347749998793,None,,,,,,,,,,,,,,,,,,,,,,,,,,,,,,,,,,,,,,,,,,,,,,,PPT51,001,2022-07-12_14h50.11.074,ABstudy,2022.1.4,59.919851210580084,
AB_Prac,Lag5_T1A_T2P,5,A,P,6,11,5,3,14,dog,Did you see the dog?,0.5,0.016,JPG\,bucket01a,doorlock,cookiecutter,fireextinguisher01,gluestick,highlighter02b,sportbag,spraybottle01,suitcase,thread02,stapler05,walnut01c,icecubetray01a,vikingmask01b,blankImage,blankImage,blankImage,None,,,,,,,,0,4,4,9,,,,,,,,,,,,,,,91.23775679990649,92.25256870011799,92.2188641000539,92.84091300005093,92.84091300005093,None,right,1.1652152999304235,99.83451419998892,None,99.83451419998892,None,101.02771900012158,None,left,1.2919902000576258,101.02771900012158,None,,,,,,,,,,,,,,,,,,,,,,,,,,,,,,,,,,,,,,,,,,,,,,,PPT51,001,2022-07-12_14h50.11.074,ABstudy,2022.1.4,59.919851210580084,
AB_Prac,Lag1_T1A_T2A,1,A,A,8,9,7,3,12,Moose,Did you see the Moose?,0.5,0.016,JPG\,clothespin03b,corkscrew03a,drillbit03a,fusilli03a,needlenosepliers01,perfume01a,pistachio,scrubbingbrush05b,spatula03,toothpastetube,hinge,toydinosaur,blankImage,blankImage,blankImage,blankImage,blankImage,None,,,,,,,,0,5,5,10,,,,,,,,,,,,,,,102.34750330005772,103.36290420009755,103.34620369994082,103.97130939993076,103.90275810007006,None,right,0.8646615000907332,109.93473470001481,None,109.93473470001481,None,110.8207614000421,None,right,0.8510284000076354,110.8207614000421,None,,,,,,,,,,,,,,,,,,,,,,,,,,,,,,,,,,,,,,,,,,,,,,,PPT51,001,2022-07-12_14h50.11.074,ABstudy,2022.1.4,59.919851210580084,
AB_Prac,Lag5_T1P_T2A,5,P,A,6,11,5,5,16,bread,Did you see the bread?,0.5,0.016,JPG\,cleaver01,clipboard,dustpan,hikingshoe01,notebook03a,baguette01,playingcard,pliers02b,styrofoamcup,rollingpin01a,swimgoggles,wineglass01,fryingpan02a,safetypin,syringe01,thimble,blankImage,baguette01,,,,,,,,0,6,6,8,,,,,,,,,,,,,,,111.7002167000901,112.7059053000994,112.67251190007664,113.25316670001484,113.25316670001484,None,left,0.785955100087449,121.3341236000415,None,121.3341236000415,None,122.14855180005543,None,right,0.4910828999709338,122.14855180005543,None,,,,,,,,,,,,,,,,,,,,,,,,,,,,,,,,,,,,,,,,,,,,,,,PPT51,001,2022-07-12_14h50.11.074,ABstudy,2022.1.4,59.919851210580084,
AB_Prac,Lag5_T1A_T2A,5,A,A,6,11,5,5,16,castle,Did you see the castle?,0.5,0.016,JPG\,tape02a,englishmuffin,flask,ladle02a,monitor,peach01,keychain,squeegee01b,telephone01b,whisk,walkman,syringe02,baguette01,coaster,box01a,coffeepot03a,blankImage,None,,,,,,,,0,7,7,11,,,,,,,,,,,,,,,122.66993100009859,123.6836433999706,123.66703250003047,124.2561842999421,124.2561842999421,None,right,1.0116016999818385,132.3646788999904,None,132.3646788999904,None,133.39318970008753,None,right,0.5836918000131845,133.39318970008753,None,,,,,,,,,,,,,,,,,,,,,,,,,,,,,,,,,,,,,,,,,,,,,,,PPT51,001,2022-07-12_14h50.11.074,ABstudy,2022.1.4,59.919851210580084,
AB_Prac,Lag1_T1P_T2P,1,P,P,6,7,5,5,12,triangle,Did you see the triangle?,0.5,0.016,JPG\,ginger,mousetrap,plum01,slipper01b,dropper01,triangle,stapler04b,pants,raspberry01,rope03,scale01a,vase01,blankImage,blankImage,blankImage,blankImage,blankImage,triangle,,,,,,,,0,8,8,1,,,,,,,,,,,,,,,133.99779550009407,135.0115294000134,134.99494000012055,135.6144415999297,135.6144415999297,None,left,0.8168204999528825,141.65450530010276,None,141.65450530010276,None,142.5022742000874,None,left,0.5130486998241395,142.5022742000874,None,,,,,,,,,,,,,,,,,,,,,,,,,,,,,,,,,,,,,,,,,,,,,,,PPT51,001,2022-07-12_14h50.11.074,ABstudy,2022.1.4,59.919851210580084,
AB_Prac,Lag1_T1P_T2A,1,P,A,5,6,4,5,11,Webcam,Did you see the Webcam?,0.5,0.016,JPG\,pictureframe04,binder03b,straw,adjustablewrench01b,webcam,cane,hairdryer02a,icepack,kitchenscale01a,lifejacket,piggybank,blankImage,blankImage,blankImage,blankImage,blankImage,blankImage,webcam,,,,,,,,0,9,9,6,,,,,,,,,,,,,,,143.04122449993156,144.05382640007883,144.0371240999084,144.63828469999135,144.63828469999135,None,left,1.082194099901244,150.10964659997262,None,150.10964659997262,None,151.21235630009323,None,right,0.6517311001662165,151.21235630009323,None,,,,,,,,,,,,,,,,,,,,,,,,,,,,,,,,,,,,,,,,,,,,,,,PPT51,001,2022-07-12_14h50.11.074,ABstudy,2022.1.4,59.919851210580084,
AB_Prac,Lag1_T1P_T2A,1,P,A,8,9,7,5,14,flower,Did you see the flower?,0.5,0.016,JPG\,razor01,axe01,binder03b,bowl01,kettle01,lettuce,lime,plasticflower01b,mitten04,pencilcase01,plunger02,strawbasket01,toothpick02,wallet02a,blankImage,blankImage,blankImage,plasticflower01b,,,,,,,,0,10,10,5,,,,,,,,,,,,,,,151.90809629997239,152.91223699995317,152.87884759996086,153.4583976001013,153.4583976001013,None,left,0.5949627000372857,160.54855250008404,None,160.54855250008404,None,161.170880000107,None,right,0.4766151998192072,161.170880000107,None,,,,,,,,,,,,,,,,,,,,,,,,,,,,,,,,,,,,,,,,,,,,,,,PPT51,001,2022-07-12_14h50.11.074,ABstudy,2022.1.4,59.919851210580084,
AB_Prac,Lag1_T1P_T2P,1,P,P,8,9,7,5,14,Tennis racket,Did you see the Tennis racket?,0.5,0.016,JPG\,coconut,computermouse06,croissant01,deodorant02a,pillow01a,peanut01,boot02b,tennisracket,stapler03b,crayon,eggplant,marker01a,plant01,radish01,blankImage,blankImage,blankImage,tennisracket,,,,,,,,0,11,11,0,,,,,,,,,,,,,,,161.6820034000557,162.68899050005712,162.67230310011655,163.29775490006432,163.29775490006432,None,left,0.8931479998864233,170.30616530007683,None,170.30616530007683,None,171.23084639990702,None,left,1.7450150998774916,171.23084639990702,None,,,,,,,,,,,,,,,,,,,,,,,,,,,,,,,,,,,,,,,,,,,,,,,PPT51,001,2022-07-12_14h50.11.074,ABstudy,2022.1.4,59.919851210580084,
,,,,,,,,,,,,,,,,,,,,,,,,,,,,,,,,,,,,,,,,,,,,,,,,,,,,,,,,,,,,,,,,,,,,,,,,,,,,172.9992885000538,None,space,14.504131000023335,172.9992885000538,None,,,,,,,,,,,,,,,,,,,,,,,,,,,,,,,,,,,,,,,,,PPT51,001,2022-07-12_14h50.11.074,ABstudy,2022.1.4,59.919851210580084,
AB,Lag1_T1P_T2P,1,P,P,7,8,6,5,13,disco ball,Did you see the disco ball?,0.12,0.016,JPG\,candle01,paintbrush01,scissors01,fan,microscope,toothbrush03b,discoball,stapler03b,teabag,pencil01,lemon02,ashtray01,shirt02,blankImage,blankImage,blankImage,blankImage,discoball,,,,,,,,,,,,0,0,0,60,,,,,,,,,,,,,,,,,,,,,,,,,,,,,,,,,,,188.2110286001116,189.21522910008207,189.19852799992077,189.80125849996693,189.80125849996693,None,191.41617049998604,None,left,0.7990856000687927,191.41617049998604,None,192.23564269999042,None,left,0.4996794001199305,192.23564269999042,None,,,,,,,,,,,,,,,,,,,,,,,PPT51,001,2022-07-12_14h50.11.074,ABstudy,2022.1.4,59.919851210580084,
AB,Lag1_T1P_T2P,1,P,P,5,6,4,3,9,mail box,Did you see the mail box?,0.12,0.016,JPG\,watermelon01,banana01,ring01,pencil01,mailbox02,stapler04b,cucumber,thermometer02b,key01,blankImage,blankImage,blankImage,blankImage,blankImage,blankImage,blankImage,blankImage,mailbox02,,,,,,,,,,,,0,1,1,21,,,,,,,,,,,,,,,,,,,,,,,,,,,,,,,,,,,192.76292770006694,193.76995730004273,193.75323219993152,194.35160119994543,194.35160119994543,None,195.45486659999005,None,left,1.9698703000321984,195.45486659999005,None,197.45676440000534,None,left,0.4709764998406172,197.45676440000534,None,,,,,,,,,,,,,,,,,,,,,,,PPT51,001,2022-07-12_14h50.11.074,ABstudy,2022.1.4,59.919851210580084,
AB,Lag5_T1A_T2P,5,A,P,5,10,4,5,15,Eye patch,Did you see the Eye patch?,0.12,0.016,JPG\,scissors01,balloon01b,eraser,feather03a,banana01,candle01,measuringcup01,calculator01,thermometer02b,stapler03b,pear01,carrot01,globe,baseball01a,leaf02a,blankImage,blankImage,cross01,,,,,,,,,,,,0,2,2,258,,,,,,,,,,,,,,,,,,,,,,,,,,,,,,,,,,,197.96403799997643,198.97518260008655,198.95839740009978,199.54352760012262,199.54352760012262,None,201.34349819994532,None,right,0.9857336999848485,201.34349819994532,None,202.34665390010923,None,right,0.5810981001704931,202.34665390010923,None,,,,,,,,,,,,,,,,,,,,,,,PPT51,001,2022-07-12_14h50.11.074,ABstudy,2022.1.4,59.919851210580084,
AB,Lag5_T1P_T2A,5,P,A,5,10,4,3,13,martini glass,Did you see the martini glass?,0.12,0.016,JPG\,brick,eraser,cucumber,ashtray01,martiniglass01b,binoculars01b,lipstick02a,screwdriver04b,grape01,brownsugar,battery02b,iron01b,dice05a,blankImage,blankImage,blankImage,blankImage,martiniglass01b,,,,,,,,,,,,0,3,3,217,,,,,,,,,,,,,,,,,,,,,,,,,,,,,,,,,,,203.0154299000278,204.03011510008946,204.01344919996336,204.66398760001175,204.66398760001175,None,206.13353409990668,None,right,1.6098752000834793,206.13353409990668,None,207.7670180001296,None,left,0.4880981999449432,207.7670180001296,None,,,,,,,,,,,,,,,,,,,,,,,PPT51,001,2022-07-12_14h50.11.074,ABstudy,2022.1.4,59.919851210580084,
AB,Lag1_T1P_T2P,1,P,P,7,8,6,3,11,Daddy Long Legs,Did you see the Daddy Long Legs?,0.12,0.016,JPG\,lighter01,hammer01,spoon01,chain01,cymbal,sponge01,daddylonglegs,stapler03b,pig,watermelon01,cauliflower01,blankImage,blankImage,blankImage,blankImage,blankImage,blankImage,daddylonglegs,,,,,,,,,,,,0,4,4,86,,,,,,,,,,,,,,,,,,,,,,,,,,,,,,,,,,,208.2909321000334,209.30182970012538,209.28518150001764,209.8645739001222,209.8645739001222,None,211.22571819997393,None,left,0.9573754000011832,211.22571819997393,None,212.20494280010462,None,left,2.1632226000074297,212.20494280010462,None,,,,,,,,,,,,,,,,,,,,,,,PPT51,001,2022-07-12_14h50.11.074,ABstudy,2022.1.4,59.919851210580084,
AB,Lag5_T1A_T2A,5,A,A,5,10,4,4,14,music sheet,Did you see the music sheet?,0.12,0.016,JPG\,celery,pencil01,fan,foosballtable,iron01b,shirt02,potato02b,fork03c,button01,pineapple01a,baseball01a,printer02,cauliflower01,dandelion,blankImage,blankImage,blankImage,licenseplate,,,,,,,,,,,,0,5,5,304,,,,,,,,,,,,,,,,,,,,,,,,,,,,,,,,,,,214.39570320001803,215.40812860010192,215.39149220008403,215.98320119990967,215.98320119990967,None,217.57650439999998,None,right,1.1679028999060392,217.57650439999998,None,218.7615336999297,None,right,0.7260705998633057,218.7615336999297,None,,,,,,,,,,,,,,,,,,,,,,,PPT51,001,2022-07-12_14h50.11.074,ABstudy,2022.1.4,59.919851210580084,
AB,Lag5_T1P_T2P,5,P,P,6,11,5,4,15,shovel,Did you see the shovel?,0.12,0.016,JPG\,carrot01,watch02a,clock04,microscope,toiletpaper01a,shovel01,alligator,ring01,brick,watermelon01,stapler03b,pencil01,measuringcup01,balloon01b,computerkeyboard02,blankImage,blankImage,shovel01,,,,,,,,,,,,0,6,6,139,,,,,,,,,,,,,,,,,,,,,,,,,,,,,,,,,,,219.5160519001074,220.52993199997582,220.51321960007772,221.1341385000851,221.1341385000851,None,222.91846899990924,None,left,0.69788259989582,222.91846899990924,None,223.63363780011423,None,right,0.7737739998847246,223.63363780011423,None,,,,,,,,,,,,,,,,,,,,,,,PPT51,001,2022-07-12_14h50.11.074,ABstudy,2022.1.4,59.919851210580084,
AB,Lag5_T1P_T2A,5,P,A,5,10,4,5,15,Shield,Did you see the Shield?,0.12,0.016,JPG\,cigarette,fork03c,greenolive,broccoli01a,shield02,tennisball01b,balloon01b,leaf02a,pig,fan,clock01a,strawberry,envelope03a,birthdaycandle,teabag,blankImage,blankImage,shield02,,,,,,,,,,,,0,7,7,223,,,,,,,,,,,,,,,,,,,,,,,,,,,,,,,,,,,224.44030939997174,225.45150969992392,225.43484360002913,226.0206299999263,226.0206299999263,None,227.88449100009166,None,left,0.8026984999887645,227.88449100009166,None,228.70613500010222,None,right,0.557073000119999,228.70613500010222,None,,,,,,,,,,,,,,,,,,,,,,,PPT51,001,2022-07-12_14h50.11.074,ABstudy,2022.1.4,59.919851210580084,
AB,Lag5_T1P_T2A,5,P,A,8,13,7,4,17,Drum set,Did you see the Drum set?,0.12,0.016,JPG\,pencil01,microscope,banana01,computerkeyboard02,celery,cellphone,scissors01,drumset,book01b,onion,dice05a,binoculars01b,baseball01a,iron01b,screw02,fork03c,blankImage,drumset,,,,,,,,,,,,0,8,8,212,,,,,,,,,,,,,,,,,,,,,,,,,,,,,,,,,,,229.29356279992498,230.30645489995368,230.28972680005245,230.8569638999179,230.8569638999179,None,232.77190500008874,None,left,0.6995604999829084,232.77190500008874,None,233.49282300006598,None,left,0.3707103000488132,233.49282300006598,None,,,,,,,,,,,,,,,,,,,,,,,PPT51,001,2022-07-12_14h50.11.074,ABstudy,2022.1.4,59.919851210580084,
AB,Lag5_T1P_T2P,5,P,P,5,10,4,5,15,scorpion,Did you see the scorpion?,0.12,0.016,JPG\,fan,tomato01,candy,screwdriver04b,scorpion,cd,thermometer02b,apple07,button01,stapler01,brownsugar,lighter01,clock01a,envelope03a,clock04,blankImage,blankImage,scorpion,,,,,,,,,,,,0,9,9,97,,,,,,,,,,,,,,,,,,,,,,,,,,,,,,,,,,,233.89379839994945,234.89421649998985,234.87754629994743,235.45614790008403,235.45614790008403,None,237.32166710007004,None,left,0.9421632001176476,237.32166710007004,None,238.28091609990224,None,right,0.4382175002247095,238.28091609990224,None,,,,,,,,,,,,,,,,,,,,,,,PPT51,001,2022-07-12_14h50.11.074,ABstudy,2022.1.4,59.919851210580084,
AB,Lag1_T1P_T2P,1,P,P,7,8,6,3,11,locker,Did you see the locker?,0.12,0.016,JPG\,toiletpaper01a,lipstick02a,potato02b,speaker04,globe,strawberry,locker,stapler04b,sock01a,candle08b,pen04b,blankImage,blankImage,blankImage,blankImage,blankImage,blankImage,locker,,,,,,,,,,,,0,10,10,19,,,,,,,,,,,,,,,,,,,,,,,,,,,,,,,,,,,238.75405739992857,239.76566700008698,239.74914500000887,240.32360680005513,240.32360680005513,None,241.64282949990593,None,right,1.0845373999327421,241.64282949990593,None,242.75198830012232,None,left,0.6955526999663562,242.75198830012232,None,,,,,,,,,,,,,,,,,,,,,,,PPT51,001,2022-07-12_14h50.11.074,ABstudy,2022.1.4,59.919851210580084,
AB,Lag1_T1P_T2P,1,P,P,6,7,5,5,12,bat,Did you see the bat?,0.12,0.016,JPG\,comb02a,key01,medal02b,battery02b,lighter01,bat,stapler05,sandal,pig,cellphone,computerkeyboard02,calculator01,blankImage,blankImage,blankImage,blankImage,blankImage,bat,,,,,,,,,,,,0,11,11,35,,,,,,,,,,,,,,,,,,,,,,,,,,,,,,,,,,,243.4768145000562,244.48673889995553,244.4700601999648,245.06639600009657,245.06639600009657,None,246.52866129996255,None,left,0.6064510999713093,246.52866129996255,None,247.15638080006465,None,left,0.7546726998407394,247.15638080006465,None,,,,,,,,,,,,,,,,,,,,,,,PPT51,001,2022-07-12_14h50.11.074,ABstudy,2022.1.4,59.919851210580084,
AB,Lag1_T1A_T2P,1,A,P,8,9,7,3,12,porcupine,Did you see the porcupine?,0.12,0.016,JPG\,celery,orange,scissors01,balloon01b,avocado01,printer02,mushroom01,sewingmachine01a,stapler01,dice05a,ashtray01,fan,blankImage,blankImage,blankImage,blankImage,blankImage,drumstick,,,,,,,,,,,,0,12,12,233,,,,,,,,,,,,,,,,,,,,,,,,,,,,,,,,,,,247.94499960006215,248.95827930001542,248.94145500008017,249.52113840007223,249.52113840007223,None,250.9709550999105,None,right,1.0440799000207335,250.9709550999105,None,252.0446343999356,None,right,1.2027032000478357,252.0446343999356,None,,,,,,,,,,,,,,,,,,,,,,,PPT51,001,2022-07-12_14h50.11.074,ABstudy,2022.1.4,59.919851210580084,
AB,Lag1_T1A_T2P,1,A,P,6,7,5,5,12,Treadmill,Did you see the Treadmill?,0.12,0.016,JPG\,pencil01,broccoli01a,button01,sponge01,watermelon01,lipstick02a,stapler04b,fan,lighter01,sock01a,spoon01,blueberry01,blankImage,blankImage,blankImage,blankImage,blankImage,magneticcompass,,,,,,,,,,,,0,13,13,238,,,,,,,,,,,,,,,,,,,,,,,,,,,,,,,,,,,253.28413840010762,254.296851699939,254.28016699990258,254.8660538000986,254.8660538000986,None,256.34389430005103,None,right,2.1687338000629097,256.34389430005103,None,258.53436619997956,None,right,0.7044746999163181,258.53436619997956,None,,,,,,,,,,,,,,,,,,,,,,,PPT51,001,2022-07-12_14h50.11.074,ABstudy,2022.1.4,59.919851210580084,
AB,Lag5_T1A_T2P,5,A,P,7,12,6,4,16,ear,Did you see the ear?,0.12,0.016,JPG\,candle01,shirt02,brick,orange,greenolive,toothbrush03b,pizza,thermometer02b,book01b,toiletpaper01a,sewingmachine01a,stapler01,candy,cymbal,potato02b,plate01b,blankImage,chair,,,,,,,,,,,,0,14,14,257,,,,,,,,,,,,,,,,,,,,,,,,,,,,,,,,,,,259.27134840004146,260.28615540009923,260.2527785000857,260.8405263000168,260.8405263000168,None,262.8034618999809,None,right,1.0438894999679178,262.8034618999809,None,263.8732006000355,None,right,0.5023809000849724,263.8732006000355,None,,,,,,,,,,,,,,,,,,,,,,,PPT51,001,2022-07-12_14h50.11.074,ABstudy,2022.1.4,59.919851210580084,
AB,Lag1_T1P_T2A,1,P,A,8,9,7,4,13,boat,Did you see the boat?,0.12,0.016,JPG\,fork03c,dandelion,dice05a,belt02a,onion,watch02a,key01,boat,eraser,medal02b,greenolive,shirt02,candle08b,blankImage,blankImage,blankImage,blankImage,boat,,,,,,,,,,,,0,15,15,199,,,,,,,,,,,,,,,,,,,,,,,,,,,,,,,,,,,264.40812169993296,265.40783039992675,265.39121760008857,265.9807869999204,265.9807869999204,None,267.59317580005154,None,right,0.6626970001962036,267.59317580005154,None,268.2774271001108,None,right,1.106167599791661,268.2774271001108,None,,,,,,,,,,,,,,,,,,,,,,,PPT51,001,2022-07-12_14h50.11.074,ABstudy,2022.1.4,59.919851210580084,
AB,Lag1_T1A_T2A,1,A,A,7,8,6,5,13,Poker chips,Did you see the Poker chips?,0.12,0.016,JPG\,violin,pizza,toothbrush03b,pineapple01a,banana01,ashtray01,candy,dandelion,clock04,sock01a,microscope,speaker04,calculator01,blankImage,blankImage,blankImage,blankImage,cigar,,,,,,,,,,,,0,16,16,289,,,,,,,,,,,,,,,,,,,,,,,,,,,,,,,,,,,269.4235275001265,270.42968689999543,270.4130261000246,271.0148853000719,271.0148853000719,None,272.59560470003635,None,right,0.9397052000276744,272.59560470003635,None,273.56604370009154,None,right,0.6015908000990748,273.56604370009154,None,,,,,,,,,,,,,,,,,,,,,,,PPT51,001,2022-07-12_14h50.11.074,ABstudy,2022.1.4,59.919851210580084,
AB,Lag5_T1P_T2A,5,P,A,5,10,4,3,13,pin,Did you see the pin?,0.12,0.016,JPG\,candle01,fork03c,plate01b,violin,pin,candy,calculator01,paintbrush01,cherry01,sock01a,teabag,banana01,cd,blankImage,blankImage,blankImage,blankImage,pin,,,,,,,,,,,,0,17,17,215,,,,,,,,,,,,,,,,,,,,,,,,,,,,,,,,,,,274.2586215001065,275.2680450999178,275.23475669999607,275.84784370008856,275.84784370008856,None,277.4003876000643,None,right,0.9673011000268161,277.4003876000643,None,278.38732820004225,None,right,0.8358146001119167,278.38732820004225,None,,,,,,,,,,,,,,,,,,,,,,,PPT51,001,2022-07-12_14h50.11.074,ABstudy,2022.1.4,59.919851210580084,
AB,Lag1_T1A_T2A,1,A,A,5,6,4,3,9,Pigeon,Did you see the Pigeon?,0.12,0.016,JPG\,candle01,paintbrush01,scissors01,fan,microscope,toothbrush03b,candle08b,watermelon01,teabag,blankImage,blankImage,blankImage,blankImage,blankImage,blankImage,blankImage,blankImage,floorlamp,,,,,,,,,,,,0,18,18,286,,,,,,,,,,,,,,,,,,,,,,,,,,,,,,,,,,,279.25718159996904,280.2725871000439,280.2392041001003,280.81186940008774,280.81186940008774,None,281.9552285000682,None,right,0.9084284000564367,281.9552285000682,None,282.89205750008114,None,right,0.555346499895677,282.89205750008114,None,,,,,,,,,,,,,,,,,,,,,,,PPT51,001,2022-07-12_14h50.11.074,ABstudy,2022.1.4,59.919851210580084,
AB,Lag1_T1P_T2P,1,P,P,6,7,5,5,12,snowman,Did you see the snowman?,0.12,0.016,JPG\,comb02a,watch02a,scissors01,dice05a,tableknife02,snowman,stapler03a,printer02,dandelion,spoon01,ashtray01,battery02b,blankImage,blankImage,blankImage,blankImage,blankImage,snowman,,,,,,,,,,,,0,19,19,4,,,,,,,,,,,,,,,,,,,,,,,,,,,,,,,,,,,283.4792881999165,284.49360599997453,284.4770371001214,285.1189093000721,285.0382346000988,None,286.5028055999428,None,left,0.7764333998784423,286.5028055999428,None,287.29643190000206,None,left,0.36723390012048185,287.29643190000206,None,,,,,,,,,,,,,,,,,,,,,,,PPT51,001,2022-07-12_14h50.11.074,ABstudy,2022.1.4,59.919851210580084,
AB,Lag5_T1P_T2P,5,P,P,5,10,4,5,15,Ipad,Did you see the Ipad?,0.12,0.016,JPG\,fork03c,toothbrush03b,cellphone,fan,ipad02,clock01a,ring01,eraser,sunglasses04,stapler06,violin,brownsugar,blueberry01,pear01,pencil01,blankImage,blankImage,ipad02,,,,,,,,,,,,0,20,20,150,,,,,,,,,,,,,,,,,,,,,,,,,,,,,,,,,,,287.68916300009005,288.6977629000321,288.68102209991775,289.25236069993116,289.25236069993116,None,291.1224895999767,None,left,0.8451594999060035,291.1224895999767,None,291.985865799943,None,left,0.40484699979424477,291.985865799943,None,,,,,,,,,,,,,,,,,,,,,,,PPT51,001,2022-07-12_14h50.11.074,ABstudy,2022.1.4,59.919851210580084,
AB,Lag1_T1A_T2P,1,A,P,6,7,5,3,10,Jellyfish,Did you see the Jellyfish?,0.12,0.016,JPG\,thermometer02b,avocado01,scissors01,tennisball01b,medal02b,banana01,stapler01,cigarette,potato02b,pineapple01a,blankImage,blankImage,blankImage,blankImage,blankImage,blankImage,blankImage,firehydrant,,,,,,,,,,,,0,21,21,255,,,,,,,,,,,,,,,,,,,,,,,,,,,,,,,,,,,292.43474650010467,293.43609780003317,293.41965109994635,294.04574920004234,294.04574920004234,None,295.2203482000623,None,right,0.7868530999403447,295.2203482000623,None,296.03843860002235,None,left,0.488763100001961,296.03843860002235,None,,,,,,,,,,,,,,,,,,,,,,,PPT51,001,2022-07-12_14h50.11.074,ABstudy,2022.1.4,59.919851210580084,
AB,Lag1_T1P_T2P,1,P,P,8,9,7,3,12,Wheelchair,Did you see the Wheelchair?,0.12,0.016,JPG\,cigarette,pig,banana01,strawberry,clock01a,plate01b,spoon01,wheelchair,stapler03b,pineapple01a,chain01,paintbrush01,blankImage,blankImage,blankImage,blankImage,blankImage,wheelchair,,,,,,,,,,,,0,22,22,27,,,,,,,,,,,,,,,,,,,,,,,,,,,,,,,,,,,296.559740900062,297.5730956001207,297.5565589000471,298.11942919995636,298.11942919995636,None,299.6477346001193,None,left,0.7039719000458717,299.6477346001193,None,300.375852300087,None,left,0.8152927001938224,300.375852300087,None,,,,,,,,,,,,,,,,,,,,,,,PPT51,001,2022-07-12_14h50.11.074,ABstudy,2022.1.4,59.919851210580084,
AB,Lag5_T1P_T2P,5,P,P,6,11,5,3,14,shower head,Did you see the shower head?,0.12,0.016,JPG\,belt02a,measuringcup01,spoon01,chain01,greenolive,showerhead01,computerkeyboard02,onion,fan,strawberry,stapler01,broom01,binoculars01b,ashtray01,blankImage,blankImage,blankImage,showerhead01,,,,,,,,,,,,0,23,23,98,,,,,,,,,,,,,,,,,,,,,,,,,,,,,,,,,,,301.2123171999119,302.2277393999975,302.19433830003254,302.7746810999233,302.7746810999233,None,304.4631749999244,None,left,0.5121519998647273,304.4631749999244,None,304.99749470013194,None,left,0.48940699989907444,304.99749470013194,None,,,,,,,,,,,,,,,,,,,,,,,PPT51,001,2022-07-12_14h50.11.074,ABstudy,2022.1.4,59.919851210580084,
AB,Lag5_T1P_T2P,5,P,P,5,10,4,5,15,Bee,Did you see the Bee?,0.12,0.016,JPG\,fork03c,dandelion,dice05a,belt02a,honeybee,watch02a,key01,globe,eraser,stapler03a,greenolive,shirt02,candle08b,cigarette,garlic01a,blankImage,blankImage,honeybee,,,,,,,,,,,,0,24,24,149,,,,,,,,,,,,,,,,,,,,,,,,,,,,,,,,,,,305.52541720005684,306.5318281999789,306.5151551000308,307.086095900042,307.086095900042,None,308.9053748000879,None,left,0.6294616998638958,308.9053748000879,None,309.551705500111,None,left,0.3205415999982506,309.551705500111,None,,,,,,,,,,,,,,,,,,,,,,,PPT51,001,2022-07-12_14h50.11.074,ABstudy,2022.1.4,59.919851210580084,
AB,Lag5_T1P_T2P,5,P,P,8,13,7,3,16,shrimp,Did you see the shrimp?,0.12,0.016,JPG\,globe,belt02a,sponge01,violin,fork03c,tomato01,clock01a,cocktailshrimp02,balloon01b,scarf,teabag,pen04b,stapler03a,brownsugar,speaker04,screwdriver04b,blankImage,cocktailshrimp02,,,,,,,,,,,,0,25,25,169,,,,,,,,,,,,,,,,,,,,,,,,,,,,,,,,,,,309.9133468000218,310.91980280005373,310.9030927999411,311.48695600009523,311.48695600009523,None,313.43781449995004,None,left,0.6253117001615465,313.43781449995004,None,314.0907356000971,None,right,0.3405333999544382,314.0907356000971,None,,,,,,,,,,,,,,,,,,,,,,,PPT51,001,2022-07-12_14h50.11.074,ABstudy,2022.1.4,59.919851210580084,
AB,Lag1_T1P_T2P,1,P,P,8,9,7,3,12,mail box,Did you see the mail box?,0.12,0.016,JPG\,paintbrush01,dice05a,watermelon01,broccoli01a,hammer01,leaf02a,match,mailbox01,stapler05,fan,lipstick02a,grape01,blankImage,blankImage,blankImage,blankImage,blankImage,mailbox01,,,,,,,,,,,,0,26,26,20,,,,,,,,,,,,,,,,,,,,,,,,,,,,,,,,,,,314.5151410000399,315.5245254000183,315.50776909990236,316.06943690008484,316.06943690008484,None,317.4964536000043,None,right,2.3670334999915212,317.4964536000043,None,319.8955359000247,None,left,0.5442876000888646,319.8955359000247,None,,,,,,,,,,,,,,,,,,,,,,,PPT51,001,2022-07-12_14h50.11.074,ABstudy,2022.1.4,59.919851210580084,
AB,Lag5_T1P_T2P,5,P,P,5,10,4,5,15,penguin,Did you see the penguin?,0.12,0.016,JPG\,watermelon01,cigarette,pintofbeer,cymbal,penguin,feather03a,cherry01,broom01,battery02b,stapler05,baseball01a,iron01b,garlic01a,computerkeyboard02,pig,blankImage,blankImage,penguin,,,,,,,,,,,,0,27,27,137,,,,,,,,,,,,,,,,,,,,,,,,,,,,,,,,,,,320.46779830008745,321.48042719997466,321.4637174999807,322.0581841999665,322.0581841999665,None,323.8308196000289,None,left,0.5200024999212474,323.8308196000289,None,324.38333759992383,None,left,0.47981579997576773,324.38333759992383,None,,,,,,,,,,,,,,,,,,,,,,,PPT51,001,2022-07-12_14h50.11.074,ABstudy,2022.1.4,59.919851210580084,
AB,Lag1_T1P_T2P,1,P,P,6,7,5,3,10,windmill,Did you see the windmill?,0.12,0.016,JPG\,pizza,printer02,medal02b,spoon01,grape01,windmill,stapler04b,watermelon01,celery,battery02b,blankImage,blankImage,blankImage,blankImage,blankImage,blankImage,blankImage,windmill,,,,,,,,,,,,0,28,28,75,,,,,,,,,,,,,,,,,,,,,,,,,,,,,,,,,,,324.8861706000753,325.9013817999512,325.86798759992234,326.45816359994933,326.45816359994933,None,327.657045800006,None,left,0.550213199807331,327.657045800006,None,328.2376939000096,None,left,0.33784710010513663,328.2376939000096,None,,,,,,,,,,,,,,,,,,,,,,,PPT51,001,2022-07-12_14h50.11.074,ABstudy,2022.1.4,59.919851210580084,
AB,Lag5_T1P_T2P,5,P,P,7,12,6,4,16,Wolf,Did you see the Wolf?,0.12,0.016,JPG\,brick,eraser,cucumber,ashtray01,thermometer02b,binoculars01b,greywolf,screwdriver04b,grape01,brownsugar,battery02b,stapler03b,dice05a,avocado01,birthdaycandle,watch02a,blankImage,greywolf,,,,,,,,,,,,0,29,29,89,,,,,,,,,,,,,,,,,,,,,,,,,,,,,,,,,,,328.6143527000677,329.62146600009874,329.60480679990724,330.18176129995845,330.18176129995845,None,332.11259629996493,None,left,0.686459300108254,332.11259629996493,None,332.82658699993044,None,left,0.388267699861899,332.82658699993044,None,,,,,,,,,,,,,,,,,,,,,,,PPT51,001,2022-07-12_14h50.11.074,ABstudy,2022.1.4,59.919851210580084,
AB,Lag5_T1A_T2P,5,A,P,7,12,6,4,16,church,Did you see the church?,0.12,0.016,JPG\,printer02,leaf02a,cauliflower01,sock01a,brownsugar,paintbrush01,pig,orange,belt02a,shirt02,key01,stapler06,cigarette,scissors01,envelope03a,blueberry01,blankImage,ant,,,,,,,,,,,,0,30,30,279,,,,,,,,,,,,,,,,,,,,,,,,,,,,,,,,,,,333.2442423000466,334.24353950005025,334.22686589998193,334.82022650004365,334.82022650004365,None,336.8014317001216,None,right,0.9020400999579579,336.8014317001216,None,337.729936900083,None,left,0.45283910003490746,337.729936900083,None,,,,,,,,,,,,,,,,,,,,,,,PPT51,001,2022-07-12_14h50.11.074,ABstudy,2022.1.4,59.919851210580084,
AB,Lag5_T1P_T2P,5,P,P,8,13,7,5,18,Kiwi,Did you see the Kiwi?,0.12,0.016,JPG\,violin,pizza,toothbrush03b,pineapple01a,banana01,ashtray01,candy,kiwi03,clock04,sock01a,microscope,speaker04,stapler04b,sunglasses04,lipstick02a,blueberry01,blankImage,kiwi03,,,,,,,,,,,,0,31,31,111,,,,,,,,,,,,,,,,,,,,,,,,,,,,,,,,,,,338.22280330001377,339.2314339999575,339.2147089999635,339.8107712001074,339.8107712001074,None,341.7757212999277,None,left,0.4711451001930982,341.7757212999277,None,342.2678743000142,None,left,0.41210850002244115,342.2678743000142,None,,,,,,,,,,,,,,,,,,,,,,,PPT51,001,2022-07-12_14h50.11.074,ABstudy,2022.1.4,59.919851210580084,
AB,Lag5_T1A_T2P,5,A,P,7,12,6,5,17,Rollerblade,Did you see the Rollerblade?,0.12,0.016,JPG\,binoculars01b,cymbal,pizza,candy,paintbrush01,sponge01,grape01,thermometer02b,speaker04,lemon02,lipstick02a,stapler03b,candle01,8ball,plate01b,pen04b,blankImage,lion,,,,,,,,,,,,0,32,32,266,,,,,,,,,,,,,,,,,,,,,,,,,,,,,,,,,,,342.71368560008705,343.7196506001055,343.7029075999744,344.26547460001893,344.26547460001893,None,346.29977570008487,None,right,1.1309299999848008,346.29977570008487,None,347.45732789998874,None,left,1.2137064000125974,347.45732789998874,None,,,,,,,,,,,,,,,,,,,,,,,PPT51,001,2022-07-12_14h50.11.074,ABstudy,2022.1.4,59.919851210580084,
AB,Lag1_T1P_T2P,1,P,P,5,6,4,5,11,owl,Did you see the owl?,0.12,0.016,JPG\,cellphone,tomato01,comb02a,candy,barnowl,stapler03a,toaster01,fan,feather03a,pen04b,lemon02,blankImage,blankImage,blankImage,blankImage,blankImage,blankImage,barnowl,,,,,,,,,,,,0,33,33,33,,,,,,,,,,,,,,,,,,,,,,,,,,,,,,,,,,,348.699149900116,349.70838809991255,349.6917020000983,350.276615699986,350.276615699986,None,351.66483459994197,None,left,0.5425138999707997,351.66483459994197,None,352.2277712000068,None,left,0.3794338000006974,352.2277712000068,None,,,,,,,,,,,,,,,,,,,,,,,PPT51,001,2022-07-12_14h50.11.074,ABstudy,2022.1.4,59.919851210580084,
AB,Lag5_T1A_T2A,5,A,A,5,10,4,5,15,window,Did you see the window?,0.12,0.016,JPG\,leaf02a,apple07,cd,pineapple01a,envelope03a,paintbrush01,pig,canoftennisballs,rice,feather03a,lemon02,balloon01b,avocado01,calculator01,watermelon01,blankImage,blankImage,saxophone,,,,,,,,,,,,0,34,34,301,,,,,,,,,,,,,,,,,,,,,,,,,,,,,,,,,,,352.63213189993985,353.645877599949,353.6291795000434,354.19492239993997,354.19492239993997,None,356.06459429999813,None,right,0.9665055999066681,356.06459429999813,None,357.04932010010816,None,right,0.805681400001049,357.04932010010816,None,,,,,,,,,,,,,,,,,,,,,,,PPT51,001,2022-07-12_14h50.11.074,ABstudy,2022.1.4,59.919851210580084,
AB,Lag1_T1P_T2P,1,P,P,7,8,6,3,11,Sand castle,Did you see the Sand castle?,0.12,0.016,JPG\,thermometer02b,candle08b,comb02a,toothbrush03b,brick,computerkeyboard02,sandcastle,stapler06,candy,birthdaycandle,clock04,blankImage,blankImage,blankImage,blankImage,blankImage,blankImage,sandcastle,,,,,,,,,,,,0,35,35,70,,,,,,,,,,,,,,,,,,,,,,,,,,,,,,,,,,,357.892196000088,358.9010471999645,358.8843191000633,359.45284279994667,359.45284279994667,None,360.85988819994964,None,left,0.7556094999890774,360.85988819994964,None,361.6381250999402,None,left,0.9210461999755353,361.6381250999402,None,,,,,,,,,,,,,,,,,,,,,,,PPT51,001,2022-07-12_14h50.11.074,ABstudy,2022.1.4,59.919851210580084,
AB,Lag1_T1P_T2A,1,P,A,6,7,5,4,11,bird,Did you see the bird?,0.12,0.016,JPG\,foosballtable,candy,envelope03a,microscope,pencil01,cedarwaxwing,scissors01,watermelon01,grape01,dandelion,pineapple01a,blankImage,blankImage,blankImage,blankImage,blankImage,blankImage,cedarwaxwing,,,,,,,,,,,,0,36,36,182,,,,,,,,,,,,,,,,,,,,,,,,,,,,,,,,,,,362.5901164000388,363.60576039995067,363.5723109000828,364.0728470000904,364.0728470000904,None,365.51966260001063,None,right,2.3352759000845253,365.51966260001063,None,367.8763747001067,None,right,1.426560099935159,367.8763747001067,None,,,,,,,,,,,,,,,,,,,,,,,PPT51,001,2022-07-12_14h50.11.074,ABstudy,2022.1.4,59.919851210580084,
AB,Lag5_T1P_T2P,5,P,P,8,13,7,4,17,lamp,Did you see the lamp?,0.12,0.016,JPG\,globe,broccoli01a,binoculars01b,iron01b,avocado01,dandelion,pineapple01a,floorlamp,fan,pizza,celery,blueberry01,stapler01,dice05a,watermelon01,candy,blankImage,floorlamp,,,,,,,,,,,,0,37,37,99,,,,,,,,,,,,,,,,,,,,,,,,,,,,,,,,,,,369.332592099905,370.3457810000982,370.3291053001303,370.9448669999838,370.9448669999838,None,372.83103889995255,None,left,2.1679525999352336,372.83103889995255,None,375.0170038000215,None,right,0.34215319994837046,375.0170038000215,None,,,,,,,,,,,,,,,,,,,,,,,PPT51,001,2022-07-12_14h50.11.074,ABstudy,2022.1.4,59.919851210580084,
AB,Lag5_T1A_T2A,5,A,A,7,12,6,4,16,boxing glove,Did you see the boxing glove?,0.12,0.016,JPG\,cherry01,cymbal,envelope03a,foosballtable,shirt02,cellphone,sewingmachine01a,candle08b,battery02b,apple07,pencil01,screwdriver04b,strawberry,sunglasses04,feather03a,rice,blankImage,lollipop04,,,,,,,,,,,,0,38,38,296,,,,,,,,,,,,,,,,,,,,,,,,,,,,,,,,,,,375.4329250000883,376.43547250004485,376.4188717000652,377.0050443999935,377.0050443999935,None,378.91214419994503,None,right,0.7832259000279009,378.91214419994503,None,379.7216108001303,None,right,0.3501206999644637,379.7216108001303,None,,,,,,,,,,,,,,,,,,,,,,,PPT51,001,2022-07-12_14h50.11.074,ABstudy,2022.1.4,59.919851210580084,
AB,Lag1_T1P_T2P,1,P,P,6,7,5,3,10,fortune cookie,Did you see the fortune cookie?,0.12,0.016,JPG\,scissors01,grape01,mushroom01,toiletpaper01a,greenolive,fortunecookie,stapler03b,ashtray01,carrot01,pineapple01a,blankImage,blankImage,blankImage,blankImage,blankImage,blankImage,blankImage,fortunecookie,,,,,,,,,,,,0,39,39,42,,,,,,,,,,,,,,,,,,,,,,,,,,,,,,,,,,,380.09617780009285,381.1064903999213,381.0898001000751,381.67935830005445,381.67935830005445,None,382.9399739000946,None,right,0.7955908000003546,382.9399739000946,None,383.7591216999572,None,left,0.3358614998869598,383.7591216999572,None,,,,,,,,,,,,,,,,,,,,,,,PPT51,001,2022-07-12_14h50.11.074,ABstudy,2022.1.4,59.919851210580084,
AB,Lag5_T1A_T2P,5,A,P,8,13,7,4,17,wrench,Did you see the wrench?,0.12,0.016,JPG\,clock01a,grape01,plate01b,key01,screwdriver04b,feather03a,pineapple01a,iron01b,toothbrush03b,comb02a,broom01,toaster01,stapler05,garlic01a,match,ashtray01,blankImage,seal,,,,,,,,,,,,0,40,40,272,,,,,,,,,,,,,,,,,,,,,,,,,,,,,,,,,,,384.13435720000416,385.14338240004145,385.12676030001603,385.70754490001127,385.70754490001127,None,387.68634829996154,None,right,1.3602489000186324,387.68634829996154,None,389.06415489991195,None,right,0.5903888999018818,389.06415489991195,None,,,,,,,,,,,,,,,,,,,,,,,PPT51,001,2022-07-12_14h50.11.074,ABstudy,2022.1.4,59.919851210580084,
AB,Lag1_T1A_T2P,1,A,P,5,6,4,3,9,Stool,Did you see the Stool?,0.12,0.016,JPG\,cherry01,cymbal,envelope03a,foosballtable,shirt02,stapler01,sewingmachine01a,candle08b,battery02b,blankImage,blankImage,blankImage,blankImage,blankImage,blankImage,blankImage,blankImage,hulahoop,,,,,,,,,,,,0,41,41,236,,,,,,,,,,,,,,,,,,,,,,,,,,,,,,,,,,,389.68411029991694,390.6990483000409,390.66575960000046,391.2444931000937,391.2444931000937,None,392.4410449001007,None,right,0.7421905000228435,392.4410449001007,None,393.2018864999991,None,right,0.3414767000358552,393.2018864999991,None,,,,,,,,,,,,,,,,,,,,,,,PPT51,001,2022-07-12_14h50.11.074,ABstudy,2022.1.4,59.919851210580084,
AB,Lag5_T1P_T2A,5,P,A,6,11,5,5,16,fish,Did you see the fish?,0.12,0.016,JPG\,cucumber,ring01,lipstick02a,microscope,violin,redlionfish,celery,lighter01,cherry01,sewingmachine01a,belt02a,key01,binoculars01b,medal02b,watermelon01,dice05a,blankImage,redlionfish,,,,,,,,,,,,0,42,42,221,,,,,,,,,,,,,,,,,,,,,,,,,,,,,,,,,,,393.570600300096,394.58616840001196,394.55277379998006,395.1220259000547,395.1220259000547,None,397.0518535000738,None,right,0.6830456999596208,397.0518535000738,None,397.7561916001141,None,right,0.32300189998932183,397.7561916001141,None,,,,,,,,,,,,,,,,,,,,,,,PPT51,001,2022-07-12_14h50.11.074,ABstudy,2022.1.4,59.919851210580084,
AB,Lag1_T1P_T2P,1,P,P,7,8,6,5,13,dream catcher,Did you see the dream catcher?,0.12,0.016,JPG\,clock01a,cellphone,toaster01,toothbrush03b,cauliflower01,microscope,dreamcatcher,stapler05,scarf,clock04,sponge01,iron01b,watch02a,blankImage,blankImage,blankImage,blankImage,dreamcatcher,,,,,,,,,,,,0,43,43,81,,,,,,,,,,,,,,,,,,,,,,,,,,,,,,,,,,,398.11202550004236,399.1243217999581,399.1077544,399.6798471000511,399.6798471000511,None,401.32922110008076,None,left,0.9264303001109511,401.32922110008076,None,402.27751470007934,None,right,0.4329777001403272,402.27751470007934,None,,,,,,,,,,,,,,,,,,,,,,,PPT51,001,2022-07-12_14h50.11.074,ABstudy,2022.1.4,59.919851210580084,
AB,Lag1_T1A_T2P,1,A,P,8,9,7,4,13,Christmas tree,Did you see the Christmas tree?,0.12,0.016,JPG\,broom01,globe,cellphone,tableknife02,cauliflower01,scissors01,ring01,alligator,stapler03a,toaster01,cigarette,grape01,microscope,blankImage,blankImage,blankImage,blankImage,windmill,,,,,,,,,,,,0,44,44,247,,,,,,,,,,,,,,,,,,,,,,,,,,,,,,,,,,,402.73834450007416,403.74567350000143,403.72895850008354,404.2895804999862,404.2895804999862,None,405.8964436999522,None,right,0.7822148001287133,405.8964436999522,None,406.6986610000022,None,left,0.3957213999237865,406.6986610000022,None,,,,,,,,,,,,,,,,,,,,,,,PPT51,001,2022-07-12_14h50.11.074,ABstudy,2022.1.4,59.919851210580084,
AB,Lag5_T1P_T2A,5,P,A,8,13,7,4,17,fountain,Did you see the fountain?,0.12,0.016,JPG\,printer02,envelope03a,potato02b,calculator01,tableknife02,cigarette,ashtray01,parkfountain,broom01,greenolive,candle08b,battery02b,strawberry,candle01,foosballtable,tennisball01b,blankImage,parkfountain,,,,,,,,,,,,0,45,45,219,,,,,,,,,,,,,,,,,,,,,,,,,,,,,,,,,,,407.12229620013386,408.13332700007595,408.1167737999931,408.7031431000214,408.7031431000214,None,410.66677529993467,None,left,1.1731288000009954,410.66677529993467,None,411.8704417999834,None,right,0.6006275000981987,411.8704417999834,None,,,,,,,,,,,,,,,,,,,,,,,PPT51,001,2022-07-12_14h50.11.074,ABstudy,2022.1.4,59.919851210580084,
AB,Lag1_T1A_T2A,1,A,A,8,9,7,4,13,Recycling bin,Did you see the Recycling bin?,0.12,0.016,JPG\,brick,plate01b,pen04b,toaster01,screwdriver04b,candle01,envelope03a,feather03a,pig,ring01,orange,clock01a,lighter01,blankImage,blankImage,blankImage,blankImage,bumpercar,,,,,,,,,,,,0,46,46,292,,,,,,,,,,,,,,,,,,,,,,,,,,,,,,,,,,,412.4899792999495,413.50540910009295,413.4720692001283,414.0687796000857,414.0687796000857,None,415.6579557999503,None,right,0.6771468000952154,415.6579557999503,None,416.3593937999103,None,right,0.3509349999949336,416.3593937999103,None,,,,,,,,,,,,,,,,,,,,,,,PPT51,001,2022-07-12_14h50.11.074,ABstudy,2022.1.4,59.919851210580084,
AB,Lag1_T1P_T2A,1,P,A,5,6,4,5,11,Moon,Did you see the Moon?,0.12,0.016,JPG\,lamp04a,broccoli01a,alligator,garlic01a,moon,brownsugar,avocado01,ring01,leaf02a,cellphone,medal02b,blankImage,blankImage,blankImage,blankImage,blankImage,blankImage,moon,,,,,,,,,,,,0,47,47,190,,,,,,,,,,,,,,,,,,,,,,,,,,,,,,,,,,,416.75003320001997,417.7593874000013,417.7427107999101,418.3181241999846,418.3181241999846,None,419.65136280003935,None,right,0.6842133000027388,419.65136280003935,None,420.36194789991714,None,right,0.37265589996241033,420.36194789991714,None,,,,,,,,,,,,,,,,,,,,,,,PPT51,001,2022-07-12_14h50.11.074,ABstudy,2022.1.4,59.919851210580084,
AB,Lag1_T1A_T2P,1,A,P,6,7,5,5,12,Ostrich,Did you see the Ostrich?,0.12,0.016,JPG\,thermometer02b,candle08b,comb02a,toothbrush03b,brick,computerkeyboard02,stapler05,pineapple01a,candy,birthdaycandle,clock04,hairclip03,blankImage,blankImage,blankImage,blankImage,blankImage,discoball,,,,,,,,,,,,0,48,48,232,,,,,,,,,,,,,,,,,,,,,,,,,,,,,,,,,,,420.76660749991424,421.7800302999094,421.76343140006065,422.355777699966,422.355777699966,None,423.82089679990895,None,right,0.6094953999854624,423.82089679990895,None,424.4496506000869,None,right,0.31667680013924837,424.4496506000869,None,,,,,,,,,,,,,,,,,,,,,,,PPT51,001,2022-07-12_14h50.11.074,ABstudy,2022.1.4,59.919851210580084,
AB,Lag5_T1A_T2P,5,A,P,5,10,4,4,14,duck,Did you see the duck?,0.12,0.016,JPG\,brick,eraser,cucumber,ashtray01,thermometer02b,binoculars01b,lipstick02a,screwdriver04b,grape01,stapler04b,battery02b,iron01b,dice05a,avocado01,blankImage,blankImage,blankImage,barrel01,,,,,,,,,,,,0,49,49,280,,,,,,,,,,,,,,,,,,,,,,,,,,,,,,,,,,,424.8424458000809,425.85092830006033,425.8342869000044,426.4253118999768,426.4253118999768,None,428.0657309999224,None,right,0.6451053998898715,428.0657309999224,None,428.73703310010023,None,right,0.3014070999342948,428.73703310010023,None,,,,,,,,,,,,,,,,,,,,,,,PPT51,001,2022-07-12_14h50.11.074,ABstudy,2022.1.4,59.919851210580084,
AB,Lag5_T1P_T2P,5,P,P,5,10,4,5,15,funnel,Did you see the funnel?,0.12,0.016,JPG\,pineapple01a,tennisball01b,computerkeyboard02,feather03a,funnel,acorn,violin,blueberry01,medal02b,stapler01,greenolive,screwdriver04b,potato02b,fork03c,cymbal,blankImage,blankImage,funnel,,,,,,,,,,,,0,50,50,109,,,,,,,,,,,,,,,,,,,,,,,,,,,,,,,,,,,429.07627289998345,430.0886258999817,430.0719467999879,430.64329360006377,430.64329360006377,None,432.4377105999738,None,right,0.5290096998214722,432.4377105999738,None,432.99092380004004,None,right,0.35964139993302524,432.99092380004004,None,,,,,,,,,,,,,,,,,,,,,,,PPT51,001,2022-07-12_14h50.11.074,ABstudy,2022.1.4,59.919851210580084,
AB,Lag1_T1P_T2P,1,P,P,8,9,7,4,13,Bird House,Did you see the Bird House?,0.12,0.016,JPG\,toiletpaper01a,mushroom01,medal02b,sandal,rice,cd,feather03a,birdhouse,stapler01,garlic01a,toaster01,belt02a,cigarette,blankImage,blankImage,blankImage,blankImage,birdhouse,,,,,,,,,,,,0,51,51,77,,,,,,,,,,,,,,,,,,,,,,,,,,,,,,,,,,,433.39297559997067,434.3929310000967,434.3761185000185,434.9635072001256,434.9635072001256,None,436.5212831001263,None,left,0.42959469999186695,436.5212831001263,None,436.97870149998926,None,left,0.39614180009812117,436.97870149998926,None,,,,,,,,,,,,,,,,,,,,,,,PPT51,001,2022-07-12_14h50.11.074,ABstudy,2022.1.4,59.919851210580084,
AB,Lag5_T1A_T2A,5,A,A,5,10,4,5,15,truck,Did you see the truck?,0.12,0.016,JPG\,pizza,printer02,medal02b,spoon01,grape01,lighter01,belt02a,watermelon01,celery,battery02b,screw02,comb02a,cauliflower01,lipstick02a,potato02b,blankImage,blankImage,postalmailbox01,,,,,,,,,,,,0,52,52,297,,,,,,,,,,,,,,,,,,,,,,,,,,,,,,,,,,,437.40138940000907,438.41354229999706,438.3968684000429,439.0025188000873,439.0025188000873,None,440.8327186999377,None,right,0.733700199984014,440.8327186999377,None,441.58340779994614,None,right,0.3029300000052899,441.58340779994614,None,,,,,,,,,,,,,,,,,,,,,,,PPT51,001,2022-07-12_14h50.11.074,ABstudy,2022.1.4,59.919851210580084,
AB,Lag5_T1P_T2A,5,P,A,7,12,6,4,16,Bear,Did you see the Bear?,0.12,0.016,JPG\,comb02a,key01,medal02b,battery02b,lighter01,microscope,grizzly,sandal,pig,cellphone,computerkeyboard02,calculator01,cymbal,clock04,cucumber,avocado01,blankImage,grizzly,,,,,,,,,,,,0,53,53,213,,,,,,,,,,,,,,,,,,,,,,,,,,,,,,,,,,,441.9220060000662,442.93480450008065,442.9180791999679,443.5009346001316,443.5009346001316,None,445.4796647001058,None,left,0.5354184999596328,445.4796647001058,None,446.0388609999791,None,left,0.29633580008521676,446.0388609999791,None,,,,,,,,,,,,,,,,,,,,,,,PPT51,001,2022-07-12_14h50.11.074,ABstudy,2022.1.4,59.919851210580084,
AB,Lag5_T1P_T2A,5,P,A,6,11,5,4,15,Spear,Did you see the Spear?,0.12,0.016,JPG\,belt02a,measuringcup01,spoon01,chain01,greenolive,spear02,computerkeyboard02,onion,fan,strawberry,candle01,broom01,binoculars01b,ashtray01,pingpongpaddle01c,blankImage,blankImage,spear02,,,,,,,,,,,,0,54,54,227,,,,,,,,,,,,,,,,,,,,,,,,,,,,,,,,,,,446.3653178999666,447.3722739000805,447.3556717999745,447.93221609992906,447.93221609992906,None,449.74778149998747,None,left,0.8912680000066757,449.74778149998747,None,450.6590410999488,None,right,0.4032242000102997,450.6590410999488,None,,,,,,,,,,,,,,,,,,,,,,,PPT51,001,2022-07-12_14h50.11.074,ABstudy,2022.1.4,59.919851210580084,
AB,Lag5_T1P_T2P,5,P,P,5,10,4,5,15,mouse,Did you see the mouse?,0.12,0.016,JPG\,pineapple01a,leaf02a,grape01,toiletpaper01a,mouse,tennisball01b,spoon01,chain01,pig,stapler03a,ring01,lemon02,dice05a,pizza,potato02b,blankImage,blankImage,mouse,,,,,,,,,,,,0,55,55,94,,,,,,,,,,,,,,,,,,,,,,,,,,,,,,,,,,,451.0962261999957,452.11043830006383,452.0939215000253,452.66187119996175,452.66187119996175,None,454.4854540999513,None,left,0.5379616999998689,454.4854540999513,None,455.0467169000767,None,left,0.2957712998613715,455.0467169000767,None,,,,,,,,,,,,,,,,,,,,,,,PPT51,001,2022-07-12_14h50.11.074,ABstudy,2022.1.4,59.919851210580084,
AB,Lag1_T1P_T2P,1,P,P,7,8,6,5,13,tiger,Did you see the tiger?,0.12,0.016,JPG\,globe,broccoli01a,binoculars01b,iron01b,avocado01,dandelion,tiger02,stapler03b,fan,pizza,celery,blueberry01,sewingmachine01a,blankImage,blankImage,blankImage,blankImage,tiger02,,,,,,,,,,,,0,56,56,50,,,,,,,,,,,,,,,,,,,,,,,,,,,,,,,,,,,455.3673531000968,456.38139969995245,456.36470249993727,456.9625051000621,456.9625051000621,None,458.5608498000074,None,left,1.0540497999172658,458.5608498000074,None,459.634447599994,None,right,0.3642210999969393,459.634447599994,None,,,,,,,,,,,,,,,,,,,,,,,PPT51,001,2022-07-12_14h50.11.074,ABstudy,2022.1.4,59.919851210580084,
AB,Lag1_T1P_T2A,1,P,A,6,7,5,5,12,foot,Did you see the foot?,0.12,0.016,JPG\,watermelon01,cigarette,weight04a,cymbal,cauliflower01,foot,cherry01,broom01,battery02b,key01,baseball01a,iron01b,blankImage,blankImage,blankImage,blankImage,blankImage,foot,,,,,,,,,,,,0,57,57,188,,,,,,,,,,,,,,,,,,,,,,,,,,,,,,,,,,,460.0204330000561,461.03582049999386,461.0024621000048,461.58424989995547,461.58424989995547,None,463.06284369993955,None,left,0.9119921000674367,463.06284369993955,None,464.0055897999555,None,right,0.39343339996412396,464.0055897999555,None,,,,,,,,,,,,,,,,,,,,,,,PPT51,001,2022-07-12_14h50.11.074,ABstudy,2022.1.4,59.919851210580084,
AB,Lag1_T1A_T2P,1,A,P,5,6,4,4,10,Bull,Did you see the Bull?,0.12,0.016,JPG\,celery,pencil01,fan,foosballtable,iron01b,stapler01,potato02b,fork03c,button01,pineapple01a,blankImage,blankImage,blankImage,blankImage,blankImage,blankImage,blankImage,spiderweb,,,,,,,,,,,,0,58,58,244,,,,,,,,,,,,,,,,,,,,,,,,,,,,,,,,,,,464.47892590006813,465.490485599963,465.4738668000791,466.05852809990756,466.05852809990756,None,467.20760630001314,None,right,1.327100499998778,467.20760630001314,None,468.56012480007485,None,left,0.37442919984459877,468.56012480007485,None,,,,,,,,,,,,,,,,,,,,,,,PPT51,001,2022-07-12_14h50.11.074,ABstudy,2022.1.4,59.919851210580084,
AB,Lag1_T1P_T2P,1,P,P,8,9,7,3,12,Eiffel tower,Did you see the Eiffel tower?,0.12,0.016,JPG\,celery,tennisball01b,calculator01,pear01,screw02,orange,button01,eiffeltower,stapler03b,apple07,iron01b,brownsugar,blankImage,blankImage,blankImage,blankImage,blankImage,eiffeltower,,,,,,,,,,,,0,59,59,40,,,,,,,,,,,,,,,,,,,,,,,,,,,,,,,,,,,468.9677627000492,469.9782684999518,469.9616072999779,470.5321955999825,470.5321955999825,None,471.9643353000283,None,left,1.8022975001949817,471.9643353000283,None,473.7987085999921,None,left,0.47216959996148944,473.7987085999921,None,,,,,,,,,,,,,,,,,,,,,,,PPT51,001,2022-07-12_14h50.11.074,ABstudy,2022.1.4,59.919851210580084,
AB,Lag5_T1P_T2P,5,P,P,6,11,5,4,15,saxophone,Did you see the saxophone?,0.12,0.016,JPG\,pizza,strawberry,potato02b,speaker04,battery02b,saxophone,dice05a,cellphone,globe,banana01,stapler03b,baseball01a,toaster01,broom01,ring01,blankImage,blankImage,saxophone,,,,,,,,,,,,0,60,60,117,,,,,,,,,,,,,,,,,,,,,,,,,,,,,,,,,,,474.2993121999316,475.3002214001026,475.28367880010046,475.9256963999942,475.9256963999942,None,477.70575889991596,None,left,0.4925241998862475,477.70575889991596,None,478.2197956999298,None,left,0.37853810004889965,478.2197956999298,None,,,,,,,,,,,,,,,,,,,,,,,PPT51,001,2022-07-12_14h50.11.074,ABstudy,2022.1.4,59.919851210580084,
AB,Lag5_T1P_T2P,5,P,P,8,13,7,4,17,trumpet,Did you see the trumpet?,0.12,0.016,JPG\,toaster01,scarf,toiletpaper01a,calculator01,violin,sewingmachine01a,fan,trumpet,strawberry,balloon01b,brownsugar,eraser,stapler01,rice,ring01,shirt02,blankImage,trumpet,,,,,,,,,,,,0,61,61,145,,,,,,,,,,,,,,,,,,,,,,,,,,,,,,,,,,,478.6261255000718,479.637672400102,479.62098599993624,480.2101525000762,480.2101525000762,None,482.1842932999134,None,left,0.43963510007597506,482.1842932999134,None,482.6406926999334,None,left,0.3194686002098024,482.6406926999334,None,,,,,,,,,,,,,,,,,,,,,,,PPT51,001,2022-07-12_14h50.11.074,ABstudy,2022.1.4,59.919851210580084,
AB,Lag5_T1A_T2P,5,A,P,6,11,5,3,14,saxophone,Did you see the saxophone?,0.12,0.016,JPG\,globe,belt02a,sponge01,violin,fork03c,tomato01,clock01a,microscope,balloon01b,scarf,stapler03b,pen04b,brick,brownsugar,blankImage,blankImage,blankImage,microphone01,,,,,,,,,,,,0,62,62,267,,,,,,,,,,,,,,,,,,,,,,,,,,,,,,,,,,,482.9959603000898,484.0089740001131,483.9922013001051,484.5760735999793,484.5760735999793,None,486.1820308000315,None,left,1.008247199933976,486.1820308000315,None,487.2119038000237,None,left,0.3381944999564439,487.2119038000237,None,,,,,,,,,,,,,,,,,,,,,,,PPT51,001,2022-07-12_14h50.11.074,ABstudy,2022.1.4,59.919851210580084,
AB,Lag1_T1P_T2P,1,P,P,5,6,4,4,10,skateboard,Did you see the skateboard?,0.12,0.016,JPG\,binoculars01b,cymbal,pizza,candy,skateboard,stapler05,grape01,thermometer02b,speaker04,lemon02,blankImage,blankImage,blankImage,blankImage,blankImage,blankImage,blankImage,skateboard,,,,,,,,,,,,0,63,63,25,,,,,,,,,,,,,,,,,,,,,,,,,,,,,,,,,,,487.6269183999393,488.6300920001231,488.6134510000702,489.20775480009615,489.20775480009615,None,490.40494329994544,None,left,1.689366800012067,490.40494329994544,None,492.11831329995766,None,right,0.8176997997798026,492.11831329995766,None,,,,,,,,,,,,,,,,,,,,,,,PPT51,001,2022-07-12_14h50.11.074,ABstudy,2022.1.4,59.919851210580084,
AB,Lag1_T1P_T2A,1,P,A,6,7,5,3,10,Dragon fly,Did you see the Dragon fly?,0.12,0.016,JPG\,leaf02a,pear01,measuringcup01,cigarette,fan,dragonfly01,teabag,tableknife02,ring01,pencil01,blankImage,blankImage,blankImage,blankImage,blankImage,blankImage,blankImage,dragonfly01,,,,,,,,,,,,0,64,64,185,,,,,,,,,,,,,,,,,,,,,,,,,,,,,,,,,,,492.9801119999029,493.9851301999297,493.9684035999235,494.540725100087,494.540725100087,None,495.82500869990326,None,left,0.9490858998615295,495.82500869990326,None,496.80480589997023,None,right,0.3372669001109898,496.80480589997023,None,,,,,,,,,,,,,,,,,,,,,,,PPT51,001,2022-07-12_14h50.11.074,ABstudy,2022.1.4,59.919851210580084,
AB,Lag5_T1P_T2A,5,P,A,5,10,4,4,14,rocket,Did you see the rocket?,0.12,0.016,JPG\,fan,tomato01,candy,screwdriver04b,spacerocket,cd,thermometer02b,apple07,button01,plate01b,brownsugar,lighter01,clock01a,envelope03a,blankImage,blankImage,blankImage,spacerocket,,,,,,,,,,,,0,65,65,226,,,,,,,,,,,,,,,,,,,,,,,,,,,,,,,,,,,497.17506129993126,498.18970090011135,498.1563216999639,498.75315150013193,498.75315150013193,None,500.45402449998073,None,right,0.7601574999280274,500.45402449998073,None,501.2428041000385,None,right,0.8125257999636233,501.2428041000385,None,,,,,,,,,,,,,,,,,,,,,,,PPT51,001,2022-07-12_14h50.11.074,ABstudy,2022.1.4,59.919851210580084,
AB,Lag5_T1P_T2P,5,P,P,5,10,4,4,14,duck,Did you see the duck?,0.12,0.016,JPG\,celery,pencil01,fan,foosballtable,duck01,shirt02,potato02b,fork03c,button01,stapler03a,baseball01a,printer02,cauliflower01,dandelion,blankImage,blankImage,blankImage,duck01,,,,,,,,,,,,0,66,66,130,,,,,,,,,,,,,,,,,,,,,,,,,,,,,,,,,,,502.0834590999875,503.094631300075,503.0780267000664,503.6569864999037,503.6569864999037,None,505.2633815999143,None,left,0.5347221998963505,505.2633815999143,None,505.8303789999336,None,left,0.30401949980296195,505.8303789999336,None,,,,,,,,,,,,,,,,,,,,,,,PPT51,001,2022-07-12_14h50.11.074,ABstudy,2022.1.4,59.919851210580084,
AB,Lag5_T1P_T2P,5,P,P,7,12,6,5,17,Badminton Racket,Did you see the Badminton Racket?,0.12,0.016,JPG\,paintbrush01,dice05a,watermelon01,broccoli01a,hammer01,leaf02a,badmintonracket,tennisball01b,lemon02,fan,lipstick02a,stapler04b,envelope03a,sponge01,foosballtable,orange,blankImage,badmintonracket,,,,,,,,,,,,0,67,67,163,,,,,,,,,,,,,,,,,,,,,,,,,,,,,,,,,,,506.1687437999062,507.1817850000225,507.16517410008237,507.7347989999689,507.7347989999689,None,509.6645430000499,None,left,0.4860090999864042,509.6645430000499,None,510.1694674999453,None,left,0.325137099949643,510.1694674999453,None,,,,,,,,,,,,,,,,,,,,,,,PPT51,001,2022-07-12_14h50.11.074,ABstudy,2022.1.4,59.919851210580084,
AB,Lag1_T1P_T2P,1,P,P,6,7,5,3,10,drum sticks,Did you see the drum sticks?,0.12,0.016,JPG\,pineapple01a,tennisball01b,computerkeyboard02,feather03a,belt02a,drumstick,stapler03b,blueberry01,medal02b,alligator,blankImage,blankImage,blankImage,blankImage,blankImage,blankImage,blankImage,drumstick,,,,,,,,,,,,0,68,68,61,,,,,,,,,,,,,,,,,,,,,,,,,,,,,,,,,,,510.5790244000964,511.58614669996314,511.56946999998763,512.1498382000718,512.1498382000718,None,513.2379628999624,None,left,0.6407480000052601,513.2379628999624,None,513.9050706999842,None,left,0.4058290000539273,513.9050706999842,None,,,,,,,,,,,,,,,,,,,,,,,PPT51,001,2022-07-12_14h50.11.074,ABstudy,2022.1.4,59.919851210580084,
AB,Lag5_T1P_T2P,5,P,P,7,12,6,4,16,window,Did you see the window?,0.12,0.016,JPG\,cigarette,pig,banana01,strawberry,clock01a,plate01b,dormer,blueberry01,battery02b,pineapple01a,chain01,stapler01,candy,pen04b,teabag,birthdaycandle,blankImage,dormer,,,,,,,,,,,,0,69,69,170,,,,,,,,,,,,,,,,,,,,,,,,,,,,,,,,,,,514.3391662999056,515.3402386999223,515.3234399000648,515.9094716000836,515.9094716000836,None,517.8260767001193,None,left,0.46104269986972213,517.8260767001193,None,518.3097167999949,None,left,0.31236060010269284,518.3097167999949,None,,,,,,,,,,,,,,,,,,,,,,,PPT51,001,2022-07-12_14h50.11.074,ABstudy,2022.1.4,59.919851210580084,
AB,Lag5_T1P_T2P,5,P,P,7,12,6,5,17,elbow,Did you see the elbow?,0.12,0.016,JPG\,candle01,fork03c,plate01b,violin,computerkeyboard02,candy,elbow,paintbrush01,cherry01,sock01a,teabag,stapler01,cd,lighter01,book01b,tennisball01b,blankImage,elbow,,,,,,,,,,,,0,70,70,87,,,,,,,,,,,,,,,,,,,,,,,,,,,,,,,,,,,518.6504041999578,519.6610999999102,519.6443141000345,520.2109906000551,520.2109906000551,None,522.1651683000382,None,left,0.5059217000380158,522.1651683000382,None,522.697482699994,None,left,0.3253518999554217,522.697482699994,None,,,,,,,,,,,,,,,,,,,,,,,PPT51,001,2022-07-12_14h50.11.074,ABstudy,2022.1.4,59.919851210580084,
AB,Lag1_T1P_T2P,1,P,P,5,6,4,5,11,Guitar case,Did you see the Guitar case?,0.12,0.016,JPG\,broccoli01a,scissors01,toothbrush03b,foosballtable,guitarcase,stapler05,hammer01,toiletpaper01a,cd,garlic01a,carrot01,blankImage,blankImage,blankImage,blankImage,blankImage,blankImage,guitarcase,,,,,,,,,,,,0,71,71,14,,,,,,,,,,,,,,,,,,,,,,,,,,,,,,,,,,,523.0583456999157,524.0655205999501,524.0486306000967,524.6258557999972,524.6258557999972,None,525.9960831999779,None,left,1.098253499949351,525.9960831999779,None,527.1183694000356,None,left,0.4397613999899477,527.1183694000356,None,,,,,,,,,,,,,,,,,,,,,,,PPT51,001,2022-07-12_14h50.11.074,ABstudy,2022.1.4,59.919851210580084,
AB,Lag5_T1P_T2P,5,P,P,6,11,5,5,16,table,Did you see the table?,0.12,0.016,JPG\,birthdaycandle,mushroom01,strawberry,match,cherry01,table01,hammer01,thermometer02b,sock01a,ring01,stapler06,banana01,toiletpaper01a,key01,sponge01,teabag,blankImage,table01,,,,,,,,,,,,0,72,72,144,,,,,,,,,,,,,,,,,,,,,,,,,,,,,,,,,,,527.5877159000374,528.6033107000403,528.5698589999229,529.0705335999373,529.0705335999373,None,531.1397386000026,None,left,0.45116029982455075,531.1397386000026,None,531.6231466999743,None,left,0.28758860006928444,531.6231466999743,None,,,,,,,,,,,,,,,,,,,,,,,PPT51,001,2022-07-12_14h50.11.074,ABstudy,2022.1.4,59.919851210580084,
AB,Lag1_T1P_T2P,1,P,P,5,6,4,3,9,camel,Did you see the camel?,0.12,0.016,JPG\,iron01b,brick,broccoli01a,balloon01b,dromedary,stapler05,sandal,teabag,scissors01,blankImage,blankImage,blankImage,blankImage,blankImage,blankImage,blankImage,blankImage,dromedary,,,,,,,,,,,,0,73,73,11,,,,,,,,,,,,,,,,,,,,,,,,,,,,,,,,,,,531.9448553000111,532.957425700035,532.9407697001006,533.5445878999308,533.5445878999308,None,534.6220084000379,None,left,0.736112599959597,534.6220084000379,None,535.3765644000378,None,left,0.2693959998432547,535.3765644000378,None,,,,,,,,,,,,,,,,,,,,,,,PPT51,001,2022-07-12_14h50.11.074,ABstudy,2022.1.4,59.919851210580084,
AB,Lag5_T1P_T2P,5,P,P,5,10,4,4,14,Salt shaker,Did you see the Salt shaker?,0.12,0.016,JPG\,fork03c,belt02a,grape01,computerkeyboard02,saltshaker03a,printer02,broom01,toiletpaper01a,toaster01,stapler01,book01b,blueberry01,spoon01,apple07,blankImage,blankImage,blankImage,saltshaker03a,,,,,,,,,,,,0,74,74,96,,,,,,,,,,,,,,,,,,,,,,,,,,,,,,,,,,,535.6808519999031,536.6945333001204,536.6778544001281,537.2505586000625,537.2505586000625,None,539.0469158999622,None,left,0.5120129999704659,539.0469158999622,None,539.5809567999095,None,left,0.20986220007762313,539.5809567999095,None,,,,,,,,,,,,,,,,,,,,,,,PPT51,001,2022-07-12_14h50.11.074,ABstudy,2022.1.4,59.919851210580084,
AB,Lag1_T1P_T2P,1,P,P,7,8,6,3,11,cloud,Did you see the cloud?,0.12,0.016,JPG\,lighter01,hammer01,spoon01,chain01,cymbal,sponge01,cloud,stapler06,pig,watermelon01,cauliflower01,blankImage,blankImage,blankImage,blankImage,blankImage,blankImage,cloud,,,,,,,,,,,,0,75,75,36,,,,,,,,,,,,,,,,,,,,,,,,,,,,,,,,,,,539.8195974000264,540.8319801001344,540.8153049999382,541.3952327000443,541.3952327000443,None,542.710658099968,None,left,0.40895690000616014,542.710658099968,None,543.1512718000449,None,left,0.3754390999674797,543.1512718000449,None,,,,,,,,,,,,,,,,,,,,,,,PPT51,001,2022-07-12_14h50.11.074,ABstudy,2022.1.4,59.919851210580084,
AB,Lag1_T1P_T2P,1,P,P,7,8,6,3,11,swing,Did you see the swing?,0.12,0.016,JPG\,sewingmachine01a,thermometer02b,sponge01,eraser,broccoli01a,fork03c,swing,stapler03b,belt02a,medal02b,pineapple01a,blankImage,blankImage,blankImage,blankImage,blankImage,blankImage,swing,,,,,,,,,,,,0,76,76,30,,,,,,,,,,,,,,,,,,,,,,,,,,,,,,,,,,,543.555964600062,544.5692893001251,544.5526475999504,545.1451960001141,545.1451960001141,None,546.4813371000346,None,left,0.43735760007984936,546.4813371000346,None,546.9382792999968,None,left,0.27666279999539256,546.9382792999968,None,,,,,,,,,,,,,,,,,,,,,,,PPT51,001,2022-07-12_14h50.11.074,ABstudy,2022.1.4,59.919851210580084,
AB,Lag5_T1P_T2P,5,P,P,5,10,4,5,15,Eye,Did you see the Eye?,0.12,0.016,JPG\,apple07,toiletpaper01a,pizza,dandelion,eye,eraser,microscope,violin,orange,stapler01,balloon01b,sandal,lighter01,fan,book01b,blankImage,blankImage,eye,,,,,,,,,,,,0,77,77,171,,,,,,,,,,,,,,,,,,,,,,,,,,,,,,,,,,,547.2438700001221,548.2562697001267,548.2395949999336,548.8330165001098,548.8330165001098,None,550.6717077000067,None,left,0.5666956000495702,550.6717077000067,None,551.2591035999358,None,left,0.28353679995052516,551.2591035999358,None,,,,,,,,,,,,,,,,,,,,,,,PPT51,001,2022-07-12_14h50.11.074,ABstudy,2022.1.4,59.919851210580084,
AB,Lag1_T1A_T2A,1,A,A,8,9,7,4,13,sword fish,Did you see the sword fish?,0.12,0.016,JPG\,pizza,strawberry,potato02b,speaker04,battery02b,iron01b,dice05a,cellphone,globe,banana01,medal02b,baseball01a,toaster01,blankImage,blankImage,blankImage,blankImage,ear,,,,,,,,,,,,0,78,78,295,,,,,,,,,,,,,,,,,,,,,,,,,,,,,,,,,,,551.5657154999208,552.5771411000751,552.560444700066,553.1795860999264,553.1795860999264,None,554.7112742001191,None,right,0.7349370000883937,554.7112742001191,None,555.4633518999908,None,right,0.9271624002140015,555.4633518999908,None,,,,,,,,,,,,,,,,,,,,,,,PPT51,001,2022-07-12_14h50.11.074,ABstudy,2022.1.4,59.919851210580084,
AB,Lag1_T1P_T2P,1,P,P,6,7,5,3,10,cupcake,Did you see the cupcake?,0.12,0.016,JPG\,printer02,leaf02a,cauliflower01,sock01a,brownsugar,cupcake,stapler01,orange,belt02a,shirt02,blankImage,blankImage,blankImage,blankImage,blankImage,blankImage,blankImage,cupcake,,,,,,,,,,,,0,79,79,38,,,,,,,,,,,,,,,,,,,,,,,,,,,,,,,,,,,556.4151071999222,557.4153515999205,557.3986303000711,557.9990091999061,557.9990091999061,None,559.2362482000608,None,left,1.353847100166604,559.2362482000608,None,560.6184769999236,None,right,1.1323543000034988,560.6184769999236,None,,,,,,,,,,,,,,,,,,,,,,,PPT51,001,2022-07-12_14h50.11.074,ABstudy,2022.1.4,59.919851210580084,
AB,Lag1_T1A_T2P,1,A,P,7,8,6,3,11,lion,Did you see the lion?,0.12,0.016,JPG\,sock01a,spoon01,alligator,comb02a,printer02,medal02b,lamp04a,stapler01,greenolive,computerkeyboard02,cauliflower01,blankImage,blankImage,blankImage,blankImage,blankImage,blankImage,bullet,,,,,,,,,,,,0,80,80,229,,,,,,,,,,,,,,,,,,,,,,,,,,,,,,,,,,,561.7734614000656,562.7872711000964,562.754046499962,563.336824500002,563.336824500002,None,564.7532297000289,None,right,0.9086595000699162,564.7532297000289,None,565.6902195001021,None,left,0.36358909984119236,565.6902195001021,None,,,,,,,,,,,,,,,,,,,,,,,PPT51,001,2022-07-12_14h50.11.074,ABstudy,2022.1.4,59.919851210580084,
AB,Lag5_T1A_T2P,5,A,P,6,11,5,3,14,keys,Did you see the keys?,0.12,0.016,JPG\,pencil01,microscope,banana01,computerkeyboard02,celery,cellphone,scissors01,sock01a,book01b,onion,stapler03a,binoculars01b,baseball01a,iron01b,blankImage,blankImage,blankImage,treadmill,,,,,,,,,,,,0,81,81,275,,,,,,,,,,,,,,,,,,,,,,,,,,,,,,,,,,,566.0786778999027,567.0916009000503,567.0748974999879,567.6401055001188,567.6401055001188,None,569.3480766001157,None,right,1.0897175997961313,569.3480766001157,None,570.4616032999475,None,left,0.3283174999523908,570.4616032999475,None,,,,,,,,,,,,,,,,,,,,,,,PPT51,001,2022-07-12_14h50.11.074,ABstudy,2022.1.4,59.919851210580084,
AB,Lag1_T1P_T2A,1,P,A,7,8,6,3,11,Armadillo,Did you see the Armadillo?,0.12,0.016,JPG\,clock01a,cellphone,toaster01,toothbrush03b,cauliflower01,microscope,armadillo,paintbrush01,scarf,clock04,sponge01,blankImage,blankImage,blankImage,blankImage,blankImage,blankImage,armadillo,,,,,,,,,,,,0,82,82,180,,,,,,,,,,,,,,,,,,,,,,,,,,,,,,,,,,,570.8215524000116,571.829740599962,571.812949599931,572.4032668999862,572.4032668999862,None,573.748847000068,None,left,1.0185579999815673,573.748847000068,None,574.7992561999708,None,right,0.2712067000102252,574.7992561999708,None,,,,,,,,,,,,,,,,,,,,,,,PPT51,001,2022-07-12_14h50.11.074,ABstudy,2022.1.4,59.919851210580084,
AB,Lag5_T1P_T2P,5,P,P,6,11,5,5,16,Parking meter,Did you see the Parking meter?,0.12,0.016,JPG\,dice05a,watch02a,pig,lighter01,button01,parkingmeter,paintbrush01,microscope,plate01b,pen04b,stapler03b,weight04a,carrot01,shirt02,globe,garlic01a,blankImage,parkingmeter,,,,,,,,,,,,0,83,83,172,,,,,,,,,,,,,,,,,,,,,,,,,,,,,,,,,,,575.1064011999406,576.1172321001068,576.10056790011,576.7029164000414,576.7029164000414,None,578.6345738000236,None,right,0.6832625002134591,578.6345738000236,None,579.3372243000194,None,left,0.3487845999188721,579.3372243000194,None,,,,,,,,,,,,,,,,,,,,,,,PPT51,001,2022-07-12_14h50.11.074,ABstudy,2022.1.4,59.919851210580084,
AB,Lag5_T1A_T2P,5,A,P,5,10,4,5,15,Sushi,Did you see the Sushi?,0.12,0.016,JPG\,pineapple01a,leaf02a,grape01,toiletpaper01a,match,tennisball01b,spoon01,chain01,pig,stapler04b,ring01,lemon02,dice05a,pizza,potato02b,blankImage,blankImage,crown,,,,,,,,,,,,0,84,84,285,,,,,,,,,,,,,,,,,,,,,,,,,,,,,,,,,,,579.7111533000134,580.7219605999999,580.7051633999217,581.2892917999998,581.2892917999998,None,583.1419679999817,None,right,0.9049454000778496,583.1419679999817,None,584.0750444000587,None,left,0.3631557000335306,584.0750444000587,None,,,,,,,,,,,,,,,,,,,,,,,PPT51,001,2022-07-12_14h50.11.074,ABstudy,2022.1.4,59.919851210580084,
AB,Lag5_T1P_T2A,5,P,A,8,13,7,4,17,knife,Did you see the knife?,0.12,0.016,JPG\,lighter01,hammer01,spoon01,chain01,cymbal,sponge01,lipstick02a,knife03,pig,watermelon01,cauliflower01,lemon02,broccoli01a,tableknife02,tennisball01b,toothbrush03b,blankImage,knife03,,,,,,,,,,,,0,85,85,214,,,,,,,,,,,,,,,,,,,,,,,,,,,,,,,,,,,584.4601259999909,585.4603192999493,585.4428900000639,586.0351297000889,586.0351297000889,None,588.0340336000081,None,left,0.8518240998964757,588.0340336000081,None,588.9133427999914,None,right,0.3645617999136448,588.9133427999914,None,,,,,,,,,,,,,,,,,,,,,,,PPT51,001,2022-07-12_14h50.11.074,ABstudy,2022.1.4,59.919851210580084,
AB,Lag1_T1A_T2A,1,A,A,6,7,5,5,12,flamingo,Did you see the flamingo?,0.12,0.016,JPG\,chain01,pen04b,birthdaycandle,watermelon01,broom01,scissors01,measuringcup01,candle01,hammer01,calculator01,ashtray01,feather03a,blankImage,blankImage,blankImage,blankImage,blankImage,witchhat,,,,,,,,,,,,0,86,86,288,,,,,,,,,,,,,,,,,,,,,,,,,,,,,,,,,,,589.3029610000085,590.3148560000118,590.2980871999171,590.8870302999858,590.8870302999858,None,592.3512025999371,None,right,1.1674826999660581,592.3512025999371,None,593.5512890999671,None,right,0.4150510998442769,593.5512890999671,None,,,,,,,,,,,,,,,,,,,,,,,PPT51,001,2022-07-12_14h50.11.074,ABstudy,2022.1.4,59.919851210580084,
AB,Lag1_T1A_T2P,1,A,P,5,6,4,3,9,Crown,Did you see the Crown?,0.12,0.016,JPG\,leaf02a,pear01,measuringcup01,cigarette,fan,stapler04b,teabag,tableknife02,ring01,blankImage,blankImage,blankImage,blankImage,blankImage,blankImage,blankImage,blankImage,arrow02,,,,,,,,,,,,0,87,87,248,,,,,,,,,,,,,,,,,,,,,,,,,,,,,,,,,,,593.9918869999237,595.0026877999771,594.9861149999779,595.5643774000928,595.5643774000928,None,596.7297431000043,None,right,0.7959433000069112,596.7297431000043,None,597.5552213999908,None,left,0.3634852000977844,597.5552213999908,None,,,,,,,,,,,,,,,,,,,,,,,PPT51,001,2022-07-12_14h50.11.074,ABstudy,2022.1.4,59.919851210580084,
AB,Lag5_T1A_T2P,5,A,P,6,11,5,3,14,Kiwi,Did you see the Kiwi?,0.12,0.016,JPG\,paintbrush01,dice05a,watermelon01,broccoli01a,hammer01,leaf02a,match,tennisball01b,lemon02,fan,stapler06,grape01,envelope03a,sponge01,blankImage,blankImage,blankImage,granolabar01,,,,,,,,,,,,0,88,88,261,,,,,,,,,,,,,,,,,,,,,,,,,,,,,,,,,,,597.9441142999567,598.9567400999367,598.9399602999911,599.5002671000548,599.5002671000548,None,601.2115446999669,None,right,0.7941592999268323,601.2115446999669,None,602.026692799991,None,left,0.3710698001086712,602.026692799991,None,,,,,,,,,,,,,,,,,,,,,,,PPT51,001,2022-07-12_14h50.11.074,ABstudy,2022.1.4,59.919851210580084,
AB,Lag1_T1P_T2A,1,P,A,5,6,4,4,10,bird,Did you see the bird?,0.12,0.016,JPG\,toaster01,scarf,toiletpaper01a,calculator01,swallow,sewingmachine01a,fan,teabag,strawberry,balloon01b,blankImage,blankImage,blankImage,blankImage,blankImage,blankImage,blankImage,swallow,,,,,,,,,,,,0,89,89,195,,,,,,,,,,,,,,,,,,,,,,,,,,,,,,,,,,,602.4322991000954,603.444400300039,603.4277492999099,604.0257369000465,604.0257369000465,None,605.3017917999532,None,left,1.0079534000251442,605.3017917999532,None,606.3307529001031,None,right,0.4435157999396324,606.3307529001031,None,,,,,,,,,,,,,,,,,,,,,,,PPT51,001,2022-07-12_14h50.11.074,ABstudy,2022.1.4,59.919851210580084,
AB,Lag1_T1A_T2A,1,A,A,5,6,4,4,10,rose,Did you see the rose?,0.12,0.016,JPG\,sock01a,spoon01,alligator,comb02a,printer02,medal02b,lamp04a,cymbal,greenolive,computerkeyboard02,blankImage,blankImage,blankImage,blankImage,blankImage,blankImage,blankImage,cruiseship,,,,,,,,,,,,0,90,90,293,,,,,,,,,,,,,,,,,,,,,,,,,,,,,,,,,,,606.8019773999695,607.8156230999157,607.7989240000024,608.477787700016,608.3988151999656,None,609.5923252999783,None,right,0.6134450999088585,609.5923252999783,None,610.2345364000648,None,right,0.3314019001554698,610.2345364000648,None,,,,,,,,,,,,,,,,,,,,,,,PPT51,001,2022-07-12_14h50.11.074,ABstudy,2022.1.4,59.919851210580084,
AB,Lag5_T1P_T2A,5,P,A,7,12,6,5,17,shoulder,Did you see the shoulder?,0.12,0.016,JPG\,battery02b,sunglasses04,pear01,tennisball01b,clock01a,speaker04,shoulder,spoon01,alligator,pineapple01a,avocado01,grape01,blueberry01,violin,strawberry,sock01a,blankImage,shoulder,,,,,,,,,,,,0,91,91,224,,,,,,,,,,,,,,,,,,,,,,,,,,,,,,,,,,,610.5888896000106,611.602574700024,611.585899299942,612.1624736001249,612.1624736001249,None,614.1862325000111,None,left,0.8920593000948429,614.1862325000111,None,615.1075909000356,None,right,0.306857299990952,615.1075909000356,None,,,,,,,,,,,,,,,,,,,,,,,PPT51,001,2022-07-12_14h50.11.074,ABstudy,2022.1.4,59.919851210580084,
AB,Lag5_T1P_T2A,5,P,A,7,12,6,5,17,corn,Did you see the corn?,0.12,0.016,JPG\,avocado01,pingpongpaddle01c,match,cauliflower01,paintbrush01,clock01a,corn02,cd,balloon01b,cellphone,watch02a,pear01,toaster01,sponge01,orange,blueberry01,blankImage,corn02,,,,,,,,,,,,0,92,92,210,,,,,,,,,,,,,,,,,,,,,,,,,,,,,,,,,,,615.4484039000235,616.4573075999506,616.4406316999812,617.0275685999077,617.0275685999077,None,619.0003382000141,None,left,0.838050999911502,619.0003382000141,None,619.8619407000951,None,right,0.7765909999143332,619.8619407000951,None,,,,,,,,,,,,,,,,,,,,,,,PPT51,001,2022-07-12_14h50.11.074,ABstudy,2022.1.4,59.919851210580084,
AB,Lag1_T1P_T2P,1,P,P,8,9,7,4,13,mattress,Did you see the mattress?,0.12,0.016,JPG\,button01,celery,birthdaycandle,apple07,avocado01,tennisball01b,dice05a,mattress,stapler01,feather03a,tomato01,scarf,orange,blankImage,blankImage,blankImage,blankImage,mattress,,,,,,,,,,,,0,93,93,22,,,,,,,,,,,,,,,,,,,,,,,,,,,,,,,,,,,620.6681908001192,621.6791385000106,621.6623915000819,622.2496655001305,622.2496655001305,None,623.8548161999788,None,left,0.5199486999772489,623.8548161999788,None,624.3987922000233,None,left,0.27087890007533133,624.3987922000233,None,,,,,,,,,,,,,,,,,,,,,,,PPT51,001,2022-07-12_14h50.11.074,ABstudy,2022.1.4,59.919851210580084,
AB,Lag1_T1P_T2P,1,P,P,6,7,5,4,11,cash register,Did you see the cash register?,0.12,0.016,JPG\,leaf02a,apple07,cd,pineapple01a,envelope03a,cashregister01,stapler03b,8ball,rice,feather03a,lemon02,blankImage,blankImage,blankImage,blankImage,blankImage,blankImage,cashregister01,,,,,,,,,,,,0,94,94,79,,,,,,,,,,,,,,,,,,,,,,,,,,,,,,,,,,,624.7033732999116,625.7166359000839,625.699970500078,626.2660715999082,626.2660715999082,None,627.6359614001121,None,left,0.47398160002194345,627.6359614001121,None,628.1351805999875,None,left,0.3434945000335574,628.1351805999875,None,,,,,,,,,,,,,,,,,,,,,,,PPT51,001,2022-07-12_14h50.11.074,ABstudy,2022.1.4,59.919851210580084,
AB,Lag1_T1P_T2P,1,P,P,8,9,7,3,12,zebra,Did you see the zebra?,0.12,0.016,JPG\,apple07,toiletpaper01a,pizza,dandelion,greenolive,eraser,microscope,zebra,stapler03b,lipstick02a,balloon01b,sandal,blankImage,blankImage,blankImage,blankImage,blankImage,zebra,,,,,,,,,,,,0,95,95,28,,,,,,,,,,,,,,,,,,,,,,,,,,,,,,,,,,,628.514362399932,629.5204801000655,629.50339540001,630.0778928999789,630.0778928999789,None,631.5395460000727,None,left,0.45870199985802174,631.5395460000727,None,632.0240820001345,None,left,0.2858637999743223,632.0240820001345,None,,,,,,,,,,,,,,,,,,,,,,,PPT51,001,2022-07-12_14h50.11.074,ABstudy,2022.1.4,59.919851210580084,
AB,Lag1_T1P_T2P,1,P,P,6,7,5,4,11,American football,Did you see the American football?,0.12,0.016,JPG\,toaster01,garlic01a,faucet,fan,comb02a,football,stapler06,watch02a,onion,blueberry01,toiletpaper01a,blankImage,blankImage,blankImage,blankImage,blankImage,blankImage,football,,,,,,,,,,,,0,96,96,12,,,,,,,,,,,,,,,,,,,,,,,,,,,,,,,,,,,632.339799700072,633.3409879999235,633.324397899909,633.8941019999329,633.8941019999329,None,635.304124899907,None,right,0.8297550000716001,635.304124899907,None,636.1603920999914,None,left,0.3417638000100851,636.1603920999914,None,,,,,,,,,,,,,,,,,,,,,,,PPT51,001,2022-07-12_14h50.11.074,ABstudy,2022.1.4,59.919851210580084,
AB,Lag5_T1P_T2P,5,P,P,6,11,5,5,16,microwave,Did you see the microwave?,0.12,0.016,JPG\,pen04b,speaker04,lighter01,cherry01,weight04a,microwave,sock01a,toothbrush03b,broom01,sewingmachine01a,stapler06,iron01b,clock01a,sandal,cd,blueberry01,blankImage,microwave,,,,,,,,,,,,0,97,97,136,,,,,,,,,,,,,,,,,,,,,,,,,,,,,,,,,,,636.5319030000828,637.5451015001163,637.5283510000445,638.1004665999208,638.1004665999208,None,640.0634753000923,None,left,0.6061166001018137,640.0634753000923,None,640.6982205999084,None,left,0.2763973001856357,640.6982205999084,None,,,,,,,,,,,,,,,,,,,,,,,PPT51,001,2022-07-12_14h50.11.074,ABstudy,2022.1.4,59.919851210580084,
AB,Lag1_T1P_T2P,1,P,P,6,7,5,3,10,spider web,Did you see the spider web?,0.12,0.016,JPG\,toaster01,chain01,sponge01,baseball01a,carrot01,spiderweb,stapler03b,iron01b,grape01,brick,blankImage,blankImage,blankImage,blankImage,blankImage,blankImage,blankImage,spiderweb,,,,,,,,,,,,0,98,98,72,,,,,,,,,,,,,,,,,,,,,,,,,,,,,,,,,,,641.004551500082,642.0162037999835,641.9994650001172,642.585991299944,642.585991299944,None,643.7913115001284,None,right,0.71218780009076,643.7913115001284,None,644.5353471999988,None,left,0.31831729994155467,644.5353471999988,None,,,,,,,,,,,,,,,,,,,,,,,PPT51,001,2022-07-12_14h50.11.074,ABstudy,2022.1.4,59.919851210580084,
AB,Lag5_T1P_T2P,5,P,P,5,10,4,5,15,ear,Did you see the ear?,0.12,0.016,JPG\,fork03c,plate01b,toiletpaper01a,greenolive,ear,blueberry01,onion,calculator01,envelope03a,stapler06,book01b,pencil01,sewingmachine01a,brick,watermelon01,blankImage,blankImage,ear,,,,,,,,,,,,0,99,99,107,,,,,,,,,,,,,,,,,,,,,,,,,,,,,,,,,,,644.8881254999433,645.9033933000173,645.8700848999433,646.4310777999926,646.4310777999926,None,648.2590085000265,None,left,0.5069302001502365,648.2590085000265,None,648.7895190001,None,left,0.31243039993569255,648.7895190001,None,,,,,,,,,,,,,,,,,,,,,,,PPT51,001,2022-07-12_14h50.11.074,ABstudy,2022.1.4,59.919851210580084,
AB,Lag1_T1A_T2A,1,A,A,8,9,7,3,12,popcorn,Did you see the popcorn?,0.12,0.016,JPG\,brownsugar,candle01,match,printer02,broom01,balloon01b,belt02a,potato02b,computerkeyboard02,feather03a,rice,mushroom01,blankImage,blankImage,blankImage,blankImage,blankImage,banjo,,,,,,,,,,,,0,100,100,290,,,,,,,,,,,,,,,,,,,,,,,,,,,,,,,,,,,649.1295757999178,650.1409938000143,650.1242299999576,650.6249257000163,650.6249257000163,None,652.1338754000608,None,right,0.7844547000713646,652.1338754000608,None,652.9436018001288,None,right,0.8705734999384731,652.9436018001288,None,,,,,,,,,,,,,,,,,,,,,,,PPT51,001,2022-07-12_14h50.11.074,ABstudy,2022.1.4,59.919851210580084,
AB,Lag1_T1P_T2P,1,P,P,7,8,6,3,11,Moose,Did you see the Moose?,0.12,0.016,JPG\,sock01a,spoon01,alligator,comb02a,printer02,medal02b,moose,stapler03a,greenolive,computerkeyboard02,cauliflower01,blankImage,blankImage,blankImage,blankImage,blankImage,blankImage,moose,,,,,,,,,,,,0,101,101,67,,,,,,,,,,,,,,,,,,,,,,,,,,,,,,,,,,,653.8477509000804,654.8622860000469,654.8456677000504,655.4365546999034,655.4365546999034,None,656.8121291999705,None,left,0.5535191998351365,656.8121291999705,None,657.3981693000533,None,left,0.25541540002450347,657.3981693000533,None,,,,,,,,,,,,,,,,,,,,,,,PPT51,001,2022-07-12_14h50.11.074,ABstudy,2022.1.4,59.919851210580084,
AB,Lag1_T1P_T2P,1,P,P,8,9,7,4,13,Hula hoop,Did you see the Hula hoop?,0.12,0.016,JPG\,brownsugar,candle01,match,printer02,broom01,balloon01b,belt02a,hulahoop,stapler04b,feather03a,rice,mushroom01,pencil01,blankImage,blankImage,blankImage,blankImage,hulahoop,,,,,,,,,,,,0,102,102,64,,,,,,,,,,,,,,,,,,,,,,,,,,,,,,,,,,,657.6872604999226,658.6993776001036,658.6828481999692,659.1833603000268,659.1833603000268,None,660.8183915999252,None,left,0.41213899990543723,660.8183915999252,None,661.25185650005,None,left,0.2588069001212716,661.25185650005,None,,,,,,,,,,,,,,,,,,,,,,,PPT51,001,2022-07-12_14h50.11.074,ABstudy,2022.1.4,59.919851210580084,
AB,Lag1_T1P_T2P,1,P,P,6,7,5,4,11,Bow,Did you see the Bow?,0.12,0.016,JPG\,broom01,plate01b,scissors01,garlic01a,paintbrush01,bow,stapler03a,shirt02,speaker04,celery,sandal,blankImage,blankImage,blankImage,blankImage,blankImage,blankImage,bow,,,,,,,,,,,,0,103,103,53,,,,,,,,,,,,,,,,,,,,,,,,,,,,,,,,,,,661.5855408001225,662.5864363999572,662.5697479001246,663.1428767999168,663.1428767999168,None,664.485839900095,None,left,0.7763000000268221,664.485839900095,None,665.2894019000232,None,right,0.90041090012528,665.2894019000232,None,,,,,,,,,,,,,,,,,,,,,,,PPT51,001,2022-07-12_14h50.11.074,ABstudy,2022.1.4,59.919851210580084,
AB,Lag1_T1P_T2P,1,P,P,8,9,7,5,14,lawn mower,Did you see the lawn mower?,0.12,0.016,JPG\,battery02b,sunglasses04,pear01,tennisball01b,clock01a,speaker04,binoculars01b,lawnmower,stapler05,pineapple01a,avocado01,grape01,blueberry01,violin,blankImage,blankImage,blankImage,lawnmower,,,,,,,,,,,,0,104,104,46,,,,,,,,,,,,,,,,,,,,,,,,,,,,,,,,,,,666.2114939999301,667.2245501999278,667.2079571001232,667.7981320999097,667.7981320999097,None,669.4797897001263,None,left,0.5345284999348223,669.4797897001263,None,670.0436893999577,None,left,0.23383780010044575,670.0436893999577,None,,,,,,,,,,,,,,,,,,,,,,,PPT51,001,2022-07-12_14h50.11.074,ABstudy,2022.1.4,59.919851210580084,
AB,Lag1_T1P_T2A,1,P,A,7,8,6,4,12,Steering wheel,Did you see the Steering wheel?,0.12,0.016,JPG\,alligator,banana01,apple07,tomato01,button01,spoon01,steeringwheel,fork03c,canoftennisballs,potato02b,grape01,leaf02a,blankImage,blankImage,blankImage,blankImage,blankImage,steeringwheel,,,,,,,,,,,,0,105,105,198,,,,,,,,,,,,,,,,,,,,,,,,,,,,,,,,,,,670.3747199000791,671.3785981999245,671.3618713999167,671.8624158999883,671.8624158999883,None,673.3623355999589,None,left,0.7473437001463026,673.3623355999589,None,674.131259100046,None,right,0.3303429000079632,674.131259100046,None,,,,,,,,,,,,,,,,,,,,,,,PPT51,001,2022-07-12_14h50.11.074,ABstudy,2022.1.4,59.919851210580084,
AB,Lag5_T1P_T2P,5,P,P,7,12,6,5,17,Pigeon,Did you see the Pigeon?,0.12,0.016,JPG\,strawberry,leaf02a,clock04,candle01,avocado01,paintbrush01,pigeon,brownsugar,ring01,lemon02,fork03c,stapler01,cauliflower01,tableknife02,tennisball01b,thermometer02b,blankImage,pigeon,,,,,,,,,,,,0,106,106,151,,,,,,,,,,,,,,,,,,,,,,,,,,,,,,,,,,,674.4840702000074,675.4993342999369,675.4659422999248,676.0435180000495,676.0435180000495,None,678.0158464999404,None,left,0.4219959999900311,678.0158464999404,None,678.4692013000604,None,left,0.3045397000387311,678.4692013000604,None,,,,,,,,,,,,,,,,,,,,,,,PPT51,001,2022-07-12_14h50.11.074,ABstudy,2022.1.4,59.919851210580084,
AB,Lag1_T1P_T2P,1,P,P,6,7,5,3,10,handcuffs,Did you see the handcuffs?,0.12,0.016,JPG\,sewingmachine01a,scarf,carrot01,book01b,eraser,handcuffs,stapler05,lipstick02a,printer02,garlic01a,blankImage,blankImage,blankImage,blankImage,blankImage,blankImage,blankImage,handcuffs,,,,,,,,,,,,0,107,107,2,,,,,,,,,,,,,,,,,,,,,,,,,,,,,,,,,,,678.80735119991,679.8204890000634,679.80383479991,680.4376282999292,680.4376282999292,None,681.6439223999623,None,left,0.8182526000309736,681.6439223999623,None,682.4897942000534,None,left,0.31629340001381934,682.4897942000534,None,,,,,,,,,,,,,,,,,,,,,,,PPT51,001,2022-07-12_14h50.11.074,ABstudy,2022.1.4,59.919851210580084,
AB,Lag5_T1P_T2P,5,P,P,5,10,4,3,13,Sushi,Did you see the Sushi?,0.12,0.016,JPG\,carrot01,greenolive,fork03c,chain01,makiroll,watermelon01,tableknife02,printer02,comb02a,stapler03b,orange,rice,fan,blankImage,blankImage,blankImage,blankImage,makiroll,,,,,,,,,,,,0,108,108,135,,,,,,,,,,,,,,,,,,,,,,,,,,,,,,,,,,,682.827864699997,683.8411747000646,683.8244851999916,684.4104881000239,684.4104881000239,None,685.9609777000733,None,left,0.7005366000812501,685.9609777000733,None,686.6939976001158,None,right,0.39967049984261394,686.6939976001158,None,,,,,,,,,,,,,,,,,,,,,,,PPT51,001,2022-07-12_14h50.11.074,ABstudy,2022.1.4,59.919851210580084,
AB,Lag1_T1A_T2P,1,A,P,5,6,4,3,9,chimney,Did you see the chimney?,0.12,0.016,JPG\,cucumber,sponge01,alligator,pear01,ashtray01,stapler06,clock04,battery02b,fork03c,blankImage,blankImage,blankImage,blankImage,blankImage,blankImage,blankImage,blankImage,trophy01,,,,,,,,,,,,0,109,109,246,,,,,,,,,,,,,,,,,,,,,,,,,,,,,,,,,,,687.1155167000834,688.1288550000172,688.1122566000558,688.6912394000683,688.6912394000683,None,689.8123874000739,None,right,1.3855308000929654,689.8123874000739,None,691.2152313999832,None,left,0.3985708998516202,691.2152313999832,None,,,,,,,,,,,,,,,,,,,,,,,PPT51,001,2022-07-12_14h50.11.074,ABstudy,2022.1.4,59.919851210580084,
AB,Lag1_T1A_T2P,1,A,P,5,6,4,3,9,barrel,Did you see the barrel?,0.12,0.016,JPG\,clock01a,cellphone,toaster01,toothbrush03b,cauliflower01,stapler01,comb02a,paintbrush01,scarf,blankImage,blankImage,blankImage,blankImage,blankImage,blankImage,blankImage,blankImage,sheep,,,,,,,,,,,,0,110,110,243,,,,,,,,,,,,,,,,,,,,,,,,,,,,,,,,,,,691.6380348999519,692.6498414999805,692.6333012001123,693.2030424000695,693.2030424000695,None,694.327729200013,None,right,0.710414000088349,694.327729200013,None,695.070307899965,None,left,0.35164860007353127,695.070307899965,None,,,,,,,,,,,,,,,,,,,,,,,PPT51,001,2022-07-12_14h50.11.074,ABstudy,2022.1.4,59.919851210580084,
AB,Lag5_T1P_T2P,5,P,P,7,12,6,3,15,Rollerblade,Did you see the Rollerblade?,0.12,0.016,JPG\,hammer01,sponge01,toaster01,cherry01,feather03a,mushroom01,rollerblade,pencil01,tennisball01b,brick,clock04,stapler06,teabag,garlic01a,envelope03a,blankImage,blankImage,rollerblade,,,,,,,,,,,,0,111,111,116,,,,,,,,,,,,,,,,,,,,,,,,,,,,,,,,,,,695.4590837000869,696.4700325001031,696.4533267000224,697.0317951000761,697.0317951000761,None,698.8388634999283,None,left,0.3910063998773694,698.8388634999283,None,699.2563746001106,None,left,0.2865919000469148,699.2563746001106,None,,,,,,,,,,,,,,,,,,,,,,,PPT51,001,2022-07-12_14h50.11.074,ABstudy,2022.1.4,59.919851210580084,
AB,Lag5_T1P_T2P,5,P,P,8,13,7,5,18,bed,Did you see the bed?,0.12,0.016,JPG\,pencil01,broccoli01a,button01,sponge01,watermelon01,lipstick02a,comb02a,bed,lighter01,sock01a,spoon01,blueberry01,stapler04b,onion,grape01,avocado01,blankImage,bed,,,,,,,,,,,,0,112,112,124,,,,,,,,,,,,,,,,,,,,,,,,,,,,,,,,,,,699.5758557000663,700.5910231000744,700.5576528001111,701.1276044000406,701.1276044000406,None,703.1532467000652,None,left,0.9725252999924123,703.1532467000652,None,704.144680300029,None,right,0.34116990002803504,704.144680300029,None,,,,,,,,,,,,,,,,,,,,,,,PPT51,001,2022-07-12_14h50.11.074,ABstudy,2022.1.4,59.919851210580084,
AB,Lag5_T1P_T2P,5,P,P,8,13,7,4,17,butterfly,Did you see the butterfly?,0.12,0.016,JPG\,speaker04,sewingmachine01a,eraser,violin,globe,belt02a,sunglasses04,butterfly,cd,greenolive,alligator,pear01,stapler01,screwdriver04b,banana01,cigarette,blankImage,butterfly,,,,,,,,,,,,0,113,113,126,,,,,,,,,,,,,,,,,,,,,,,,,,,,,,,,,,,704.5166672999039,705.5294798999093,705.512828100007,706.0925038000569,706.0925038000569,None,708.0519835001323,None,left,0.4896962000057101,708.0519835001323,None,708.5657792000566,None,left,0.34501899988390505,708.5657792000566,None,,,,,,,,,,,,,,,,,,,,,,,PPT51,001,2022-07-12_14h50.11.074,ABstudy,2022.1.4,59.919851210580084,
AB,Lag5_T1P_T2P,5,P,P,5,10,4,3,13,lollipop,Did you see the lollipop?,0.12,0.016,JPG\,brownsugar,candle01,match,printer02,lollipop04,balloon01b,belt02a,potato02b,computerkeyboard02,stapler03a,rice,mushroom01,pencil01,blankImage,blankImage,blankImage,blankImage,lollipop04,,,,,,,,,,,,0,114,114,112,,,,,,,,,,,,,,,,,,,,,,,,,,,,,,,,,,,708.9889473000076,710.000722900033,709.983970399946,710.4846896999516,710.4846896999516,None,712.0711930999532,None,left,0.9750914999749511,712.0711930999532,None,713.070094600087,None,left,0.4393718000501394,713.070094600087,None,,,,,,,,,,,,,,,,,,,,,,,PPT51,001,2022-07-12_14h50.11.074,ABstudy,2022.1.4,59.919851210580084,
AB,Lag5_T1P_T2P,5,P,P,6,11,5,3,14,ladder,Did you see the ladder?,0.12,0.016,JPG\,celery,orange,scissors01,balloon01b,avocado01,stepladder,mushroom01,sewingmachine01a,lighter01,dice05a,stapler01,fan,cd,sock01a,blankImage,blankImage,blankImage,stepladder,,,,,,,,,,,,0,115,115,119,,,,,,,,,,,,,,,,,,,,,,,,,,,,,,,,,,,713.539545699954,714.5548777000513,714.5215040000621,715.1007272000425,715.1007272000425,None,716.8293663999066,None,left,0.44032280007377267,716.8293663999066,None,717.2910774999764,None,left,0.2824726998806,717.2910774999764,None,,,,,,,,,,,,,,,,,,,,,,,PPT51,001,2022-07-12_14h50.11.074,ABstudy,2022.1.4,59.919851210580084,
AB,Lag5_T1P_T2A,5,P,A,6,11,5,5,16,World map,Did you see the World map?,0.12,0.016,JPG\,cigarette,pig,banana01,strawberry,clock01a,worldmap,spoon01,blueberry01,battery02b,pineapple01a,chain01,paintbrush01,candy,pen04b,teabag,birthdaycandle,blankImage,worldmap,,,,,,,,,,,,0,116,116,205,,,,,,,,,,,,,,,,,,,,,,,,,,,,,,,,,,,717.6644760000054,718.6757777000312,718.6591439000331,719.2440398999024,719.2440398999024,None,721.0302846999839,None,left,1.0313335999380797,721.0302846999839,None,722.079095199937,None,right,0.41426789993420243,722.079095199937,None,,,,,,,,,,,,,,,,,,,,,,,PPT51,001,2022-07-12_14h50.11.074,ABstudy,2022.1.4,59.919851210580084,
AB,Lag5_T1P_T2P,5,P,P,8,13,7,5,18,pipe,Did you see the pipe?,0.12,0.016,JPG\,scissors01,ashtray01,garlic01a,medal02b,cigarette,candle08b,leaf02a,smokingpipe,cucumber,rice,toiletpaper01a,greenolive,stapler01,cellphone,tableknife02,spoon01,blankImage,smokingpipe,,,,,,,,,,,,0,117,117,138,,,,,,,,,,,,,,,,,,,,,,,,,,,,,,,,,,,722.5157592999749,723.5305337000173,723.497121399967,724.0677626999095,724.0677626999095,None,726.0510474001057,None,left,0.9630042999051511,726.0510474001057,None,727.0340263999533,None,right,3.9486467000097036,727.0340263999533,None,,,,,,,,,,,,,,,,,,,,,,,PPT51,001,2022-07-12_14h50.11.074,ABstudy,2022.1.4,59.919851210580084,
AB,Lag1_T1P_T2A,1,P,A,8,9,7,5,14,Fridge,Did you see the Fridge?,0.12,0.016,JPG\,cherry01,cymbal,envelope03a,foosballtable,shirt02,cellphone,sewingmachine01a,fridge,battery02b,apple07,pencil01,screwdriver04b,strawberry,sunglasses04,blankImage,blankImage,blankImage,fridge,,,,,,,,,,,,0,118,118,173,,,,,,,,,,,,,,,,,,,,,,,,,,,,,,,,,,,731.0126269999892,732.0222688999493,732.0056394999847,732.5840712999925,732.5840712999925,None,734.3045050001238,None,left,0.6615966998506337,734.3045050001238,None,734.9918943999801,None,right,0.3655791999772191,734.9918943999801,None,,,,,,,,,,,,,,,,,,,,,,,PPT51,001,2022-07-12_14h50.11.074,ABstudy,2022.1.4,59.919851210580084,
AB,Lag5_T1P_T2P,5,P,P,8,13,7,5,18,hand,Did you see the hand?,0.12,0.016,JPG\,foosballtable,candy,envelope03a,microscope,pencil01,leaf02a,scissors01,hand01b,grape01,dandelion,pineapple01a,hammer01,stapler03a,thermometer02b,ring01,sewingmachine01a,blankImage,hand01b,,,,,,,,,,,,0,119,119,131,,,,,,,,,,,,,,,,,,,,,,,,,,,,,,,,,,,735.4326601000503,736.4439596000593,736.4272302999161,736.9305952000432,736.9305952000432,None,738.9438426000997,None,left,0.5096251000650227,738.9438426000997,None,739.4797604000196,None,left,0.39756430010311306,739.4797604000196,None,,,,,,,,,,,,,,,,,,,,,,,PPT51,001,2022-07-12_14h50.11.074,ABstudy,2022.1.4,59.919851210580084,
AB,Lag5_T1P_T2P,5,P,P,6,11,5,4,15,sword,Did you see the sword?,0.12,0.016,JPG\,8ball,banana01,scissors01,pig,shirt02,broadsword,pear01,sponge01,fork03c,tableknife02,stapler06,match,toothbrush03b,birthdaycandle,candle01,blankImage,blankImage,broadsword,,,,,,,,,,,,0,120,120,167,,,,,,,,,,,,,,,,,,,,,,,,,,,,,,,,,,,739.8992258000653,740.9144856999628,740.8810769000556,741.5243391001131,741.5243391001131,None,743.2697608000599,None,right,0.9521274999715388,743.2697608000599,None,744.2512992001139,None,right,0.2429461998399347,744.2512992001139,None,,,,,,,,,,,,,,,,,,,,,,,PPT51,001,2022-07-12_14h50.11.074,ABstudy,2022.1.4,59.919851210580084,
AB,Lag5_T1P_T2P,5,P,P,7,12,6,4,16,Recycling bin,Did you see the Recycling bin?,0.12,0.016,JPG\,broccoli01a,scissors01,toothbrush03b,foosballtable,iron01b,brick,recyclingbin,toiletpaper01a,cd,garlic01a,carrot01,stapler03a,envelope03a,battery02b,balloon01b,broom01,blankImage,recyclingbin,,,,,,,,,,,,0,121,121,157,,,,,,,,,,,,,,,,,,,,,,,,,,,,,,,,,,,744.5251112000551,745.5359592000023,745.5192136000842,746.0878733000718,746.0878733000718,None,748.005812899908,None,left,0.4243415000382811,748.005812899908,None,748.4555470000487,None,left,0.28692410001531243,748.4555470000487,None,,,,,,,,,,,,,,,,,,,,,,,PPT51,001,2022-07-12_14h50.11.074,ABstudy,2022.1.4,59.919851210580084,
AB,Lag1_T1A_T2P,1,A,P,7,8,6,5,13,Horseshoe,Did you see the Horseshoe?,0.12,0.016,JPG\,leaf02a,apple07,cd,pineapple01a,envelope03a,paintbrush01,pig,stapler06,rice,feather03a,lemon02,balloon01b,avocado01,blankImage,blankImage,blankImage,blankImage,rooster,,,,,,,,,,,,0,122,122,241,,,,,,,,,,,,,,,,,,,,,,,,,,,,,,,,,,,748.7779679000378,749.7900113000069,749.7734670999926,750.3415566000622,750.3415566000622,None,751.9713606999721,None,right,0.641903700074181,751.9713606999721,None,752.6427945999894,None,left,0.4588252999819815,752.6427945999894,None,,,,,,,,,,,,,,,,,,,,,,,PPT51,001,2022-07-12_14h50.11.074,ABstudy,2022.1.4,59.919851210580084,
AB,Lag5_T1A_T2A,5,A,A,7,12,6,4,16,Eye,Did you see the Eye?,0.12,0.016,JPG\,rice,watermelon01,tableknife02,scarf,computerkeyboard02,cauliflower01,battery02b,binoculars01b,book01b,sandal,sponge01,microscope,tomato01,fork03c,thermometer02b,apple07,blankImage,scooter,,,,,,,,,,,,0,123,123,302,,,,,,,,,,,,,,,,,,,,,,,,,,,,,,,,,,,753.129147300031,754.1443243999965,754.1109291000757,754.6938070000615,754.6938070000615,None,756.6495068999939,None,right,0.8996043999213725,756.6495068999939,None,757.581269599963,None,right,0.28786819986999035,757.581269599963,None,,,,,,,,,,,,,,,,,,,,,,,PPT51,001,2022-07-12_14h50.11.074,ABstudy,2022.1.4,59.919851210580084,
AB,Lag1_T1P_T2P,1,P,P,7,8,6,4,12,trophy,Did you see the trophy?,0.12,0.016,JPG\,cherry01,cymbal,envelope03a,foosballtable,shirt02,cellphone,trophy01,stapler04b,battery02b,apple07,pencil01,screwdriver04b,blankImage,blankImage,blankImage,blankImage,blankImage,trophy01,,,,,,,,,,,,0,124,124,74,,,,,,,,,,,,,,,,,,,,,,,,,,,,,,,,,,,757.9037397999782,758.9158684001304,758.8988926999737,759.4653688000981,759.4653688000981,None,760.9454469000921,None,left,0.9160601999610662,760.9454469000921,None,761.8855665000156,None,left,0.18476769980043173,761.8855665000156,None,,,,,,,,,,,,,,,,,,,,,,,PPT51,001,2022-07-12_14h50.11.074,ABstudy,2022.1.4,59.919851210580084,
AB,Lag5_T1A_T2P,5,A,P,7,12,6,3,15,Car,Did you see the Car?,0.12,0.016,JPG\,lighter01,hammer01,spoon01,chain01,cymbal,sponge01,lipstick02a,alligator,pig,watermelon01,cauliflower01,stapler03b,broccoli01a,tableknife02,tennisball01b,blankImage,blankImage,wallclock,,,,,,,,,,,,0,125,125,277,,,,,,,,,,,,,,,,,,,,,,,,,,,,,,,,,,,762.106525799958,763.1201744000427,763.1036127000116,763.7339502999093,763.6622510999441,None,765.5379377999343,None,right,0.8123953000176698,765.5379377999343,None,766.3731619999744,None,left,0.3122243999969214,766.3731619999744,None,,,,,,,,,,,,,,,,,,,,,,,PPT51,001,2022-07-12_14h50.11.074,ABstudy,2022.1.4,59.919851210580084,
AB,Lag1_T1P_T2P,1,P,P,7,8,6,3,11,harmonica,Did you see the harmonica?,0.12,0.016,JPG\,cucumber,ring01,lipstick02a,microscope,violin,garlic01a,harmonica,stapler03b,cherry01,sewingmachine01a,belt02a,blankImage,blankImage,blankImage,blankImage,blankImage,blankImage,harmonica,,,,,,,,,,,,0,126,126,43,,,,,,,,,,,,,,,,,,,,,,,,,,,,,,,,,,,766.7091065000277,767.724532400025,767.6911593000405,768.2695881000254,768.2695881000254,None,769.6514930000994,None,left,3.186539800139144,769.6514930000994,None,772.8629568000324,None,left,0.39048569998703897,772.8629568000324,None,,,,,,,,,,,,,,,,,,,,,,,PPT51,001,2022-07-12_14h50.11.074,ABstudy,2022.1.4,59.919851210580084,
AB,Lag1_T1A_T2P,1,A,P,8,9,7,3,12,seal,Did you see the seal?,0.12,0.016,JPG\,dice05a,watch02a,pig,lighter01,button01,strawberry,paintbrush01,microscope,stapler03a,pen04b,feather03a,8ball,blankImage,blankImage,blankImage,blankImage,blankImage,hockeystick,,,,,,,,,,,,0,127,127,235,,,,,,,,,,,,,,,,,,,,,,,,,,,,,,,,,,,773.2825223000254,774.2977243000641,774.2643488000613,774.8416868001223,774.8416868001223,None,776.3447736999951,None,right,0.9741799000184983,776.3447736999951,None,777.3509359001182,None,left,0.20699390000663698,777.3509359001182,None,,,,,,,,,,,,,,,,,,,,,,,PPT51,001,2022-07-12_14h50.11.074,ABstudy,2022.1.4,59.919851210580084,
AB,Lag1_T1A_T2P,1,A,P,5,6,4,5,11,rake,Did you see the rake?,0.12,0.016,JPG\,candy,brownsugar,dice05a,cd,sock01a,stapler01,button01,potato02b,feather03a,grape01,dandelion,blankImage,blankImage,blankImage,blankImage,blankImage,blankImage,greatwhiteshark,,,,,,,,,,,,0,128,128,256,,,,,,,,,,,,,,,,,,,,,,,,,,,,,,,,,,,777.5900151000824,778.6022914000787,778.5855757999234,779.1550183000509,779.1550183000509,None,780.4204039000906,None,right,1.0806879999581724,780.4204039000906,None,781.5217953000683,None,left,0.387784699909389,781.5217953000683,None,,,,,,,,,,,,,,,,,,,,,,,PPT51,001,2022-07-12_14h50.11.074,ABstudy,2022.1.4,59.919851210580084,
AB,Lag5_T1A_T2P,5,A,P,7,12,6,5,17,funnel,Did you see the funnel?,0.12,0.016,JPG\,iron01b,orange,birthdaycandle,potato02b,cauliflower01,pencil01,key01,candle08b,celery,tableknife02,pen04b,stapler04b,ring01,rice,lemon02,tomato01,blankImage,englishcucumber,,,,,,,,,,,,0,129,129,259,,,,,,,,,,,,,,,,,,,,,,,,,,,,,,,,,,,781.9455828000791,782.9565759000834,782.9400337000843,783.5135824000463,783.5135824000463,None,785.4781049999874,None,right,0.7768288999795914,785.4781049999874,None,786.2764495001175,None,left,0.32122109993360937,786.2764495001175,None,,,,,,,,,,,,,,,,,,,,,,,PPT51,001,2022-07-12_14h50.11.074,ABstudy,2022.1.4,59.919851210580084,
AB,Lag1_T1P_T2A,1,P,A,8,9,7,5,14,Ceiling fan,Did you see the Ceiling fan?,0.12,0.016,JPG\,cucumber,sponge01,alligator,pear01,ashtray01,hammer01,clock04,ceilingfan01,fork03c,binoculars01b,mushroom01,broccoli01a,leaf02a,acorn,blankImage,blankImage,blankImage,ceilingfan01,,,,,,,,,,,,0,130,130,183,,,,,,,,,,,,,,,,,,,,,,,,,,,,,,,,,,,786.6338846001308,787.6445599000435,787.6279780999757,788.2212058000732,788.2212058000732,None,789.8132134000771,None,left,0.6804219000041485,789.8132134000771,None,790.5140164000914,None,right,0.2436285000294447,790.5140164000914,None,,,,,,,,,,,,,,,,,,,,,,,PPT51,001,2022-07-12_14h50.11.074,ABstudy,2022.1.4,59.919851210580084,
AB,Lag5_T1A_T2P,5,A,P,6,11,5,4,15,butterfly,Did you see the butterfly?,0.12,0.016,JPG\,comb02a,key01,medal02b,battery02b,lighter01,microscope,watermelon01,sandal,pig,cellphone,stapler06,calculator01,cymbal,clock04,cucumber,blankImage,blankImage,uprightpiano01,,,,,,,,,,,,0,131,131,276,,,,,,,,,,,,,,,,,,,,,,,,,,,,,,,,,,,790.8322596000507,791.8318125999067,791.8318125999067,792.4521671999246,792.3808697999921,None,794.1755526000634,None,right,0.8375874999910593,794.1755526000634,None,795.0356459999457,None,left,0.49838040000759065,795.0356459999457,None,,,,,,,,,,,,,,,,,,,,,,,PPT51,001,2022-07-12_14h50.11.074,ABstudy,2022.1.4,59.919851210580084,
AB,Lag5_T1P_T2A,5,P,A,5,10,4,3,13,Totem Pole,Did you see the Totem Pole?,0.12,0.016,JPG\,canoftennisballs,banana01,scissors01,pig,totempole,leaf02a,pear01,sponge01,fork03c,tableknife02,balloon01b,match,toothbrush03b,blankImage,blankImage,blankImage,blankImage,totempole,,,,,,,,,,,,0,132,132,202,,,,,,,,,,,,,,,,,,,,,,,,,,,,,,,,,,,795.5589066999964,796.5699754001107,796.5534248000477,797.1176434999797,797.1176434999797,None,798.7172000000719,None,left,1.3439449998550117,798.7172000000719,None,800.0902221000288,None,right,0.2751426000613719,800.0902221000288,None,,,,,,,,,,,,,,,,,,,,,,,PPT51,001,2022-07-12_14h50.11.074,ABstudy,2022.1.4,59.919851210580084,
AB,Lag1_T1P_T2A,1,P,A,5,6,4,4,10,paper airplane,Did you see the paper airplane?,0.12,0.016,JPG\,thermometer02b,avocado01,scissors01,tennisball01b,paperairplane,banana01,strawberry,cigarette,potato02b,pineapple01a,blankImage,blankImage,blankImage,blankImage,blankImage,blankImage,blankImage,paperairplane,,,,,,,,,,,,0,133,133,191,,,,,,,,,,,,,,,,,,,,,,,,,,,,,,,,,,,800.3966795001179,801.4082679001149,801.3915208999533,801.9657757000532,801.9657757000532,None,803.2054771999829,None,left,0.6410213001072407,803.2054771999829,None,803.8771498999558,None,right,0.3844114001840353,803.8771498999558,None,,,,,,,,,,,,,,,,,,,,,,,PPT51,001,2022-07-12_14h50.11.074,ABstudy,2022.1.4,59.919851210580084,
AB,Lag5_T1P_T2P,5,P,P,6,11,5,5,16,Car,Did you see the Car?,0.12,0.016,JPG\,leaf02a,apple07,cd,pineapple01a,envelope03a,car,pig,canoftennisballs,rice,feather03a,stapler03a,balloon01b,avocado01,calculator01,watermelon01,teabag,blankImage,car,,,,,,,,,,,,0,134,134,127,,,,,,,,,,,,,,,,,,,,,,,,,,,,,,,,,,,804.2840972999111,805.2958116999362,805.2791250001173,805.879865600029,805.879865600029,None,807.8049049999099,None,left,1.2482240002136678,807.8049049999099,None,809.0825525999535,None,left,0.6347251001279801,809.0825525999535,None,,,,,,,,,,,,,,,,,,,,,,,PPT51,001,2022-07-12_14h50.11.074,ABstudy,2022.1.4,59.919851210580084,
AB,Lag1_T1P_T2P,1,P,P,8,9,7,3,12,snow globe,Did you see the Snow globe?,0.12,0.016,JPG\,eraser,measuringcup01,chain01,birthdaycandle,ring01,rice,8ball,stapler04b,stapler01,celery,microscope,sunglasses04,blankImage,blankImage,blankImage,blankImage,blankImage,snowglobe,,,,,,,,,,,,0,135,135,56,,,,,,,,,,,,,,,,,,,,,,,,,,,,,,,,,,,809.7578144001309,810.7675598000642,810.7508972000796,811.3434556000866,811.3434556000866,None,812.8385121999308,None,right,0.7271779999136925,812.8385121999308,None,813.5869064000435,None,left,0.28205429995432496,813.5869064000435,None,,,,,,,,,,,,,,,,,,,,,,,PPT51,001,2022-07-12_14h50.11.074,ABstudy,2022.1.4,59.919851210580084,
AB,Lag5_T1P_T2P,5,P,P,7,12,6,4,16,Fireplace,Did you see the Fireplace?,0.12,0.016,JPG\,printer02,leaf02a,cauliflower01,sock01a,brownsugar,paintbrush01,fireplace,orange,belt02a,shirt02,key01,stapler01,cigarette,scissors01,envelope03a,blueberry01,blankImage,fireplace,,,,,,,,,,,,0,136,136,88,,,,,,,,,,,,,,,,,,,,,,,,,,,,,,,,,,,813.8921767000575,814.9047888000496,814.8881499001291,815.4781168000773,815.4781168000773,None,817.3948653000407,None,left,0.5077951999846846,817.3948653000407,None,817.9244713000953,None,left,0.30494980001822114,817.9244713000953,None,,,,,,,,,,,,,,,,,,,,,,,PPT51,001,2022-07-12_14h50.11.074,ABstudy,2022.1.4,59.919851210580084,
