TrialType,CondType,Lag,T1_PA,T2_PA,T1Loc,T2Loc,PreDistractor,PostDistractor,TotalImg,cueWord,T1cue,StimLength,isi,PicFolder,Img1,Img2,Img3,Img4,Img5,Img6,Img7,Img8,Img9,Img10,Img11,Img12,Img13,Img14,Img15,Img16,Img17,T1_Identity,ImageType,T1PA,T2PA,Picture,Image,FullPathName,FilePath,Practice_Trials.thisRepN,Practice_Trials.thisTrialN,Practice_Trials.thisN,Practice_Trials.thisIndex,trials.thisRepN,trials.thisTrialN,trials.thisN,trials.thisIndex,trials_2.thisRepN,trials_2.thisTrialN,trials_2.thisN,trials_2.thisIndex,Practice_Ins.started,Practice_Ins.stopped,End_Prac_Ins.keys,End_Prac_Ins.rt,End_Prac_Ins.started,End_Prac_Ins.stopped,text_2.started,text_2.stopped,Fixation_Cross_2.started,Fixation_Cross_2.stopped,Rapid_Image_Present_2.started,Rapid_Image_Present_2.stopped,key_resp.keys,key_resp.rt,key_resp.started,key_resp.stopped,T1Response_2.started,T1Response_2.stopped,T2Response_2.started,T2Response_2.stopped,key_resp_4.keys,key_resp_4.rt,key_resp_4.started,key_resp_4.stopped,text.started,text.stopped,End_Instructions.keys,End_Instructions.rt,End_Instructions.started,End_Instructions.stopped,text_5.started,text_5.stopped,FC.started,FC.stopped,Rapid_Image_Present.started,Rapid_Image_Present.stopped,T1Response.started,T1Response.stopped,key_resp_2.keys,key_resp_2.rt,key_resp_2.started,key_resp_2.stopped,T2Response.started,T2Response.stopped,key_resp_3.keys,key_resp_3.rt,key_resp_3.started,key_resp_3.stopped,text_6.started,text_6.stopped,Fin_ins.keys,Fin_ins.rt,Fin_ins.started,Fin_ins.stopped,MemTest.started,MemTest.stopped,MemResponse.keys,MemResponse.rt,MemResponse.started,MemResponse.stopped,Display.started,Display.stopped,text_7.started,text_7.stopped,endOfExperiment.started,endOfExperiment.stopped,key_resp_5.keys,key_resp_5.rt,key_resp_5.started,key_resp_5.stopped,participant,session,date,expName,psychopyVersion,frameRate,
,,,,,,,,,,,,,,,,,,,,,,,,,,,,,,,,,,,,,,,,,,,,,,,,,,,,16.872745600063354,None,space,55.35047099995427,16.872745600063354,None,,,,,,,,,,,,,,,,,,,,,,,,,,,,,,,,,,,,,,,,,,,,,,,,,,,,,,,,,,,,,,,,,PPT52,001,2022-07-12_16h35.24.445,ABstudy,2022.1.4,59.90133055801126,
AB_Prac,Lag5_T1P_T2P,5,P,P,5,10,4,5,15,Vulture,Did you see the Vulture?,0.5,0.016,JPG\,shorts01,toast,ramekin01,bib,vulture,cracker02,date,glasses01a,hat03b,stapler01,measuringtape01,nail,pill,drum01,starfish01,blankImage,blankImage,vulture,,,,,,,,0,0,0,3,,,,,,,,,,,,,,,72.30769940000027,73.32124910014682,73.30460300017148,73.93406600016169,73.93406600016169,None,left,1.5528766000643373,81.41461820015684,None,81.41461820015684,None,82.99761270009913,None,right,1.1932860999368131,82.99761270009913,None,,,,,,,,,,,,,,,,,,,,,,,,,,,,,,,,,,,,,,,,,,,,,,,PPT52,001,2022-07-12_16h35.24.445,ABstudy,2022.1.4,59.90133055801126,
AB_Prac,Lag1_T1A_T2A,1,A,A,8,9,7,3,12,Moose,Did you see the Moose?,0.5,0.016,JPG\,clothespin03b,corkscrew03a,drillbit03a,fusilli03a,needlenosepliers01,perfume01a,pistachio,scrubbingbrush05b,spatula03,toothpastetube,hinge,toydinosaur,blankImage,blankImage,blankImage,blankImage,blankImage,None,,,,,,,,0,1,1,10,,,,,,,,,,,,,,,84.23092310014181,85.23358390014619,85.21781150018796,85.80048410012387,85.80048410012387,None,right,1.382957800058648,91.85650680004619,None,91.85650680004619,None,93.25825130008161,None,right,1.3572225000243634,93.25825130008161,None,,,,,,,,,,,,,,,,,,,,,,,,,,,,,,,,,,,,,,,,,,,,,,,PPT52,001,2022-07-12_16h35.24.445,ABstudy,2022.1.4,59.90133055801126,
AB_Prac,Lag5_T1P_T2A,5,P,A,6,11,5,5,16,bread,Did you see the bread?,0.5,0.016,JPG\,cleaver01,clipboard,dustpan,hikingshoe01,notebook03a,baguette01,playingcard,pliers02b,styrofoamcup,rollingpin01a,swimgoggles,wineglass01,fryingpan02a,safetypin,syringe01,thimble,blankImage,baguette01,,,,,,,,0,2,2,8,,,,,,,,,,,,,,,94.65065850014798,95.66027750005014,95.6435618000105,96.2248575000558,96.2248575000558,None,left,1.2609511001501232,104.28162110014819,None,104.28162110014819,None,105.56982710002922,None,right,1.3967068998608738,105.56982710002922,None,,,,,,,,,,,,,,,,,,,,,,,,,,,,,,,,,,,,,,,,,,,,,,,PPT52,001,2022-07-12_16h35.24.445,ABstudy,2022.1.4,59.90133055801126,
AB_Prac,Lag5_T1P_T2P,5,P,P,5,10,4,5,15,washing machine,Did you see the washing machine?,0.5,0.016,JPG\,waterbottle03,wheel01,flashlight02b,zucchini01,washingmachine,headphones02b,nutcracker01,paintroller01,paperclip03,stapler06,ribbon04,electricrazor,bottleofredwine01,pitabread,pot02a,blankImage,blankImage,washingmachine,,,,,,,,0,3,3,4,,,,,,,,,,,,,,,107.00339690013789,108.00542570021935,107.98870520014316,108.5723658001516,108.5723658001516,None,left,1.2490377998910844,116.10146840009838,None,116.10146840009838,None,117.38183230021968,None,left,1.0089600998908281,117.38183230021968,None,,,,,,,,,,,,,,,,,,,,,,,,,,,,,,,,,,,,,,,,,,,,,,,PPT52,001,2022-07-12_16h35.24.445,ABstudy,2022.1.4,59.90133055801126,
AB_Prac,Lag5_T1A_T2A,5,A,A,6,11,5,5,16,castle,Did you see the castle?,0.5,0.016,JPG\,tape02a,englishmuffin,flask,ladle02a,monitor,peach01,keychain,squeegee01b,telephone01b,whisk,walkman,syringe02,baguette01,coaster,box01a,coffeepot03a,blankImage,None,,,,,,,,0,4,4,11,,,,,,,,,,,,,,,118.53215900016949,119.53370550018735,119.51700750016607,120.12576530012302,120.12576530012302,None,right,1.921272800071165,128.05335830012336,None,128.05335830012336,None,129.994404300116,None,right,1.1006137998774648,129.994404300116,None,,,,,,,,,,,,,,,,,,,,,,,,,,,,,,,,,,,,,,,,,,,,,,,PPT52,001,2022-07-12_16h35.24.445,ABstudy,2022.1.4,59.90133055801126,
AB_Prac,Lag1_T1P_T2P,1,P,P,6,7,5,5,12,triangle,Did you see the triangle?,0.5,0.016,JPG\,ginger,mousetrap,plum01,slipper01b,dropper01,triangle,stapler04b,pants,raspberry01,rope03,scale01a,vase01,blankImage,blankImage,blankImage,blankImage,blankImage,triangle,,,,,,,,0,5,5,1,,,,,,,,,,,,,,,131.1142277000472,132.12980680004694,132.09653350012377,132.66931740008295,132.66931740008295,None,left,1.1011298999655992,138.75454880017787,None,138.75454880017787,None,139.8875832001213,None,left,0.839450899977237,139.8875832001213,None,,,,,,,,,,,,,,,,,,,,,,,,,,,,,,,,,,,,,,,,,,,,,,,PPT52,001,2022-07-12_16h35.24.445,ABstudy,2022.1.4,59.90133055801126,
AB_Prac,Lag1_T1P_T2A,1,P,A,8,9,7,5,14,flower,Did you see the flower?,0.5,0.016,JPG\,razor01,axe01,binder03b,bowl01,kettle01,lettuce,lime,plasticflower01b,mitten04,pencilcase01,plunger02,strawbasket01,toothpick02,wallet02a,blankImage,blankImage,blankImage,plasticflower01b,,,,,,,,0,6,6,5,,,,,,,,,,,,,,,140.76698740012944,141.77234170003794,141.75563290016726,142.35067750001326,142.35067750001326,None,left,1.0123598999343812,149.39539560000412,None,149.39539560000412,None,150.4310870000627,None,right,2.2640342998784035,150.4310870000627,None,,,,,,,,,,,,,,,,,,,,,,,,,,,,,,,,,,,,,,,,,,,,,,,PPT52,001,2022-07-12_16h35.24.445,ABstudy,2022.1.4,59.90133055801126,
AB_Prac,Lag1_T1P_T2P,1,P,P,8,9,7,5,14,Tennis racket,Did you see the Tennis racket?,0.5,0.016,JPG\,coconut,computermouse06,croissant01,deodorant02a,pillow01a,peanut01,boot02b,tennisracket,stapler03b,crayon,eggplant,marker01a,plant01,radish01,blankImage,blankImage,blankImage,tennisracket,,,,,,,,0,7,7,0,,,,,,,,,,,,,,,152.7218713001348,153.73443050007336,153.7177392002195,154.30724520003423,154.30724520003423,None,left,0.8400876000523567,161.2958577000536,None,161.2958577000536,None,162.15946920006536,None,left,2.376122600166127,162.15946920006536,None,,,,,,,,,,,,,,,,,,,,,,,,,,,,,,,,,,,,,,,,,,,,,,,PPT52,001,2022-07-12_16h35.24.445,ABstudy,2022.1.4,59.90133055801126,
AB_Prac,Lag5_T1P_T2A,5,P,A,6,11,5,5,16,Wheat,Did you see the Wheat?,0.5,0.016,JPG\,bottleopener01,dentalfloss03b,cooler01,icecreamcone01a,paperclip01b,wheat,pencilsharpener02a,plasticbasket01a,toycar04,apricot,hairclip02,rock01a,honeydewmelon,antenna,blackberry,cardboardbox,blankImage,wheat,,,,,,,,0,8,8,7,,,,,,,,,,,,,,,164.64525310019962,165.64647650020197,165.62974160001613,166.21340950019658,166.21340950019658,None,right,2.075078299967572,174.13940860005096,None,174.13940860005096,None,176.24051290005445,None,right,0.8301214999519289,176.24051290005445,None,,,,,,,,,,,,,,,,,,,,,,,,,,,,,,,,,,,,,,,,,,,,,,,PPT52,001,2022-07-12_16h35.24.445,ABstudy,2022.1.4,59.90133055801126,
AB_Prac,Lag1_T1P_T2A,1,P,A,5,6,4,5,11,Webcam,Did you see the Webcam?,0.5,0.016,JPG\,pictureframe04,binder03b,straw,adjustablewrench01b,webcam,cane,hairdryer02a,icepack,kitchenscale01a,lifejacket,piggybank,blankImage,blankImage,blankImage,blankImage,blankImage,blankImage,webcam,,,,,,,,0,9,9,6,,,,,,,,,,,,,,,177.09589420002885,178.10882910015061,178.0921400000807,178.67693920014426,178.67693920014426,None,left,1.098768100142479,184.1876923001837,None,184.1876923001837,None,185.31626830017194,None,right,1.2437686000484973,185.31626830017194,None,,,,,,,,,,,,,,,,,,,,,,,,,,,,,,,,,,,,,,,,,,,,,,,PPT52,001,2022-07-12_16h35.24.445,ABstudy,2022.1.4,59.90133055801126,
AB_Prac,Lag5_T1P_T2P,5,P,P,7,12,6,3,15,vacuum,Did you see the vacuum?,0.5,0.016,JPG\,fork07b,lightbulb01,manshoe,saw02b,shoelace,soap03a,vacuumcleaner01,floortile01,necklace,doll,cabbage,stapler03a,hanger02a,laptop01a,nailpolish03b,blankImage,blankImage,vacuumcleaner01,,,,,,,,0,10,10,2,,,,,,,,,,,,,,,186.5923990001902,187.60171900014393,187.58495920011774,188.1722523001954,188.1722523001954,None,left,0.8312150000128895,195.71153920004144,None,195.71153920004144,None,196.56082650017925,None,left,1.0137739998754114,196.56082650017925,None,,,,,,,,,,,,,,,,,,,,,,,,,,,,,,,,,,,,,,,,,,,,,,,PPT52,001,2022-07-12_16h35.24.445,ABstudy,2022.1.4,59.90133055801126,
AB_Prac,Lag5_T1A_T2P,5,A,P,6,11,5,3,14,dog,Did you see the dog?,0.5,0.016,JPG\,bucket01a,doorlock,cookiecutter,fireextinguisher01,gluestick,highlighter02b,sportbag,spraybottle01,suitcase,thread02,stapler05,walnut01c,icecubetray01a,vikingmask01b,blankImage,blankImage,blankImage,None,,,,,,,,0,11,11,9,,,,,,,,,,,,,,,197.59734460012987,198.61262810020708,198.5792381002102,199.17333280015737,199.17333280015737,None,right,1.6450072000734508,206.2254870000761,None,206.2254870000761,None,207.88889800012112,None,left,0.9431578998919576,207.88889800012112,None,,,,,,,,,,,,,,,,,,,,,,,,,,,,,,,,,,,,,,,,,,,,,,,PPT52,001,2022-07-12_16h35.24.445,ABstudy,2022.1.4,59.90133055801126,
,,,,,,,,,,,,,,,,,,,,,,,,,,,,,,,,,,,,,,,,,,,,,,,,,,,,,,,,,,,,,,,,,,,,,,,,,,,,208.8571084002033,None,space,9.277571699814871,208.8571084002033,None,,,,,,,,,,,,,,,,,,,,,,,,,,,,,,,,,,,,,,,,,PPT52,001,2022-07-12_16h35.24.445,ABstudy,2022.1.4,59.90133055801126,
AB,Lag1_T1P_T2P,1,P,P,8,9,7,5,14,helicopter,Did you see the helicopter?,0.12,0.016,JPG\,broom01,globe,cellphone,tableknife02,cauliflower01,scissors01,ring01,helicopter,stapler01,toaster01,cigarette,grape01,microscope,cucumber,blankImage,blankImage,blankImage,helicopter,,,,,,,,,,,,0,0,0,85,,,,,,,,,,,,,,,,,,,,,,,,,,,,,,,,,,,218.8981620001141,219.9006362000946,219.88391020009294,220.48750960011967,220.48750960011967,None,222.1525914000813,None,right,2.5104998000897467,222.1525914000813,None,224.69081430020742,None,left,1.3958713000174612,224.69081430020742,None,,,,,,,,,,,,,,,,,,,,,,,PPT52,001,2022-07-12_16h35.24.445,ABstudy,2022.1.4,59.90133055801126,
AB,Lag5_T1A_T2P,5,A,P,5,10,4,5,15,parachute,Did you see the parachute?,0.12,0.016,JPG\,binoculars01b,speaker04,sandal,envelope03a,plate01b,comb02a,battery02b,chain01,measuringcup01,stapler03b,medal02b,lamp04a,tennisball01b,pizza,cigarette,blankImage,blankImage,knee,,,,,,,,,,,,0,1,1,264,,,,,,,,,,,,,,,,,,,,,,,,,,,,,,,,,,,226.1515560001135,227.1577659000177,227.14103220007382,227.7330506001599,227.7330506001599,None,229.49475030018948,None,right,3.1613505000714213,229.49475030018948,None,232.6797098000534,None,left,1.3192003001458943,232.6797098000534,None,,,,,,,,,,,,,,,,,,,,,,,PPT52,001,2022-07-12_16h35.24.445,ABstudy,2022.1.4,59.90133055801126,
AB,Lag5_T1A_T2A,5,A,A,5,10,4,5,15,sword,Did you see the sword?,0.12,0.016,JPG\,pencil01,broccoli01a,button01,sponge01,watermelon01,lipstick02a,comb02a,fan,lighter01,sock01a,spoon01,blueberry01,belt02a,onion,grape01,blankImage,blankImage,parachute,,,,,,,,,,,,0,2,2,298,,,,,,,,,,,,,,,,,,,,,,,,,,,,,,,,,,,234.0333085001912,235.0487622001674,235.01545960013755,235.59392350004055,235.59392350004055,None,237.43174280016683,None,right,1.7751885000616312,237.43174280016683,None,239.23623950011097,None,right,1.0425489000044763,239.23623950011097,None,,,,,,,,,,,,,,,,,,,,,,,PPT52,001,2022-07-12_16h35.24.445,ABstudy,2022.1.4,59.90133055801126,
AB,Lag1_T1P_T2P,1,P,P,7,8,6,3,11,Sand castle,Did you see the Sand castle?,0.12,0.016,JPG\,thermometer02b,candle08b,comb02a,toothbrush03b,brick,computerkeyboard02,sandcastle,stapler06,candy,birthdaycandle,clock04,blankImage,blankImage,blankImage,blankImage,blankImage,blankImage,sandcastle,,,,,,,,,,,,0,3,3,70,,,,,,,,,,,,,,,,,,,,,,,,,,,,,,,,,,,240.37457380001433,241.38872820022516,241.37181380018592,241.96389630017802,241.96389630017802,None,243.26355050015263,None,right,2.223653999855742,243.26355050015263,None,245.51201920001768,None,left,0.6639777000527829,245.51201920001768,None,,,,,,,,,,,,,,,,,,,,,,,PPT52,001,2022-07-12_16h35.24.445,ABstudy,2022.1.4,59.90133055801126,
AB,Lag1_T1P_T2P,1,P,P,5,6,4,3,9,kangaroo,Did you see the kangaroo?,0.12,0.016,JPG\,candle01,shirt02,brick,orange,kangaroo,stapler03a,pizza,thermometer02b,book01b,blankImage,blankImage,blankImage,blankImage,blankImage,blankImage,blankImage,blankImage,kangaroo,,,,,,,,,,,,0,4,4,16,,,,,,,,,,,,,,,,,,,,,,,,,,,,,,,,,,,246.1954406001605,247.21088980021887,247.17750380001962,247.77367070014589,247.77367070014589,None,248.9042250001803,None,left,1.5907864000182599,248.9042250001803,None,250.51451450004242,None,right,0.9319312998559326,250.51451450004242,None,,,,,,,,,,,,,,,,,,,,,,,PPT52,001,2022-07-12_16h35.24.445,ABstudy,2022.1.4,59.90133055801126,
AB,Lag1_T1P_T2P,1,P,P,8,9,7,3,12,zebra,Did you see the zebra?,0.12,0.016,JPG\,apple07,toiletpaper01a,pizza,dandelion,greenolive,eraser,microscope,zebra,stapler03b,lipstick02a,balloon01b,sandal,blankImage,blankImage,blankImage,blankImage,blankImage,zebra,,,,,,,,,,,,0,5,5,28,,,,,,,,,,,,,,,,,,,,,,,,,,,,,,,,,,,251.47434510011226,252.4829096000176,252.4661957002245,253.052207400091,253.052207400091,None,254.48685770016164,None,left,1.071805999847129,254.48685770016164,None,255.58581190020777,None,left,0.7642028999980539,255.58581190020777,None,,,,,,,,,,,,,,,,,,,,,,,PPT52,001,2022-07-12_16h35.24.445,ABstudy,2022.1.4,59.90133055801126,
AB,Lag5_T1P_T2P,5,P,P,5,10,4,4,14,duck,Did you see the duck?,0.12,0.016,JPG\,celery,pencil01,fan,foosballtable,duck01,shirt02,potato02b,fork03c,button01,stapler03a,baseball01a,printer02,cauliflower01,dandelion,blankImage,blankImage,blankImage,duck01,,,,,,,,,,,,0,6,6,130,,,,,,,,,,,,,,,,,,,,,,,,,,,,,,,,,,,256.37219070014544,257.387656400213,257.35428400011733,257.9422603000421,257.9422603000421,None,259.557608500123,None,left,0.9051842000335455,259.557608500123,None,260.49122400023043,None,left,2.4917356001678854,260.49122400023043,None,,,,,,,,,,,,,,,,,,,,,,,PPT52,001,2022-07-12_16h35.24.445,ABstudy,2022.1.4,59.90133055801126,
AB,Lag1_T1A_T2A,1,A,A,5,6,4,4,10,rose,Did you see the rose?,0.12,0.016,JPG\,sock01a,spoon01,alligator,comb02a,printer02,medal02b,lamp04a,cymbal,greenolive,computerkeyboard02,blankImage,blankImage,blankImage,blankImage,blankImage,blankImage,blankImage,cruiseship,,,,,,,,,,,,0,7,7,293,,,,,,,,,,,,,,,,,,,,,,,,,,,,,,,,,,,263.0130360000767,264.02783420006745,263.99431280000135,264.60633650003,264.60633650003,None,265.8103498001583,None,right,1.21301249996759,265.8103498001583,None,267.04764390015043,None,right,1.0229018998797983,267.04764390015043,None,,,,,,,,,,,,,,,,,,,,,,,PPT52,001,2022-07-12_16h35.24.445,ABstudy,2022.1.4,59.90133055801126,
AB,Lag1_T1A_T2A,1,A,A,7,8,6,5,13,Poker chips,Did you see the Poker chips?,0.12,0.016,JPG\,violin,pizza,toothbrush03b,pineapple01a,banana01,ashtray01,candy,dandelion,clock04,sock01a,microscope,speaker04,calculator01,blankImage,blankImage,blankImage,blankImage,cigar,,,,,,,,,,,,0,8,8,289,,,,,,,,,,,,,,,,,,,,,,,,,,,,,,,,,,,268.1522170000244,269.1662428001873,269.14948630006984,269.7613229001872,269.7613229001872,None,271.29231280018575,None,right,1.8024905000347644,271.29231280018575,None,273.1203232000116,None,right,0.958179300185293,273.1203232000116,None,,,,,,,,,,,,,,,,,,,,,,,PPT52,001,2022-07-12_16h35.24.445,ABstudy,2022.1.4,59.90133055801126,
AB,Lag1_T1P_T2P,1,P,P,8,9,7,5,14,bullet,Did you see the bullet?,0.12,0.016,JPG\,measuringcup01,dice05a,greenolive,lipstick02a,feather03a,balloon01b,lighter01,bullet,stapler04b,plate01b,microscope,brick,thermometer02b,screw02,blankImage,blankImage,blankImage,bullet,,,,,,,,,,,,0,9,9,57,,,,,,,,,,,,,,,,,,,,,,,,,,,,,,,,,,,274.10825820011087,275.12212060019374,275.105361700058,275.696573600173,275.696573600173,None,277.47020680014975,None,left,0.9126669999677688,277.47020680014975,None,278.41139190015383,None,left,0.5950442000757903,278.41139190015383,None,,,,,,,,,,,,,,,,,,,,,,,PPT52,001,2022-07-12_16h35.24.445,ABstudy,2022.1.4,59.90133055801126,
AB,Lag5_T1A_T2P,5,A,P,8,13,7,4,17,wrench,Did you see the wrench?,0.12,0.016,JPG\,clock01a,grape01,plate01b,key01,screwdriver04b,feather03a,pineapple01a,iron01b,toothbrush03b,comb02a,broom01,toaster01,stapler05,garlic01a,match,ashtray01,blankImage,seal,,,,,,,,,,,,0,10,10,272,,,,,,,,,,,,,,,,,,,,,,,,,,,,,,,,,,,279.0287295000162,280.0435523001943,280.010199500015,280.6064750000369,280.6064750000369,None,282.56627430021763,None,right,1.7442532998975366,282.56627430021763,None,284.33110620011576,None,left,0.41941039985977113,284.33110620011576,None,,,,,,,,,,,,,,,,,,,,,,,PPT52,001,2022-07-12_16h35.24.445,ABstudy,2022.1.4,59.90133055801126,
AB,Lag5_T1P_T2P,5,P,P,8,13,7,5,18,hand,Did you see the hand?,0.12,0.016,JPG\,foosballtable,candy,envelope03a,microscope,pencil01,leaf02a,scissors01,hand01b,grape01,dandelion,pineapple01a,hammer01,stapler03a,thermometer02b,ring01,sewingmachine01a,blankImage,hand01b,,,,,,,,,,,,0,11,11,131,,,,,,,,,,,,,,,,,,,,,,,,,,,,,,,,,,,284.78389180009253,285.7992511000484,285.7658574001398,286.2701015002094,286.2701015002094,None,288.3413289000746,None,left,2.209324700059369,288.3413289000746,None,290.5706608002074,None,left,0.9957987000234425,290.5706608002074,None,,,,,,,,,,,,,,,,,,,,,,,PPT52,001,2022-07-12_16h35.24.445,ABstudy,2022.1.4,59.90133055801126,
AB,Lag5_T1P_T2P,5,P,P,7,12,6,5,17,tie,Did you see the tie?,0.12,0.016,JPG\,iron01b,orange,birthdaycandle,potato02b,cauliflower01,pencil01,tie02,candle08b,celery,tableknife02,pen04b,stapler06,ring01,rice,lemon02,tomato01,blankImage,tie02,,,,,,,,,,,,0,12,12,161,,,,,,,,,,,,,,,,,,,,,,,,,,,,,,,,,,,291.59062190004624,292.60608100006357,292.57268720003776,293.15508540021256,293.15508540021256,None,295.1001887000166,None,left,0.9783628999721259,295.1001887000166,None,296.1120911000762,None,right,0.8382682001683861,296.1120911000762,None,,,,,,,,,,,,,,,,,,,,,,,PPT52,001,2022-07-12_16h35.24.445,ABstudy,2022.1.4,59.90133055801126,
AB,Lag1_T1P_T2A,1,P,A,8,9,7,4,13,boat,Did you see the boat?,0.12,0.016,JPG\,fork03c,dandelion,dice05a,belt02a,onion,watch02a,key01,boat,eraser,medal02b,greenolive,shirt02,candle08b,blankImage,blankImage,blankImage,blankImage,boat,,,,,,,,,,,,0,13,13,199,,,,,,,,,,,,,,,,,,,,,,,,,,,,,,,,,,,296.9792906001676,297.9947774000466,297.961388300173,298.5319561001379,298.5319561001379,None,300.15205650008284,None,right,1.6863452999386936,300.15205650008284,None,301.8683252001647,None,right,0.7457743000704795,301.8683252001647,None,,,,,,,,,,,,,,,,,,,,,,,PPT52,001,2022-07-12_16h35.24.445,ABstudy,2022.1.4,59.90133055801126,
AB,Lag1_T1P_T2P,1,P,P,5,6,4,5,11,golf ball,Did you see the golf ball?,0.12,0.016,JPG\,foosballtable,cigarette,pen04b,birthdaycandle,golfball,stapler05,binoculars01b,chain01,potato02b,cauliflower01,paintbrush01,blankImage,blankImage,blankImage,blankImage,blankImage,blankImage,golfball,,,,,,,,,,,,0,14,14,13,,,,,,,,,,,,,,,,,,,,,,,,,,,,,,,,,,,302.644837600179,303.65015070000663,303.6335047001485,304.13400870002806,304.13400870002806,None,305.62773360009305,None,left,1.3461856998037547,305.62773360009305,None,307.0036558001302,None,left,2.0101516998838633,307.0036558001302,None,,,,,,,,,,,,,,,,,,,,,,,PPT52,001,2022-07-12_16h35.24.445,ABstudy,2022.1.4,59.90133055801126,
AB,Lag5_T1P_T2P,5,P,P,7,12,6,3,15,marble,Did you see the marble?,0.12,0.016,JPG\,cigarette,ashtray01,envelope03a,sandal,chain01,cucumber,marble,tomato01,dandelion,candle01,lemon02,stapler03b,potato02b,cymbal,clock01a,blankImage,blankImage,marble,,,,,,,,,,,,0,15,15,146,,,,,,,,,,,,,,,,,,,,,,,,,,,,,,,,,,,309.04135780013166,310.05674460018054,310.02339860005304,310.5985013002064,310.5985013002064,None,312.45396010018885,None,left,0.872305299853906,312.45396010018885,None,313.3439343001228,None,left,0.8626278000883758,313.3439343001228,None,,,,,,,,,,,,,,,,,,,,,,,PPT52,001,2022-07-12_16h35.24.445,ABstudy,2022.1.4,59.90133055801126,
AB,Lag1_T1A_T2P,1,A,P,8,9,7,5,14,Wolf,Did you see the Wolf?,0.12,0.016,JPG\,carrot01,watch02a,clock04,microscope,toiletpaper01a,potato02b,alligator,ring01,stapler03b,watermelon01,cd,pencil01,measuringcup01,balloon01b,blankImage,blankImage,blankImage,dreamcatcher,,,,,,,,,,,,0,16,16,253,,,,,,,,,,,,,,,,,,,,,,,,,,,,,,,,,,,314.232343000127,315.24540700018406,315.22888780012727,315.80905080004595,315.80905080004595,None,317.5162221000064,None,right,1.186356200138107,317.5162221000064,None,318.7320371000096,None,left,0.6583082999568433,318.7320371000096,None,,,,,,,,,,,,,,,,,,,,,,,PPT52,001,2022-07-12_16h35.24.445,ABstudy,2022.1.4,59.90133055801126,
AB,Lag1_T1P_T2A,1,P,A,8,9,7,5,14,Parrot,Did you see the Parrot?,0.12,0.016,JPG\,candy,brownsugar,dice05a,cd,sock01a,blueberry01,button01,parrot01,feather03a,grape01,dandelion,scissors01,watch02a,candle08b,blankImage,blankImage,blankImage,parrot01,,,,,,,,,,,,0,17,17,192,,,,,,,,,,,,,,,,,,,,,,,,,,,,,,,,,,,319.4199556000531,320.43400090001523,320.4006972000934,320.9674393001478,320.9674393001478,None,322.7582144001499,None,left,0.9282800999935716,322.7582144001499,None,323.70362860010937,None,right,1.190754699986428,323.70362860010937,None,,,,,,,,,,,,,,,,,,,,,,,PPT52,001,2022-07-12_16h35.24.445,ABstudy,2022.1.4,59.90133055801126,
AB,Lag1_T1P_T2A,1,P,A,5,6,4,4,10,paper airplane,Did you see the paper airplane?,0.12,0.016,JPG\,thermometer02b,avocado01,scissors01,tennisball01b,paperairplane,banana01,strawberry,cigarette,potato02b,pineapple01a,blankImage,blankImage,blankImage,blankImage,blankImage,blankImage,blankImage,paperairplane,,,,,,,,,,,,0,18,18,191,,,,,,,,,,,,,,,,,,,,,,,,,,,,,,,,,,,324.9257083002012,325.9395292000845,325.9228642000817,326.5105313002132,326.5105313002132,None,327.73207460017875,None,left,0.690281700110063,327.73207460017875,None,328.4419121001847,None,right,0.4603136000223458,328.4419121001847,None,,,,,,,,,,,,,,,,,,,,,,,PPT52,001,2022-07-12_16h35.24.445,ABstudy,2022.1.4,59.90133055801126,
AB,Lag5_T1P_T2P,5,P,P,8,13,7,5,18,bed,Did you see the bed?,0.12,0.016,JPG\,pencil01,broccoli01a,button01,sponge01,watermelon01,lipstick02a,comb02a,bed,lighter01,sock01a,spoon01,blueberry01,stapler04b,onion,grape01,avocado01,blankImage,bed,,,,,,,,,,,,0,19,19,124,,,,,,,,,,,,,,,,,,,,,,,,,,,,,,,,,,,328.92777330009267,329.94322270015255,329.90984160010703,330.47939720004797,330.47939720004797,None,332.46886580018327,None,right,3.057267199968919,332.46886580018327,None,335.5489141000435,None,left,0.3935891999863088,335.5489141000435,None,,,,,,,,,,,,,,,,,,,,,,,PPT52,001,2022-07-12_16h35.24.445,ABstudy,2022.1.4,59.90133055801126,
AB,Lag5_T1P_T2P,5,P,P,8,13,7,4,17,Accordion,Did you see the Accordion?,0.12,0.016,JPG\,toiletpaper01a,lipstick02a,potato02b,speaker04,globe,strawberry,carrot01,accordion01,sock01a,candle08b,pen04b,calculator01,stapler01,brick,pear01,fork03c,blankImage,accordion01,,,,,,,,,,,,0,20,20,162,,,,,,,,,,,,,,,,,,,,,,,,,,,,,,,,,,,335.9683853001334,336.9838268000167,336.95053790020756,337.5374875999987,337.5374875999987,None,339.49303030013107,None,left,0.5864196000620723,339.49303030013107,None,340.1046222001314,None,left,1.4618395001161844,340.1046222001314,None,,,,,,,,,,,,,,,,,,,,,,,PPT52,001,2022-07-12_16h35.24.445,ABstudy,2022.1.4,59.90133055801126,
AB,Lag1_T1P_T2P,1,P,P,6,7,5,3,10,fortune cookie,Did you see the fortune cookie?,0.12,0.016,JPG\,scissors01,grape01,mushroom01,toiletpaper01a,greenolive,fortunecookie,stapler03b,ashtray01,carrot01,pineapple01a,blankImage,blankImage,blankImage,blankImage,blankImage,blankImage,blankImage,fortunecookie,,,,,,,,,,,,0,21,21,42,,,,,,,,,,,,,,,,,,,,,,,,,,,,,,,,,,,341.5936132001225,342.6064008001704,342.59068900020793,343.2376904000994,343.16665380005725,None,344.35655120015144,None,left,1.3058463998604566,344.35655120015144,None,345.6921774002258,None,left,0.7223504998255521,345.6921774002258,None,,,,,,,,,,,,,,,,,,,,,,,PPT52,001,2022-07-12_16h35.24.445,ABstudy,2022.1.4,59.90133055801126,
AB,Lag5_T1P_T2P,5,P,P,6,11,5,4,15,Witch hat,Did you see the Witch hat?,0.12,0.016,JPG\,pizza,watch02a,greenolive,cucumber,match,witchhat,scissors01,broom01,globe,cherry01,stapler03a,cigarette,microscope,cellphone,speaker04,blankImage,blankImage,witchhat,,,,,,,,,,,,0,22,22,101,,,,,,,,,,,,,,,,,,,,,,,,,,,,,,,,,,,346.4452195002232,347.4606139000971,347.42725180019625,348.0147381001152,348.0147381001152,None,349.913746900158,None,left,0.6760818001348525,349.913746900158,None,350.61664630007,None,left,0.5900094001553953,350.61664630007,None,,,,,,,,,,,,,,,,,,,,,,,PPT52,001,2022-07-12_16h35.24.445,ABstudy,2022.1.4,59.90133055801126,
AB,Lag5_T1P_T2P,5,P,P,6,11,5,4,15,Bumper car,Did you see the Bumper car?,0.12,0.016,JPG\,eraser,measuringcup01,chain01,birthdaycandle,ring01,bumpercar,weight04a,pig,cauliflower01,celery,stapler01,sunglasses04,greenolive,candy,strawberry,blankImage,blankImage,bumpercar,,,,,,,,,,,,0,23,23,104,,,,,,,,,,,,,,,,,,,,,,,,,,,,,,,,,,,351.2801548000425,352.2826883001253,352.26694880006835,352.91566750011407,352.91566750011407,None,354.6209103001747,None,left,0.5692066999617964,354.6209103001747,None,355.2192650001962,None,left,0.5549945998936892,355.2192650001962,None,,,,,,,,,,,,,,,,,,,,,,,PPT52,001,2022-07-12_16h35.24.445,ABstudy,2022.1.4,59.90133055801126,
AB,Lag5_T1A_T2P,5,A,P,5,10,4,5,15,Eye patch,Did you see the Eye patch?,0.12,0.016,JPG\,scissors01,balloon01b,eraser,feather03a,banana01,candle01,measuringcup01,calculator01,thermometer02b,stapler03b,pear01,carrot01,globe,baseball01a,leaf02a,blankImage,blankImage,cross01,,,,,,,,,,,,0,24,24,258,,,,,,,,,,,,,,,,,,,,,,,,,,,,,,,,,,,355.81332300021313,356.8202737001702,356.80356690008193,357.4217917001806,357.4217917001806,None,359.23060160013847,None,right,2.9360584998503327,359.23060160013847,None,362.19194120005704,None,right,0.990212099859491,362.19194120005704,None,,,,,,,,,,,,,,,,,,,,,,,PPT52,001,2022-07-12_16h35.24.445,ABstudy,2022.1.4,59.90133055801126,
AB,Lag1_T1P_T2A,1,P,A,5,6,4,4,10,flower,Did you see the flower?,0.12,0.016,JPG\,broom01,globe,cellphone,tableknife02,daffodil,scissors01,ring01,alligator,rice,toaster01,blankImage,blankImage,blankImage,blankImage,blankImage,blankImage,blankImage,daffodil,,,,,,,,,,,,0,25,25,184,,,,,,,,,,,,,,,,,,,,,,,,,,,,,,,,,,,363.2119533000514,364.2273364001885,364.1939203001093,364.77211530017667,364.77211530017667,None,366.00742860022,None,left,2.0224133001174778,366.00742860022,None,368.0481964000501,None,right,0.40559169999323785,368.0481964000501,None,,,,,,,,,,,,,,,,,,,,,,,PPT52,001,2022-07-12_16h35.24.445,ABstudy,2022.1.4,59.90133055801126,
AB,Lag5_T1A_T2A,5,A,A,5,10,4,5,15,window,Did you see the window?,0.12,0.016,JPG\,leaf02a,apple07,cd,pineapple01a,envelope03a,paintbrush01,pig,canoftennisballs,rice,feather03a,lemon02,balloon01b,avocado01,calculator01,watermelon01,blankImage,blankImage,saxophone,,,,,,,,,,,,0,26,26,301,,,,,,,,,,,,,,,,,,,,,,,,,,,,,,,,,,,368.4860138001386,369.49951059999876,369.4826958000194,370.06663850019686,370.06663850019686,None,371.91346530010924,None,right,1.3964664000086486,371.91346530010924,None,373.33681630017236,None,right,0.9018761999905109,373.33681630017236,None,,,,,,,,,,,,,,,,,,,,,,,PPT52,001,2022-07-12_16h35.24.445,ABstudy,2022.1.4,59.90133055801126,
AB,Lag5_T1P_T2P,5,P,P,7,12,6,3,15,lips,Did you see the lips?,0.12,0.016,JPG\,cigarette,fork03c,greenolive,broccoli01a,avocado01,tennisball01b,lip,leaf02a,pig,fan,clock01a,stapler03a,envelope03a,birthdaycandle,teabag,blankImage,blankImage,lip,,,,,,,,,,,,0,27,27,95,,,,,,,,,,,,,,,,,,,,,,,,,,,,,,,,,,,374.2812278000638,375.2883890001103,375.2714849000331,375.8415990001522,375.8415990001522,None,377.66350150015205,None,left,0.7188532999716699,377.66350150015205,None,378.4084684001282,None,left,1.9656422999687493,378.4084684001282,None,,,,,,,,,,,,,,,,,,,,,,,PPT52,001,2022-07-12_16h35.24.445,ABstudy,2022.1.4,59.90133055801126,
AB,Lag1_T1P_T2P,1,P,P,7,8,6,3,11,swing,Did you see the swing?,0.12,0.016,JPG\,sewingmachine01a,thermometer02b,sponge01,eraser,broccoli01a,fork03c,swing,stapler03b,belt02a,medal02b,pineapple01a,blankImage,blankImage,blankImage,blankImage,blankImage,blankImage,swing,,,,,,,,,,,,0,28,28,30,,,,,,,,,,,,,,,,,,,,,,,,,,,,,,,,,,,380.3976585001219,381.41125400015153,381.3948482000269,382.056184500223,381.97128000017256,None,383.31235580006614,None,left,0.7094374001026154,383.31235580006614,None,384.0474104001187,None,left,1.7666104000527412,384.0474104001187,None,,,,,,,,,,,,,,,,,,,,,,,PPT52,001,2022-07-12_16h35.24.445,ABstudy,2022.1.4,59.90133055801126,
AB,Lag5_T1P_T2P,5,P,P,5,10,4,5,15,sword fish,Did you see the sword fish?,0.12,0.016,JPG\,scissors01,balloon01b,eraser,feather03a,swordfish,candle01,measuringcup01,calculator01,thermometer02b,stapler04b,pear01,carrot01,globe,baseball01a,leaf02a,blankImage,blankImage,swordfish,,,,,,,,,,,,0,29,29,160,,,,,,,,,,,,,,,,,,,,,,,,,,,,,,,,,,,385.8377681002021,386.8502177000046,386.83348310017027,387.39185700006783,387.39185700006783,None,389.2033080002293,None,left,1.8601625000592321,389.2033080002293,None,391.0873725002166,None,right,0.44669979996979237,391.0873725002166,None,,,,,,,,,,,,,,,,,,,,,,,PPT52,001,2022-07-12_16h35.24.445,ABstudy,2022.1.4,59.90133055801126,
AB,Lag5_T1A_T2P,5,A,P,7,12,6,4,16,ear,Did you see the ear?,0.12,0.016,JPG\,candle01,shirt02,brick,orange,greenolive,toothbrush03b,pizza,thermometer02b,book01b,toiletpaper01a,sewingmachine01a,stapler01,candy,cymbal,potato02b,plate01b,blankImage,chair,,,,,,,,,,,,0,30,30,257,,,,,,,,,,,,,,,,,,,,,,,,,,,,,,,,,,,391.55676610022783,392.5722481000703,392.5388522001449,393.11467720009387,393.11467720009387,None,395.04477870021947,None,right,1.6091401998419315,395.04477870021947,None,396.67670450010337,None,left,0.41714529995806515,396.67670450010337,None,,,,,,,,,,,,,,,,,,,,,,,PPT52,001,2022-07-12_16h35.24.445,ABstudy,2022.1.4,59.90133055801126,
AB,Lag5_T1P_T2P,5,P,P,5,10,4,3,13,Sushi,Did you see the Sushi?,0.12,0.016,JPG\,carrot01,greenolive,fork03c,chain01,makiroll,watermelon01,tableknife02,printer02,comb02a,stapler03b,orange,rice,fan,blankImage,blankImage,blankImage,blankImage,makiroll,,,,,,,,,,,,0,31,31,135,,,,,,,,,,,,,,,,,,,,,,,,,,,,,,,,,,,397.1150500001386,398.1278739001136,398.11125529999845,398.6945853000507,398.6945853000507,None,400.2791830000933,None,left,0.5588750999886543,400.2791830000933,None,400.86380740022287,None,left,1.1661622999235988,400.86380740022287,None,,,,,,,,,,,,,,,,,,,,,,,PPT52,001,2022-07-12_16h35.24.445,ABstudy,2022.1.4,59.90133055801126,
AB,Lag5_T1P_T2P,5,P,P,5,10,4,5,15,baseball bat,Did you see the baseball bat?,0.12,0.016,JPG\,pizza,printer02,medal02b,spoon01,baseballbat,lighter01,belt02a,watermelon01,celery,stapler04b,screw02,comb02a,cauliflower01,lipstick02a,potato02b,blankImage,blankImage,baseballbat,,,,,,,,,,,,0,32,32,123,,,,,,,,,,,,,,,,,,,,,,,,,,,,,,,,,,,402.05154360015877,403.0660045000259,403.0493744001724,403.717536700191,403.62478980002925,None,405.465487500187,None,left,0.836058699991554,405.465487500187,None,406.3192360000685,None,left,0.8151883000973612,406.3192360000685,None,,,,,,,,,,,,,,,,,,,,,,,PPT52,001,2022-07-12_16h35.24.445,ABstudy,2022.1.4,59.90133055801126,
AB,Lag1_T1A_T2P,1,A,P,5,6,4,3,9,barrel,Did you see the barrel?,0.12,0.016,JPG\,clock01a,cellphone,toaster01,toothbrush03b,cauliflower01,stapler01,comb02a,paintbrush01,scarf,blankImage,blankImage,blankImage,blankImage,blankImage,blankImage,blankImage,blankImage,sheep,,,,,,,,,,,,0,33,33,243,,,,,,,,,,,,,,,,,,,,,,,,,,,,,,,,,,,407.1555848000571,408.17107130005024,408.13769660005346,408.7320553001482,408.7320553001482,None,409.82441480015405,None,right,1.853019299916923,409.82441480015405,None,411.7082356000319,None,left,0.4103095999453217,411.7082356000319,None,,,,,,,,,,,,,,,,,,,,,,,PPT52,001,2022-07-12_16h35.24.445,ABstudy,2022.1.4,59.90133055801126,
AB,Lag5_T1P_T2P,5,P,P,5,10,4,5,15,funnel,Did you see the funnel?,0.12,0.016,JPG\,pineapple01a,tennisball01b,computerkeyboard02,feather03a,funnel,acorn,violin,blueberry01,medal02b,stapler01,greenolive,screwdriver04b,potato02b,fork03c,cymbal,blankImage,blankImage,funnel,,,,,,,,,,,,0,34,34,109,,,,,,,,,,,,,,,,,,,,,,,,,,,,,,,,,,,412.14543900010176,413.15961230010726,413.14278210001066,413.79997290018946,413.72130020009354,None,415.4622586001642,None,right,1.4791876999661326,415.4622586001642,None,416.96349640004337,None,right,0.3700858000665903,416.96349640004337,None,,,,,,,,,,,,,,,,,,,,,,,PPT52,001,2022-07-12_16h35.24.445,ABstudy,2022.1.4,59.90133055801126,
AB,Lag1_T1P_T2P,1,P,P,8,9,7,4,13,Doughnut,Did you see the Doughnut?,0.12,0.016,JPG\,brick,eraser,cucumber,ashtray01,thermometer02b,binoculars01b,lipstick02a,donut,stapler01,brownsugar,battery02b,iron01b,dice05a,blankImage,blankImage,blankImage,blankImage,donut,,,,,,,,,,,,0,35,35,39,,,,,,,,,,,,,,,,,,,,,,,,,,,,,,,,,,,417.36714340001345,418.3814110001549,418.3646543000359,418.9489427001681,418.9489427001681,None,420.51615250017494,None,left,0.6654014999512583,420.51615250017494,None,421.20105560007505,None,right,1.525427300017327,421.20105560007505,None,,,,,,,,,,,,,,,,,,,,,,,PPT52,001,2022-07-12_16h35.24.445,ABstudy,2022.1.4,59.90133055801126,
AB,Lag5_T1P_T2A,5,P,A,6,11,5,4,15,Spear,Did you see the Spear?,0.12,0.016,JPG\,belt02a,measuringcup01,spoon01,chain01,greenolive,spear02,computerkeyboard02,onion,fan,strawberry,candle01,broom01,binoculars01b,ashtray01,pingpongpaddle01c,blankImage,blankImage,spear02,,,,,,,,,,,,0,36,36,227,,,,,,,,,,,,,,,,,,,,,,,,,,,,,,,,,,,422.7568578000646,423.77013500011526,423.7533764000982,424.3425744001288,424.3425744001288,None,426.1504186000675,None,left,0.6795839001424611,426.1504186000675,None,426.8567096001934,None,right,0.437160300090909,426.8567096001934,None,,,,,,,,,,,,,,,,,,,,,,,PPT52,001,2022-07-12_16h35.24.445,ABstudy,2022.1.4,59.90133055801126,
AB,Lag1_T1A_T2A,1,A,A,6,7,5,5,12,flamingo,Did you see the flamingo?,0.12,0.016,JPG\,chain01,pen04b,birthdaycandle,watermelon01,broom01,scissors01,measuringcup01,candle01,hammer01,calculator01,ashtray01,feather03a,blankImage,blankImage,blankImage,blankImage,blankImage,witchhat,,,,,,,,,,,,0,37,37,288,,,,,,,,,,,,,,,,,,,,,,,,,,,,,,,,,,,427.32703440007754,428.3413959001191,428.3245955000166,428.8813971001655,428.8813971001655,None,430.39001350011677,None,right,1.175778300035745,430.39001350011677,None,431.59723570011556,None,right,0.5287464000284672,431.59723570011556,None,,,,,,,,,,,,,,,,,,,,,,,PPT52,001,2022-07-12_16h35.24.445,ABstudy,2022.1.4,59.90133055801126,
AB,Lag5_T1P_T2A,5,P,A,5,10,4,5,15,Shield,Did you see the Shield?,0.12,0.016,JPG\,cigarette,fork03c,greenolive,broccoli01a,shield02,tennisball01b,balloon01b,leaf02a,pig,fan,clock01a,strawberry,envelope03a,birthdaycandle,teabag,blankImage,blankImage,shield02,,,,,,,,,,,,0,38,38,223,,,,,,,,,,,,,,,,,,,,,,,,,,,,,,,,,,,432.156235500006,433.1626051000785,433.14595210016705,433.71826320001855,433.71826320001855,None,435.55239130021073,None,right,1.2068370999768376,435.55239130021073,None,436.78289230004884,None,right,0.639367800205946,436.78289230004884,None,,,,,,,,,,,,,,,,,,,,,,,PPT52,001,2022-07-12_16h35.24.445,ABstudy,2022.1.4,59.90133055801126,
AB,Lag5_T1P_T2P,5,P,P,5,10,4,3,13,lollipop,Did you see the lollipop?,0.12,0.016,JPG\,brownsugar,candle01,match,printer02,lollipop04,balloon01b,belt02a,potato02b,computerkeyboard02,stapler03a,rice,mushroom01,pencil01,blankImage,blankImage,blankImage,blankImage,lollipop04,,,,,,,,,,,,0,39,39,112,,,,,,,,,,,,,,,,,,,,,,,,,,,,,,,,,,,437.45301110018045,438.46792870014906,438.43452530005015,438.9350235001184,438.9350235001184,None,440.62911500013433,None,left,0.5212995000183582,440.62911500013433,None,441.1849721001927,None,left,0.49303769995458424,441.1849721001927,None,,,,,,,,,,,,,,,,,,,,,,,PPT52,001,2022-07-12_16h35.24.445,ABstudy,2022.1.4,59.90133055801126,
AB,Lag5_T1A_T2P,5,A,P,5,10,4,5,15,Sushi,Did you see the Sushi?,0.12,0.016,JPG\,pineapple01a,leaf02a,grape01,toiletpaper01a,match,tennisball01b,spoon01,chain01,pig,stapler04b,ring01,lemon02,dice05a,pizza,potato02b,blankImage,blankImage,crown,,,,,,,,,,,,0,40,40,285,,,,,,,,,,,,,,,,,,,,,,,,,,,,,,,,,,,441.71223490010016,442.7225624001585,442.70583820017055,443.2868287002202,443.2868287002202,None,445.09228260000236,None,right,1.3051321001257747,445.09228260000236,None,446.42577410000376,None,left,0.5004239999689162,446.42577410000376,None,,,,,,,,,,,,,,,,,,,,,,,PPT52,001,2022-07-12_16h35.24.445,ABstudy,2022.1.4,59.90133055801126,
AB,Lag5_T1P_T2P,5,P,P,8,13,7,5,18,sock,Did you see the sock?,0.12,0.016,JPG\,thermometer02b,avocado01,scissors01,tennisball01b,medal02b,banana01,strawberry,athleticsock,potato02b,pineapple01a,microscope,cymbal,stapler03b,celery,garlic01a,sunglasses04,blankImage,athleticsock,,,,,,,,,,,,0,41,41,141,,,,,,,,,,,,,,,,,,,,,,,,,,,,,,,,,,,446.9452499002218,447.96074260002933,447.9273753000889,448.513594500022,448.513594500022,None,450.45663900021464,None,left,0.6067160998936743,450.45663900021464,None,451.08128350018524,None,left,1.6849195999093354,451.08128350018524,None,,,,,,,,,,,,,,,,,,,,,,,PPT52,001,2022-07-12_16h35.24.445,ABstudy,2022.1.4,59.90133055801126,
AB,Lag5_T1A_T2A,5,A,A,5,10,4,5,15,flower,Did you see the flower?,0.12,0.016,JPG\,clock01a,cellphone,toaster01,toothbrush03b,cauliflower01,microscope,comb02a,paintbrush01,scarf,clock04,sponge01,iron01b,watch02a,celery,ring01,blankImage,blankImage,stepladder,,,,,,,,,,,,0,42,42,303,,,,,,,,,,,,,,,,,,,,,,,,,,,,,,,,,,,452.78809790010564,453.80041280016303,453.78446690016426,454.3783784999978,454.3783784999978,None,456.1646640000399,None,right,0.7775592999532819,456.1646640000399,None,456.97241840022616,None,right,0.6417028999421746,456.97241840022616,None,,,,,,,,,,,,,,,,,,,,,,,PPT52,001,2022-07-12_16h35.24.445,ABstudy,2022.1.4,59.90133055801126,
AB,Lag5_T1A_T2P,5,A,P,5,10,4,3,13,License Plate,Did you see the License Plate?,0.12,0.016,JPG\,tomato01,pen04b,shirt02,carrot01,lamp04a,key01,pizza,avocado01,sewingmachine01a,stapler06,iron01b,book01b,chain01,blankImage,blankImage,blankImage,blankImage,porcupine,,,,,,,,,,,,0,43,43,270,,,,,,,,,,,,,,,,,,,,,,,,,,,,,,,,,,,457.64428900019266,458.6549450000748,458.638053300092,459.23841360001825,459.23841360001825,None,460.88862670003437,None,right,0.9651779001578689,460.88862670003437,None,461.875721400138,None,right,0.47404929995536804,461.875721400138,None,,,,,,,,,,,,,,,,,,,,,,,PPT52,001,2022-07-12_16h35.24.445,ABstudy,2022.1.4,59.90133055801126,
AB,Lag5_T1A_T2P,5,A,P,6,11,5,3,14,saxophone,Did you see the saxophone?,0.12,0.016,JPG\,globe,belt02a,sponge01,violin,fork03c,tomato01,clock01a,microscope,balloon01b,scarf,stapler03b,pen04b,brick,brownsugar,blankImage,blankImage,blankImage,microphone01,,,,,,,,,,,,0,44,44,267,,,,,,,,,,,,,,,,,,,,,,,,,,,,,,,,,,,462.38419610005803,463.3930139001459,463.3763074001763,463.9568119000178,463.9568119000178,None,465.56290820008144,None,right,1.290894100209698,465.56290820008144,None,466.8798718000762,None,left,0.43823230010457337,466.8798718000762,None,,,,,,,,,,,,,,,,,,,,,,,PPT52,001,2022-07-12_16h35.24.445,ABstudy,2022.1.4,59.90133055801126,
AB,Lag5_T1P_T2P,5,P,P,8,13,7,4,17,trumpet,Did you see the trumpet?,0.12,0.016,JPG\,toaster01,scarf,toiletpaper01a,calculator01,violin,sewingmachine01a,fan,trumpet,strawberry,balloon01b,brownsugar,eraser,stapler01,rice,ring01,shirt02,blankImage,trumpet,,,,,,,,,,,,0,45,45,145,,,,,,,,,,,,,,,,,,,,,,,,,,,,,,,,,,,467.3525217000861,468.3645080002025,468.3477839000989,468.98134570010006,468.98134570010006,None,470.87022690009326,None,left,0.5767725000623614,470.87022690009326,None,471.46785210003145,None,left,0.8106375001370907,471.46785210003145,None,,,,,,,,,,,,,,,,,,,,,,,PPT52,001,2022-07-12_16h35.24.445,ABstudy,2022.1.4,59.90133055801126,
AB,Lag1_T1P_T2P,1,P,P,8,9,7,3,12,cactus,Did you see the cactus?,0.12,0.016,JPG\,tennisball01b,paintbrush01,medal02b,apple07,speaker04,iron01b,avocado01,cactus,stapler03b,toiletpaper01a,watermelon01,candle01,blankImage,blankImage,blankImage,blankImage,blankImage,cactus,,,,,,,,,,,,0,46,46,58,,,,,,,,,,,,,,,,,,,,,,,,,,,,,,,,,,,472.3056445000693,473.319396100007,473.3027274000924,473.9001483002212,473.9001483002212,None,475.30760770011693,None,left,0.7305938999634236,475.30760770011693,None,476.0695968000218,None,left,0.8086031000129879,476.0695968000218,None,,,,,,,,,,,,,,,,,,,,,,,PPT52,001,2022-07-12_16h35.24.445,ABstudy,2022.1.4,59.90133055801126,
AB,Lag1_T1P_T2P,1,P,P,6,7,5,4,11,Bow,Did you see the Bow?,0.12,0.016,JPG\,broom01,plate01b,scissors01,garlic01a,paintbrush01,bow,stapler03a,shirt02,speaker04,celery,sandal,blankImage,blankImage,blankImage,blankImage,blankImage,blankImage,bow,,,,,,,,,,,,0,47,47,53,,,,,,,,,,,,,,,,,,,,,,,,,,,,,,,,,,,476.91766200005077,477.9236794000026,477.9070104002021,478.4886463000439,478.4886463000439,None,479.9082226001192,None,left,1.1535166001413018,479.9082226001192,None,481.0937009002082,None,right,0.5284593999385834,481.0937009002082,None,,,,,,,,,,,,,,,,,,,,,,,PPT52,001,2022-07-12_16h35.24.445,ABstudy,2022.1.4,59.90133055801126,
AB,Lag1_T1A_T2P,1,A,P,6,7,5,5,12,Piano,Did you see the Piano?,0.12,0.016,JPG\,toiletpaper01a,mushroom01,medal02b,sandal,rice,cd,stapler01,pizza,candle08b,garlic01a,toaster01,belt02a,blankImage,blankImage,blankImage,blankImage,blankImage,moose,,,,,,,,,,,,0,48,48,239,,,,,,,,,,,,,,,,,,,,,,,,,,,,,,,,,,,481.64719680021517,482.6619570001494,482.6285950001329,483.2176163000986,483.2176163000986,None,484.70583900017664,None,right,1.4357436001300812,484.70583900017664,None,486.1653922002297,None,left,0.4322168999351561,486.1653922002297,None,,,,,,,,,,,,,,,,,,,,,,,PPT52,001,2022-07-12_16h35.24.445,ABstudy,2022.1.4,59.90133055801126,
AB,Lag1_T1A_T2A,1,A,A,8,9,7,3,12,punching bag,Did you see the punching bag?,0.12,0.016,JPG\,key01,apple07,ring01,leaf02a,hammer01,tableknife02,violin,sponge01,baseball01a,thermometer02b,celery,calculator01,blankImage,blankImage,blankImage,blankImage,blankImage,bathtub,,,,,,,,,,,,0,49,49,291,,,,,,,,,,,,,,,,,,,,,,,,,,,,,,,,,,,486.6190097001381,487.63347110012546,487.6001558001153,488.17136710020714,488.17136710020714,None,489.7011755001731,None,right,0.8009599999058992,489.7011755001731,None,490.51968350005336,None,right,1.5178599001374096,490.51968350005336,None,,,,,,,,,,,,,,,,,,,,,,,PPT52,001,2022-07-12_16h35.24.445,ABstudy,2022.1.4,59.90133055801126,
AB,Lag5_T1P_T2A,5,P,A,6,11,5,5,16,World map,Did you see the World map?,0.12,0.016,JPG\,cigarette,pig,banana01,strawberry,clock01a,worldmap,spoon01,blueberry01,battery02b,pineapple01a,chain01,paintbrush01,candy,pen04b,teabag,birthdaycandle,blankImage,worldmap,,,,,,,,,,,,0,50,50,205,,,,,,,,,,,,,,,,,,,,,,,,,,,,,,,,,,,492.0594535002019,493.07224020012654,493.0556140001863,493.62647210014984,493.62647210014984,None,495.4926863000728,None,left,1.6973937000147998,495.4926863000728,None,497.20966760022566,None,right,0.5803313998039812,497.20966760022566,None,,,,,,,,,,,,,,,,,,,,,,,PPT52,001,2022-07-12_16h35.24.445,ABstudy,2022.1.4,59.90133055801126,
AB,Lag1_T1P_T2A,1,P,A,5,6,4,5,11,Toaster oven,Did you see the Toaster oven?,0.12,0.016,JPG\,fork03c,toothbrush03b,cellphone,fan,toasteroven,clock01a,ring01,eraser,sunglasses04,thermometer02b,violin,blankImage,blankImage,blankImage,blankImage,blankImage,blankImage,toasteroven,,,,,,,,,,,,0,51,51,200,,,,,,,,,,,,,,,,,,,,,,,,,,,,,,,,,,,497.85654290020466,498.8610384000931,498.84557760017924,499.4473264000844,499.4473264000844,None,500.7634370001033,None,left,1.6266630000900477,500.7634370001033,None,502.41486860020086,None,right,1.0383303000126034,502.41486860020086,None,,,,,,,,,,,,,,,,,,,,,,,PPT52,001,2022-07-12_16h35.24.445,ABstudy,2022.1.4,59.90133055801126,
AB,Lag1_T1P_T2P,1,P,P,8,9,7,3,12,Eiffel tower,Did you see the Eiffel tower?,0.12,0.016,JPG\,celery,tennisball01b,calculator01,pear01,screw02,orange,button01,eiffeltower,stapler03b,apple07,iron01b,brownsugar,blankImage,blankImage,blankImage,blankImage,blankImage,eiffeltower,,,,,,,,,,,,0,52,52,40,,,,,,,,,,,,,,,,,,,,,,,,,,,,,,,,,,,503.4862190000713,504.5003385001328,504.4836827002,505.07592060021125,505.07592060021125,None,506.47519740019925,None,left,0.5627224000636488,506.47519740019925,None,507.06950210011564,None,left,3.5199106000363827,507.06950210011564,None,,,,,,,,,,,,,,,,,,,,,,,PPT52,001,2022-07-12_16h35.24.445,ABstudy,2022.1.4,59.90133055801126,
AB,Lag1_T1P_T2P,1,P,P,6,7,5,5,12,exit sign,Did you see the exit sign?,0.12,0.016,JPG\,printer02,envelope03a,potato02b,calculator01,tableknife02,exitsign,stapler01,pig,broom01,greenolive,candle08b,battery02b,blankImage,blankImage,blankImage,blankImage,blankImage,exitsign,,,,,,,,,,,,0,53,53,41,,,,,,,,,,,,,,,,,,,,,,,,,,,,,,,,,,,510.60998300020583,511.62409800011665,511.60754360002466,512.2185095001478,512.2185095001478,None,513.6684428001754,None,left,0.6891600000672042,513.6684428001754,None,514.3911573002115,None,right,0.5903725000098348,514.3911573002115,None,,,,,,,,,,,,,,,,,,,,,,,PPT52,001,2022-07-12_16h35.24.445,ABstudy,2022.1.4,59.90133055801126,
AB,Lag5_T1P_T2P,5,P,P,6,11,5,5,16,microwave,Did you see the microwave?,0.12,0.016,JPG\,pen04b,speaker04,lighter01,cherry01,weight04a,microwave,sock01a,toothbrush03b,broom01,sewingmachine01a,stapler06,iron01b,clock01a,sandal,cd,blueberry01,blankImage,microwave,,,,,,,,,,,,0,54,54,136,,,,,,,,,,,,,,,,,,,,,,,,,,,,,,,,,,,515.021188700106,516.0291871000081,516.0136025000829,516.5927211001981,516.5927211001981,None,518.5186644000933,None,left,2.846911400090903,518.5186644000933,None,521.3838564001489,None,left,1.0457327999174595,521.3838564001489,None,,,,,,,,,,,,,,,,,,,,,,,PPT52,001,2022-07-12_16h35.24.445,ABstudy,2022.1.4,59.90133055801126,
AB,Lag1_T1A_T2A,1,A,A,6,7,5,5,12,Safe,Did you see the Safe?,0.12,0.016,JPG\,hammer01,sponge01,toaster01,cherry01,feather03a,mushroom01,measuringcup01,pencil01,tennisball01b,brick,clock04,medal02b,blankImage,blankImage,blankImage,blankImage,blankImage,downhillski,,,,,,,,,,,,0,55,55,294,,,,,,,,,,,,,,,,,,,,,,,,,,,,,,,,,,,522.4538558002096,523.4692345000803,523.4358252000529,524.0075091000181,524.0075091000181,None,525.504964100197,None,right,0.9729119997937232,525.504964100197,None,526.505526300054,None,right,0.7323936000466347,526.505526300054,None,,,,,,,,,,,,,,,,,,,,,,,PPT52,001,2022-07-12_16h35.24.445,ABstudy,2022.1.4,59.90133055801126,
AB,Lag5_T1A_T2P,5,A,P,5,10,4,3,13,flower,Did you see the flower?,0.12,0.016,JPG\,cucumber,ring01,lipstick02a,microscope,violin,garlic01a,celery,lighter01,cherry01,stapler03a,belt02a,key01,binoculars01b,blankImage,blankImage,blankImage,blankImage,christmastree,,,,,,,,,,,,0,56,56,284,,,,,,,,,,,,,,,,,,,,,,,,,,,,,,,,,,,527.2585542001761,528.2740353001282,528.2406667000614,528.8217978000175,528.8217978000175,None,530.4671012000181,None,right,0.6998523999936879,530.4671012000181,None,531.1934251000639,None,right,0.7803626998793334,531.1934251000639,None,,,,,,,,,,,,,,,,,,,,,,,PPT52,001,2022-07-12_16h35.24.445,ABstudy,2022.1.4,59.90133055801126,
AB,Lag5_T1P_T2A,5,P,A,5,10,4,3,13,cork,Did you see the cork?,0.12,0.016,JPG\,clock01a,grape01,plate01b,key01,cork02,feather03a,pineapple01a,iron01b,toothbrush03b,comb02a,broom01,toaster01,pizza,blankImage,blankImage,blankImage,blankImage,cork02,,,,,,,,,,,,0,57,57,209,,,,,,,,,,,,,,,,,,,,,,,,,,,,,,,,,,,531.9966414000373,533.0120160002261,532.9786569001153,533.559900799999,533.559900799999,None,535.182512300089,None,left,6.9187365998514,535.182512300089,None,542.1211142002139,None,right,0.7483711000531912,542.1211142002139,None,,,,,,,,,,,,,,,,,,,,,,,PPT52,001,2022-07-12_16h35.24.445,ABstudy,2022.1.4,59.90133055801126,
AB,Lag1_T1P_T2A,1,P,A,5,6,4,5,11,Sailboat,Did you see the Sailboat?,0.12,0.016,JPG\,chain01,speaker04,avocado01,watermelon01,sailboat,comb02a,lamp04a,fork03c,toaster01,slipper03b,scissors01,blankImage,blankImage,blankImage,blankImage,blankImage,blankImage,sailboat,,,,,,,,,,,,0,58,58,193,,,,,,,,,,,,,,,,,,,,,,,,,,,,,,,,,,,542.8907843001653,543.9061862002127,543.8728524001781,544.4763605000917,544.4763605000917,None,545.8444386001211,None,left,1.305356099968776,545.8444386001211,None,547.1770598001312,None,right,1.0128018001560122,547.1770598001312,None,,,,,,,,,,,,,,,,,,,,,,,PPT52,001,2022-07-12_16h35.24.445,ABstudy,2022.1.4,59.90133055801126,
AB,Lag1_T1P_T2A,1,P,A,6,7,5,5,12,Barn,Did you see the Barn?,0.12,0.016,JPG\,celery,pencil01,fan,foosballtable,iron01b,barn,potato02b,fork03c,button01,pineapple01a,baseball01a,printer02,blankImage,blankImage,blankImage,blankImage,blankImage,barn,,,,,,,,,,,,0,59,59,181,,,,,,,,,,,,,,,,,,,,,,,,,,,,,,,,,,,548.2172417000402,549.2287996001542,549.2131903001573,549.8045097000431,549.8045097000431,None,551.2603445001878,None,left,0.6649129998404533,551.2603445001878,None,551.947919400176,None,right,0.5294320001266897,551.947919400176,None,,,,,,,,,,,,,,,,,,,,,,,PPT52,001,2022-07-12_16h35.24.445,ABstudy,2022.1.4,59.90133055801126,
AB,Lag5_T1P_T2P,5,P,P,5,10,4,4,14,Christmas lights,Did you see the Christmas lights?,0.12,0.016,JPG\,binoculars01b,cymbal,pizza,candy,christmaslights,sponge01,grape01,thermometer02b,speaker04,stapler03a,lipstick02a,strawberry,candle01,tambourine02,blankImage,blankImage,blankImage,christmaslights,,,,,,,,,,,,0,60,60,168,,,,,,,,,,,,,,,,,,,,,,,,,,,,,,,,,,,552.5087703000754,553.5157894000877,553.4990943002049,554.0880035001319,554.0880035001319,None,555.8118822001852,None,left,0.5859228000044823,555.8118822001852,None,556.4186874001753,None,left,0.37903780001215637,556.4186874001753,None,,,,,,,,,,,,,,,,,,,,,,,PPT52,001,2022-07-12_16h35.24.445,ABstudy,2022.1.4,59.90133055801126,
AB,Lag5_T1P_T2P,5,P,P,6,11,5,5,16,motorcycle,Did you see the motorcycle?,0.12,0.016,JPG\,cucumber,ring01,lipstick02a,microscope,violin,motorcycle,celery,lighter01,cherry01,sewingmachine01a,stapler04b,key01,binoculars01b,medal02b,watermelon01,dice05a,blankImage,motorcycle,,,,,,,,,,,,0,61,61,93,,,,,,,,,,,,,,,,,,,,,,,,,,,,,,,,,,,556.8213661001064,557.8367803001311,557.8034241001587,558.379150000168,558.379150000168,None,560.3288973001763,None,left,0.5563493000809103,560.3288973001763,None,560.9068299001083,None,left,0.5705583998933434,560.9068299001083,None,,,,,,,,,,,,,,,,,,,,,,,PPT52,001,2022-07-12_16h35.24.445,ABstudy,2022.1.4,59.90133055801126,
AB,Lag5_T1P_T2A,5,P,A,8,13,7,3,16,leaf blower,Did you see the leaf blower?,0.12,0.016,JPG\,printer02,leaf02a,cauliflower01,sock01a,brownsugar,paintbrush01,pig,leafblower01,belt02a,shirt02,key01,match,cigarette,scissors01,envelope03a,blueberry01,blankImage,leafblower01,,,,,,,,,,,,0,62,62,216,,,,,,,,,,,,,,,,,,,,,,,,,,,,,,,,,,,561.5097926000599,562.5249161000829,562.4915082000662,563.0843334000092,563.0843334000092,None,565.0415406001266,None,left,0.915872999932617,565.0415406001266,None,565.9785784000997,None,right,0.4919681001920253,565.9785784000997,None,,,,,,,,,,,,,,,,,,,,,,,PPT52,001,2022-07-12_16h35.24.445,ABstudy,2022.1.4,59.90133055801126,
AB,Lag1_T1P_T2P,1,P,P,5,6,4,5,11,shark,Did you see the shark?,0.12,0.016,JPG\,cucumber,sponge01,alligator,pear01,greatwhiteshark,stapler06,clock04,battery02b,fork03c,binoculars01b,mushroom01,blankImage,blankImage,blankImage,blankImage,blankImage,blankImage,greatwhiteshark,,,,,,,,,,,,0,63,63,84,,,,,,,,,,,,,,,,,,,,,,,,,,,,,,,,,,,566.499468700029,567.5134123000316,567.4967167000286,568.1257436000742,568.0502928001806,None,569.4039442001376,None,left,0.6897456001024693,569.4039442001376,None,570.1186894001439,None,right,0.43900350015610456,570.1186894001439,None,,,,,,,,,,,,,,,,,,,,,,,PPT52,001,2022-07-12_16h35.24.445,ABstudy,2022.1.4,59.90133055801126,
AB,Lag1_T1P_T2P,1,P,P,7,8,6,3,11,locker,Did you see the locker?,0.12,0.016,JPG\,toiletpaper01a,lipstick02a,potato02b,speaker04,globe,strawberry,locker,stapler04b,sock01a,candle08b,pen04b,blankImage,blankImage,blankImage,blankImage,blankImage,blankImage,locker,,,,,,,,,,,,0,64,64,19,,,,,,,,,,,,,,,,,,,,,,,,,,,,,,,,,,,570.592624100158,571.6004924001172,571.5837971000001,572.1711517001968,572.1711517001968,None,573.5244474001229,None,left,0.9448665000963956,573.5244474001229,None,574.4870432000607,None,left,0.6460216999985278,574.4870432000607,None,,,,,,,,,,,,,,,,,,,,,,,PPT52,001,2022-07-12_16h35.24.445,ABstudy,2022.1.4,59.90133055801126,
AB,Lag5_T1P_T2P,5,P,P,5,10,4,3,13,Rabbit,Did you see the Rabbit?,0.12,0.016,JPG\,celery,tennisball01b,calculator01,pear01,jackrabbit,orange,button01,cellphone,onion,stapler06,iron01b,brownsugar,banana01,blankImage,blankImage,blankImage,blankImage,jackrabbit,,,,,,,,,,,,0,65,65,90,,,,,,,,,,,,,,,,,,,,,,,,,,,,,,,,,,,575.1639825000893,576.1718527001794,576.1551371000241,576.7384816000704,576.7384816000704,None,578.361156700179,None,left,0.5726431999355555,578.361156700179,None,578.9575440001208,None,left,0.8719271998852491,578.9575440001208,None,,,,,,,,,,,,,,,,,,,,,,,PPT52,001,2022-07-12_16h35.24.445,ABstudy,2022.1.4,59.90133055801126,
AB,Lag5_T1P_T2P,5,P,P,5,10,4,5,15,Safe,Did you see the Safe?,0.12,0.016,JPG\,candle01,shirt02,brick,orange,safe,toothbrush03b,pizza,thermometer02b,book01b,stapler01,sewingmachine01a,toaster01,candy,cymbal,potato02b,blankImage,blankImage,safe,,,,,,,,,,,,0,66,66,159,,,,,,,,,,,,,,,,,,,,,,,,,,,,,,,,,,,579.8643542001955,580.87657520012,580.8597892001271,581.4430761002004,581.4430761002004,None,583.2786445000675,None,left,0.5581447000149637,583.2786445000675,None,583.8623137001414,None,left,0.4632145999930799,583.8623137001414,None,,,,,,,,,,,,,,,,,,,,,,,PPT52,001,2022-07-12_16h35.24.445,ABstudy,2022.1.4,59.90133055801126,
AB,Lag1_T1P_T2P,1,P,P,7,8,6,4,12,trophy,Did you see the trophy?,0.12,0.016,JPG\,cherry01,cymbal,envelope03a,foosballtable,shirt02,cellphone,trophy01,stapler04b,battery02b,apple07,pencil01,screwdriver04b,blankImage,blankImage,blankImage,blankImage,blankImage,trophy01,,,,,,,,,,,,0,67,67,74,,,,,,,,,,,,,,,,,,,,,,,,,,,,,,,,,,,584.3552698001731,585.3641270000953,585.3474026001059,585.9455746000167,585.9455746000167,None,587.3789656001609,None,left,1.5226333001628518,587.3789656001609,None,588.9343537001405,None,left,1.407115399837494,588.9343537001405,None,,,,,,,,,,,,,,,,,,,,,,,PPT52,001,2022-07-12_16h35.24.445,ABstudy,2022.1.4,59.90133055801126,
AB,Lag5_T1P_T2A,5,P,A,8,13,7,4,17,Tarantula,Did you see the Tarantula?,0.12,0.016,JPG\,binoculars01b,speaker04,sandal,envelope03a,plate01b,comb02a,battery02b,tarantula,measuringcup01,key01,medal02b,lamp04a,tennisball01b,pizza,cigarette,sunglasses04,blankImage,tarantula,,,,,,,,,,,,0,68,68,201,,,,,,,,,,,,,,,,,,,,,,,,,,,,,,,,,,,590.3713429002091,591.3867812000681,591.3534395000897,591.9378646002151,591.9378646002151,None,593.8698049001396,None,left,1.9511094999033958,593.8698049001396,None,595.8416584001388,None,right,0.7476754998788238,595.8416584001388,None,,,,,,,,,,,,,,,,,,,,,,,PPT52,001,2022-07-12_16h35.24.445,ABstudy,2022.1.4,59.90133055801126,
AB,Lag5_T1A_T2P,5,A,P,7,12,6,5,17,funnel,Did you see the funnel?,0.12,0.016,JPG\,iron01b,orange,birthdaycandle,potato02b,cauliflower01,pencil01,key01,candle08b,celery,tableknife02,pen04b,stapler04b,ring01,rice,lemon02,tomato01,blankImage,englishcucumber,,,,,,,,,,,,0,69,69,259,,,,,,,,,,,,,,,,,,,,,,,,,,,,,,,,,,,596.6129722001497,597.6265134999994,597.6097896001302,598.1935343001969,598.1935343001969,None,600.130713300081,None,right,1.546653299825266,600.130713300081,None,601.6970895000268,None,left,0.8359268999192864,601.6970895000268,None,,,,,,,,,,,,,,,,,,,,,,,PPT52,001,2022-07-12_16h35.24.445,ABstudy,2022.1.4,59.90133055801126,
AB,Lag1_T1P_T2P,1,P,P,8,9,7,4,13,ladder,Did you see the ladder?,0.12,0.016,JPG\,cigarette,fork03c,greenolive,broccoli01a,avocado01,tennisball01b,balloon01b,ladder,stapler03b,fan,clock01a,strawberry,envelope03a,blankImage,blankImage,blankImage,blankImage,ladder,,,,,,,,,,,,0,70,70,45,,,,,,,,,,,,,,,,,,,,,,,,,,,,,,,,,,,602.566851900192,603.5823405000847,603.5489382001106,604.1210266000126,604.1210266000126,None,605.7224961000029,None,left,2.482572600012645,605.7224961000029,None,608.2371897001285,None,left,1.1277183000929654,608.2371897001285,None,,,,,,,,,,,,,,,,,,,,,,,PPT52,001,2022-07-12_16h35.24.445,ABstudy,2022.1.4,59.90133055801126,
AB,Lag1_T1P_T2P,1,P,P,7,8,6,5,13,disco ball,Did you see the disco ball?,0.12,0.016,JPG\,candle01,paintbrush01,scissors01,fan,microscope,toothbrush03b,discoball,stapler03b,teabag,pencil01,lemon02,ashtray01,shirt02,blankImage,blankImage,blankImage,blankImage,discoball,,,,,,,,,,,,0,71,71,60,,,,,,,,,,,,,,,,,,,,,,,,,,,,,,,,,,,609.4548364002258,610.4559051000979,610.4392371000722,611.0235670001712,611.0235670001712,None,612.5899465000257,None,left,0.6955238999798894,612.5899465000257,None,613.3086261001881,None,left,0.6656871000304818,613.3086261001881,None,,,,,,,,,,,,,,,,,,,,,,,PPT52,001,2022-07-12_16h35.24.445,ABstudy,2022.1.4,59.90133055801126,
AB,Lag1_T1A_T2P,1,A,P,8,9,7,3,12,porcupine,Did you see the porcupine?,0.12,0.016,JPG\,celery,orange,scissors01,balloon01b,avocado01,printer02,mushroom01,sewingmachine01a,stapler01,dice05a,ashtray01,fan,blankImage,blankImage,blankImage,blankImage,blankImage,drumstick,,,,,,,,,,,,0,72,72,233,,,,,,,,,,,,,,,,,,,,,,,,,,,,,,,,,,,613.9955962002277,615.0103333001025,614.9770146000665,615.5812254000921,615.5812254000921,None,617.0362590001896,None,right,4.80064809997566,617.0362590001896,None,621.8673804001883,None,left,0.4256617999635637,621.8673804001883,None,,,,,,,,,,,,,,,,,,,,,,,PPT52,001,2022-07-12_16h35.24.445,ABstudy,2022.1.4,59.90133055801126,
AB,Lag5_T1P_T2A,5,P,A,8,13,7,5,18,Nunchuks,Did you see the Nunchuks?,0.12,0.016,JPG\,celery,tennisball01b,calculator01,pear01,screw02,orange,button01,nunchuk,onion,apple07,iron01b,brownsugar,banana01,paintbrush01,dandelion,toothbrush03b,blankImage,nunchuk,,,,,,,,,,,,0,73,73,218,,,,,,,,,,,,,,,,,,,,,,,,,,,,,,,,,,,622.364588299999,623.3690619000699,623.3524136000779,623.9206437000539,623.9206437000539,None,625.816589300055,None,left,1.0925070000812411,625.816589300055,None,626.9388910001144,None,left,0.6584397999104112,626.9388910001144,None,,,,,,,,,,,,,,,,,,,,,,,PPT52,001,2022-07-12_16h35.24.445,ABstudy,2022.1.4,59.90133055801126,
AB,Lag5_T1P_T2A,5,P,A,7,12,6,5,17,flower,Did you see the flower?,0.12,0.016,JPG\,cellphone,tomato01,comb02a,candy,celery,cucumber,craneflower,fan,feather03a,pen04b,lemon02,blueberry01,plate01b,cherry01,baseball01a,candle08b,blankImage,craneflower,,,,,,,,,,,,0,74,74,211,,,,,,,,,,,,,,,,,,,,,,,,,,,,,,,,,,,627.625177500071,628.6405599000864,628.6072297000792,629.186562300194,629.186562300194,None,631.2022085001227,None,right,1.5470149000175297,631.2022085001227,None,632.7779883001931,None,left,0.46721419994719326,632.7779883001931,None,,,,,,,,,,,,,,,,,,,,,,,PPT52,001,2022-07-12_16h35.24.445,ABstudy,2022.1.4,59.90133055801126,
AB,Lag1_T1P_T2P,1,P,P,7,8,6,3,11,trampoline,Did you see the trampoline?,0.12,0.016,JPG\,dice05a,watch02a,pig,lighter01,button01,strawberry,trampoline,stapler03a,plate01b,pen04b,feather03a,blankImage,blankImage,blankImage,blankImage,blankImage,blankImage,trampoline,,,,,,,,,,,,0,75,75,73,,,,,,,,,,,,,,,,,,,,,,,,,,,,,,,,,,,633.26489950018,634.279486700194,634.2461241001729,634.8264920001384,634.8264920001384,None,636.2074993001297,None,left,1.045272400137037,636.2074993001297,None,637.2824739001226,None,left,0.39511900022625923,637.2824739001226,None,,,,,,,,,,,,,,,,,,,,,,,PPT52,001,2022-07-12_16h35.24.445,ABstudy,2022.1.4,59.90133055801126,
AB,Lag5_T1P_T2P,5,P,P,6,11,5,5,16,sword,Did you see the sword?,0.12,0.016,JPG\,chain01,speaker04,avocado01,watermelon01,scarf,sword01,lamp04a,fork03c,toaster01,slipper03b,stapler03a,cucumber,teabag,ashtray01,computerkeyboard02,book01b,blankImage,sword01,,,,,,,,,,,,0,76,76,143,,,,,,,,,,,,,,,,,,,,,,,,,,,,,,,,,,,637.7018752000295,638.7173015000299,638.6838812001515,639.2571095000021,639.2571095000021,None,641.2170548001304,None,left,0.7007087001111358,641.2170548001304,None,641.9375445002224,None,left,0.41148369992151856,641.9375445002224,None,,,,,,,,,,,,,,,,,,,,,,,PPT52,001,2022-07-12_16h35.24.445,ABstudy,2022.1.4,59.90133055801126,
AB,Lag5_T1P_T2A,5,P,A,5,10,4,3,13,pin,Did you see the pin?,0.12,0.016,JPG\,candle01,fork03c,plate01b,violin,pin,candy,calculator01,paintbrush01,cherry01,sock01a,teabag,banana01,cd,blankImage,blankImage,blankImage,blankImage,pin,,,,,,,,,,,,0,77,77,215,,,,,,,,,,,,,,,,,,,,,,,,,,,,,,,,,,,642.3760373000987,643.3887883001007,643.3719912001397,643.956301300088,643.956301300088,None,645.580868100049,None,right,1.3047461998648942,645.580868100049,None,646.9096705000848,None,right,0.5680901000741869,646.9096705000848,None,,,,,,,,,,,,,,,,,,,,,,,PPT52,001,2022-07-12_16h35.24.445,ABstudy,2022.1.4,59.90133055801126,
AB,Lag5_T1P_T2P,5,P,P,7,12,6,3,15,mail box,Did you see the mail box?,0.12,0.016,JPG\,key01,apple07,ring01,leaf02a,hammer01,tableknife02,postalmailbox01,sponge01,baseball01a,thermometer02b,celery,stapler06,grape01,cucumber,tennisball01b,blankImage,blankImage,postalmailbox01,,,,,,,,,,,,0,78,78,113,,,,,,,,,,,,,,,,,,,,,,,,,,,,,,,,,,,647.5170138000976,648.5275941002183,648.5119439000264,649.0979485001881,649.0979485001881,None,650.9202013001777,None,left,0.5580980000086129,650.9202013001777,None,651.496620700229,None,left,0.65264209988527,651.496620700229,None,,,,,,,,,,,,,,,,,,,,,,,PPT52,001,2022-07-12_16h35.24.445,ABstudy,2022.1.4,59.90133055801126,
AB,Lag5_T1P_T2P,5,P,P,5,10,4,5,15,hockey puck,Did you see the hockey puck?,0.12,0.016,JPG\,chain01,pen04b,birthdaycandle,watermelon01,hockeypuck,scissors01,measuringcup01,candle01,hammer01,stapler06,ashtray01,feather03a,sewingmachine01a,thermometer02b,alligator,blankImage,blankImage,hockeypuck,,,,,,,,,,,,0,79,79,110,,,,,,,,,,,,,,,,,,,,,,,,,,,,,,,,,,,652.1840380001813,653.1983773000538,653.1816918000113,653.7582825000864,653.7582825000864,None,655.5020314001013,None,left,1.2712367000058293,655.5020314001013,None,656.8029903999995,None,left,0.4276331001892686,656.8029903999995,None,,,,,,,,,,,,,,,,,,,,,,,PPT52,001,2022-07-12_16h35.24.445,ABstudy,2022.1.4,59.90133055801126,
AB,Lag5_T1P_T2A,5,P,A,5,10,4,3,13,martini glass,Did you see the martini glass?,0.12,0.016,JPG\,brick,eraser,cucumber,ashtray01,martiniglass01b,binoculars01b,lipstick02a,screwdriver04b,grape01,brownsugar,battery02b,iron01b,dice05a,blankImage,blankImage,blankImage,blankImage,martiniglass01b,,,,,,,,,,,,0,80,80,217,,,,,,,,,,,,,,,,,,,,,,,,,,,,,,,,,,,657.2594676001463,658.2703866001684,658.2536763001699,658.8484939001501,658.8484939001501,None,660.422823500121,None,left,0.7822750001214445,660.422823500121,None,661.2229938001838,None,left,0.4697718999814242,661.2229938001838,None,,,,,,,,,,,,,,,,,,,,,,,PPT52,001,2022-07-12_16h35.24.445,ABstudy,2022.1.4,59.90133055801126,
AB,Lag1_T1A_T2P,1,A,P,7,8,6,3,11,Fox,Did you see the Fox?,0.12,0.016,JPG\,toaster01,chain01,sponge01,baseball01a,carrot01,belt02a,book01b,stapler03b,grape01,brick,celery,blankImage,blankImage,blankImage,blankImage,blankImage,blankImage,fingerprint,,,,,,,,,,,,0,81,81,234,,,,,,,,,,,,,,,,,,,,,,,,,,,,,,,,,,,661.7287248000503,662.7412106001284,662.7244723001495,663.3109480000567,663.3109480000567,None,664.6392405000515,None,right,0.757447199895978,664.6392405000515,None,665.4276750001591,None,right,0.5769210997968912,665.4276750001591,None,,,,,,,,,,,,,,,,,,,,,,,PPT52,001,2022-07-12_16h35.24.445,ABstudy,2022.1.4,59.90133055801126,
AB,Lag5_T1P_T2P,5,P,P,5,10,4,3,13,Jellyfish,Did you see the Jellyfish?,0.12,0.016,JPG\,printer02,envelope03a,potato02b,calculator01,jellyfish,cigarette,ashtray01,pig,broom01,stapler06,candle08b,battery02b,strawberry,blankImage,blankImage,blankImage,blankImage,jellyfish,,,,,,,,,,,,0,82,82,91,,,,,,,,,,,,,,,,,,,,,,,,,,,,,,,,,,,666.0386661000084,667.0455234001856,667.0287757001352,667.6342184001114,667.6342184001114,None,669.2238026000559,None,right,1.3738927999511361,669.2238026000559,None,670.6157170000952,None,left,0.5260006999596953,670.6157170000952,None,,,,,,,,,,,,,,,,,,,,,,,PPT52,001,2022-07-12_16h35.24.445,ABstudy,2022.1.4,59.90133055801126,
AB,Lag1_T1P_T2P,1,P,P,8,9,7,3,12,Wheelchair,Did you see the Wheelchair?,0.12,0.016,JPG\,cigarette,pig,banana01,strawberry,clock01a,plate01b,spoon01,wheelchair,stapler03b,pineapple01a,chain01,paintbrush01,blankImage,blankImage,blankImage,blankImage,blankImage,wheelchair,,,,,,,,,,,,0,83,83,27,,,,,,,,,,,,,,,,,,,,,,,,,,,,,,,,,,,671.1688603002112,672.1838795000222,672.1505286002066,672.7199366001878,672.7199366001878,None,674.1738407001831,None,left,0.7114496000576764,674.1738407001831,None,674.9042644000147,None,left,0.4606228999327868,674.9042644000147,None,,,,,,,,,,,,,,,,,,,,,,,PPT52,001,2022-07-12_16h35.24.445,ABstudy,2022.1.4,59.90133055801126,
AB,Lag5_T1A_T2P,5,A,P,5,10,4,4,14,duck,Did you see the duck?,0.12,0.016,JPG\,brick,eraser,cucumber,ashtray01,thermometer02b,binoculars01b,lipstick02a,screwdriver04b,grape01,stapler04b,battery02b,iron01b,dice05a,avocado01,blankImage,blankImage,blankImage,barrel01,,,,,,,,,,,,0,84,84,280,,,,,,,,,,,,,,,,,,,,,,,,,,,,,,,,,,,675.4384484000038,676.4382087001577,676.4382087001577,677.0780672000255,677.0047613000497,None,678.6924582000356,None,right,0.8970158000010997,678.6924582000356,None,679.6083630002104,None,left,0.48443389986641705,679.6083630002104,None,,,,,,,,,,,,,,,,,,,,,,,PPT52,001,2022-07-12_16h35.24.445,ABstudy,2022.1.4,59.90133055801126,
AB,Lag1_T1A_T2P,1,A,P,8,9,7,3,12,seal,Did you see the seal?,0.12,0.016,JPG\,dice05a,watch02a,pig,lighter01,button01,strawberry,paintbrush01,microscope,stapler03a,pen04b,feather03a,8ball,blankImage,blankImage,blankImage,blankImage,blankImage,hockeystick,,,,,,,,,,,,0,85,85,235,,,,,,,,,,,,,,,,,,,,,,,,,,,,,,,,,,,680.1275864001364,681.1430308001582,681.1095445000101,681.7344714000355,681.7344714000355,None,683.1481598000973,None,right,1.2646568999625742,683.1481598000973,None,684.4294049001765,None,left,0.5202518999576569,684.4294049001765,None,,,,,,,,,,,,,,,,,,,,,,,PPT52,001,2022-07-12_16h35.24.445,ABstudy,2022.1.4,59.90133055801126,
AB,Lag1_T1P_T2P,1,P,P,6,7,5,3,10,handcuffs,Did you see the handcuffs?,0.12,0.016,JPG\,sewingmachine01a,scarf,carrot01,book01b,eraser,handcuffs,stapler05,lipstick02a,printer02,garlic01a,blankImage,blankImage,blankImage,blankImage,blankImage,blankImage,blankImage,handcuffs,,,,,,,,,,,,0,86,86,2,,,,,,,,,,,,,,,,,,,,,,,,,,,,,,,,,,,684.9822512001265,685.9976910001133,685.9643355000298,686.55294590001,686.55294590001,None,687.8310187000316,None,left,0.6944929000455886,687.8310187000316,None,688.5505504000466,None,right,1.0701947999186814,688.5505504000466,None,,,,,,,,,,,,,,,,,,,,,,,PPT52,001,2022-07-12_16h35.24.445,ABstudy,2022.1.4,59.90133055801126,
AB,Lag5_T1P_T2P,5,P,P,8,13,7,5,18,pipe,Did you see the pipe?,0.12,0.016,JPG\,scissors01,ashtray01,garlic01a,medal02b,cigarette,candle08b,leaf02a,smokingpipe,cucumber,rice,toiletpaper01a,greenolive,stapler01,cellphone,tableknife02,spoon01,blankImage,smokingpipe,,,,,,,,,,,,0,87,87,138,,,,,,,,,,,,,,,,,,,,,,,,,,,,,,,,,,,689.6535064000636,690.6689877000172,690.6356257000007,691.2048058002256,691.2048058002256,None,693.1681020001415,None,left,0.5007869999390095,693.1681020001415,None,693.6890010000207,None,left,0.484926899895072,693.6890010000207,None,,,,,,,,,,,,,,,,,,,,,,,PPT52,001,2022-07-12_16h35.24.445,ABstudy,2022.1.4,59.90133055801126,
AB,Lag1_T1P_T2P,1,P,P,6,7,5,3,10,drum sticks,Did you see the drum sticks?,0.12,0.016,JPG\,pineapple01a,tennisball01b,computerkeyboard02,feather03a,belt02a,drumstick,stapler03b,blueberry01,medal02b,alligator,blankImage,blankImage,blankImage,blankImage,blankImage,blankImage,blankImage,drumstick,,,,,,,,,,,,0,88,88,61,,,,,,,,,,,,,,,,,,,,,,,,,,,,,,,,,,,694.2599292001687,695.2737781000324,695.2570065001491,695.8611703000497,695.8611703000497,None,696.9141972002108,None,left,1.0585580000188202,696.9141972002108,None,697.9934681002051,None,right,0.3955038997810334,697.9934681002051,None,,,,,,,,,,,,,,,,,,,,,,,PPT52,001,2022-07-12_16h35.24.445,ABstudy,2022.1.4,59.90133055801126,
AB,Lag1_T1P_T2P,1,P,P,6,7,5,3,10,windmill,Did you see the windmill?,0.12,0.016,JPG\,pizza,printer02,medal02b,spoon01,grape01,windmill,stapler04b,watermelon01,celery,battery02b,blankImage,blankImage,blankImage,blankImage,blankImage,blankImage,blankImage,windmill,,,,,,,,,,,,0,89,89,75,,,,,,,,,,,,,,,,,,,,,,,,,,,,,,,,,,,698.4140551001765,699.427901300136,699.4111541002057,700.0182065002155,700.0182065002155,None,701.1973126002122,None,left,0.8641470998991281,701.1973126002122,None,702.080776900053,None,right,0.6200986998155713,702.080776900053,None,,,,,,,,,,,,,,,,,,,,,,,PPT52,001,2022-07-12_16h35.24.445,ABstudy,2022.1.4,59.90133055801126,
AB,Lag5_T1P_T2P,5,P,P,5,10,4,4,14,Salt shaker,Did you see the Salt shaker?,0.12,0.016,JPG\,fork03c,belt02a,grape01,computerkeyboard02,saltshaker03a,printer02,broom01,toiletpaper01a,toaster01,stapler01,book01b,blueberry01,spoon01,apple07,blankImage,blankImage,blankImage,saltshaker03a,,,,,,,,,,,,0,90,90,96,,,,,,,,,,,,,,,,,,,,,,,,,,,,,,,,,,,702.7768346001394,703.7822571001016,703.765455200104,704.3492253001314,704.3492253001314,None,706.0596145000309,None,left,1.7367875000927597,706.0596145000309,None,707.8193563001696,None,left,2.6336336000822484,707.8193563001696,None,,,,,,,,,,,,,,,,,,,,,,,PPT52,001,2022-07-12_16h35.24.445,ABstudy,2022.1.4,59.90133055801126,
AB,Lag1_T1A_T2P,1,A,P,6,7,5,5,12,Ostrich,Did you see the Ostrich?,0.12,0.016,JPG\,thermometer02b,candle08b,comb02a,toothbrush03b,brick,computerkeyboard02,stapler05,pineapple01a,candy,birthdaycandle,clock04,hairclip03,blankImage,blankImage,blankImage,blankImage,blankImage,discoball,,,,,,,,,,,,0,91,91,232,,,,,,,,,,,,,,,,,,,,,,,,,,,,,,,,,,,710.475649200147,711.4897287001368,711.4730142001063,712.0514907001052,712.0514907001052,None,713.5392630000133,None,right,0.9213465000502765,713.5392630000133,None,714.4928023000248,None,left,0.7765945999417454,714.4928023000248,None,,,,,,,,,,,,,,,,,,,,,,,PPT52,001,2022-07-12_16h35.24.445,ABstudy,2022.1.4,59.90133055801126,
AB,Lag1_T1P_T2P,1,P,P,8,9,7,4,13,Hula hoop,Did you see the Hula hoop?,0.12,0.016,JPG\,brownsugar,candle01,match,printer02,broom01,balloon01b,belt02a,hulahoop,stapler04b,feather03a,rice,mushroom01,pencil01,blankImage,blankImage,blankImage,blankImage,hulahoop,,,,,,,,,,,,0,92,92,64,,,,,,,,,,,,,,,,,,,,,,,,,,,,,,,,,,,715.3006587000564,716.3118311001454,716.296154800104,716.7980568001512,716.7980568001512,None,718.4426151001826,None,left,0.5538625998888165,718.4426151001826,None,719.0137049001642,None,left,1.0636340999044478,719.0137049001642,None,,,,,,,,,,,,,,,,,,,,,,,PPT52,001,2022-07-12_16h35.24.445,ABstudy,2022.1.4,59.90133055801126,
AB,Lag1_T1P_T2P,1,P,P,5,6,4,4,10,Ladybug,Did you see the Ladybug?,0.12,0.016,JPG\,key01,apple07,ring01,leaf02a,ladybug03,stapler04b,violin,sponge01,baseball01a,thermometer02b,blankImage,blankImage,blankImage,blankImage,blankImage,blankImage,blankImage,ladybug03,,,,,,,,,,,,0,93,93,65,,,,,,,,,,,,,,,,,,,,,,,,,,,,,,,,,,,720.103421700187,721.1161670000292,721.0993577002082,721.7160484001506,721.7160484001506,None,722.8808299000375,None,left,0.9237875000108033,722.8808299000375,None,723.8353197001852,None,right,0.35323530016466975,723.8353197001852,None,,,,,,,,,,,,,,,,,,,,,,,PPT52,001,2022-07-12_16h35.24.445,ABstudy,2022.1.4,59.90133055801126,
AB,Lag1_T1P_T2P,1,P,P,8,9,7,3,12,snow globe,Did you see the Snow globe?,0.12,0.016,JPG\,eraser,measuringcup01,chain01,birthdaycandle,ring01,rice,8ball,stapler04b,stapler01,celery,microscope,sunglasses04,blankImage,blankImage,blankImage,blankImage,blankImage,snowglobe,,,,,,,,,,,,0,94,94,56,,,,,,,,,,,,,,,,,,,,,,,,,,,,,,,,,,,724.2213278000709,725.2364202002063,725.2034740000963,725.7869871000294,725.7869871000294,None,727.2735428002197,None,right,0.9794836998917162,727.2735428002197,None,728.27343450021,None,left,0.4354689000174403,728.27343450021,None,,,,,,,,,,,,,,,,,,,,,,,PPT52,001,2022-07-12_16h35.24.445,ABstudy,2022.1.4,59.90133055801126,
AB,Lag5_T1P_T2P,5,P,P,8,13,7,5,18,skis,Did you see the skis?,0.12,0.016,JPG\,tennisball01b,paintbrush01,medal02b,apple07,speaker04,iron01b,avocado01,downhillski,belt02a,toiletpaper01a,watermelon01,candle01,stapler01,cymbal,ashtray01,screwdriver04b,blankImage,downhillski,,,,,,,,,,,,0,95,95,106,,,,,,,,,,,,,,,,,,,,,,,,,,,,,,,,,,,728.7429579000454,729.7581229000352,729.7247171001509,730.3244987002108,730.3244987002108,None,732.2783278001007,None,left,1.4230599999427795,732.2783278001007,None,733.7313132002018,None,left,0.5140442000702024,733.7313132002018,None,,,,,,,,,,,,,,,,,,,,,,,PPT52,001,2022-07-12_16h35.24.445,ABstudy,2022.1.4,59.90133055801126,
AB,Lag5_T1P_T2P,5,P,P,6,11,5,5,16,keys,Did you see the keys?,0.12,0.016,JPG\,toiletpaper01a,mushroom01,medal02b,sandal,rice,foldingchair,feather03a,pizza,candle08b,garlic01a,stapler01,belt02a,cigarette,violin,lemon02,fork03c,blankImage,foldingchair,,,,,,,,,,,,0,96,96,125,,,,,,,,,,,,,,,,,,,,,,,,,,,,,,,,,,,734.2724643000402,735.2805596000981,735.2646659000311,735.8924103002064,735.8924103002064,None,737.7819236000068,None,right,1.2230197999160737,737.7819236000068,None,739.033765300177,None,left,0.7149878998752683,739.033765300177,None,,,,,,,,,,,,,,,,,,,,,,,PPT52,001,2022-07-12_16h35.24.445,ABstudy,2022.1.4,59.90133055801126,
AB,Lag1_T1P_T2P,1,P,P,6,7,5,5,12,Snowboard,Did you see the Snowboard?,0.12,0.016,JPG\,belt02a,measuringcup01,spoon01,chain01,greenolive,snowboard,stapler01,onion,fan,strawberry,candle01,broom01,blankImage,blankImage,blankImage,blankImage,blankImage,snowboard,,,,,,,,,,,,0,97,97,49,,,,,,,,,,,,,,,,,,,,,,,,,,,,,,,,,,,739.7704183000606,740.7855392000638,740.7521761001553,741.3315865001641,741.3315865001641,None,742.8207196001895,None,left,0.9693128999788314,742.8207196001895,None,743.8221220001578,None,left,1.1902039998676628,743.8221220001578,None,,,,,,,,,,,,,,,,,,,,,,,PPT52,001,2022-07-12_16h35.24.445,ABstudy,2022.1.4,59.90133055801126,
AB,Lag5_T1P_T2P,5,P,P,5,10,4,5,15,rake,Did you see the rake?,0.12,0.016,JPG\,scissors01,grape01,mushroom01,toiletpaper01a,leafrake,pizza,cigarette,ashtray01,carrot01,stapler03b,foosballtable,lipstick02a,teabag,acorn,potato02b,blankImage,blankImage,leafrake,,,,,,,,,,,,0,98,98,92,,,,,,,,,,,,,,,,,,,,,,,,,,,,,,,,,,,745.0431530000642,746.0577240001876,746.0243713001255,746.5854627001099,746.5854627001099,None,748.467413400067,None,left,0.7297227000817657,748.467413400067,None,749.2276537001599,None,right,0.8415825001429766,749.2276537001599,None,,,,,,,,,,,,,,,,,,,,,,,PPT52,001,2022-07-12_16h35.24.445,ABstudy,2022.1.4,59.90133055801126,
AB,Lag1_T1A_T2P,1,A,P,7,8,6,3,11,lion,Did you see the lion?,0.12,0.016,JPG\,sock01a,spoon01,alligator,comb02a,printer02,medal02b,lamp04a,stapler01,greenolive,computerkeyboard02,cauliflower01,blankImage,blankImage,blankImage,blankImage,blankImage,blankImage,bullet,,,,,,,,,,,,0,99,99,229,,,,,,,,,,,,,,,,,,,,,,,,,,,,,,,,,,,750.0977265001275,751.1126718001906,751.0792474001646,751.6684529001359,751.6684529001359,None,753.0011549000628,None,right,1.2114503998309374,753.0011549000628,None,754.2326409001835,None,left,0.5962224998511374,754.2326409001835,None,,,,,,,,,,,,,,,,,,,,,,,PPT52,001,2022-07-12_16h35.24.445,ABstudy,2022.1.4,59.90133055801126,
AB,Lag5_T1P_T2P,5,P,P,5,10,4,5,15,Ipad,Did you see the Ipad?,0.12,0.016,JPG\,fork03c,toothbrush03b,cellphone,fan,ipad02,clock01a,ring01,eraser,sunglasses04,stapler06,violin,brownsugar,blueberry01,pear01,pencil01,blankImage,blankImage,ipad02,,,,,,,,,,,,0,100,100,150,,,,,,,,,,,,,,,,,,,,,,,,,,,,,,,,,,,754.8572860001586,755.8674152002204,755.8506327001378,756.425770000089,756.425770000089,None,758.3114062000532,None,left,0.9177351000253111,758.3114062000532,None,759.2539094001986,None,left,0.7433368000201881,759.2539094001986,None,,,,,,,,,,,,,,,,,,,,,,,PPT52,001,2022-07-12_16h35.24.445,ABstudy,2022.1.4,59.90133055801126,
AB,Lag5_T1A_T2P,5,A,P,6,11,5,5,16,bed,Did you see the bed?,0.12,0.016,JPG\,cellphone,tomato01,comb02a,candy,celery,cucumber,toaster01,fan,feather03a,pen04b,stapler03b,blueberry01,plate01b,cherry01,baseball01a,candle08b,blankImage,toolbox02,,,,,,,,,,,,0,101,101,274,,,,,,,,,,,,,,,,,,,,,,,,,,,,,,,,,,,760.0236535000149,761.0393158001825,761.0057636001147,761.5952872000635,761.5952872000635,None,763.5293758001644,None,right,0.827533199917525,763.5293758001644,None,764.3760907000396,None,left,0.7249109998811036,764.3760907000396,None,,,,,,,,,,,,,,,,,,,,,,,PPT52,001,2022-07-12_16h35.24.445,ABstudy,2022.1.4,59.90133055801126,
AB,Lag1_T1P_T2P,1,P,P,5,6,4,3,9,hockey stick,Did you see the hockey stick?,0.12,0.016,JPG\,violin,pizza,toothbrush03b,pineapple01a,hockeystick,stapler03b,candy,dandelion,clock04,blankImage,blankImage,blankImage,blankImage,blankImage,blankImage,blankImage,blankImage,hockeystick,,,,,,,,,,,,0,102,102,63,,,,,,,,,,,,,,,,,,,,,,,,,,,,,,,,,,,765.1313501000404,766.1444590000901,766.1277928000782,766.70801700023,766.70801700023,None,767.87958360021,None,left,1.181160100037232,767.87958360021,None,769.0807172001805,None,left,0.579811800038442,769.0807172001805,None,,,,,,,,,,,,,,,,,,,,,,,PPT52,001,2022-07-12_16h35.24.445,ABstudy,2022.1.4,59.90133055801126,
AB,Lag1_T1A_T2A,1,A,A,8,9,7,4,13,sword fish,Did you see the sword fish?,0.12,0.016,JPG\,pizza,strawberry,potato02b,speaker04,battery02b,iron01b,dice05a,cellphone,globe,banana01,medal02b,baseball01a,toaster01,blankImage,blankImage,blankImage,blankImage,ear,,,,,,,,,,,,0,103,103,295,,,,,,,,,,,,,,,,,,,,,,,,,,,,,,,,,,,769.6860682000406,770.6988191001583,770.6821345000062,771.3145723000634,771.3145723000634,None,772.8517696000636,None,right,1.2967650999780744,772.8517696000636,None,774.1687916000374,None,right,0.555578799918294,774.1687916000374,None,,,,,,,,,,,,,,,,,,,,,,,PPT52,001,2022-07-12_16h35.24.445,ABstudy,2022.1.4,59.90133055801126,
AB,Lag1_T1P_T2P,1,P,P,5,6,4,5,11,Guitar case,Did you see the Guitar case?,0.12,0.016,JPG\,broccoli01a,scissors01,toothbrush03b,foosballtable,guitarcase,stapler05,hammer01,toiletpaper01a,cd,garlic01a,carrot01,blankImage,blankImage,blankImage,blankImage,blankImage,blankImage,guitarcase,,,,,,,,,,,,0,104,104,14,,,,,,,,,,,,,,,,,,,,,,,,,,,,,,,,,,,774.7598628001288,775.7706294001546,775.754034000216,776.3424089001492,776.3424089001492,None,777.689272900112,None,left,0.7876626998186111,777.689272900112,None,778.5064060001168,None,left,1.9219669001176953,778.5064060001168,None,,,,,,,,,,,,,,,,,,,,,,,PPT52,001,2022-07-12_16h35.24.445,ABstudy,2022.1.4,59.90133055801126,
AB,Lag5_T1P_T2P,5,P,P,6,11,5,5,16,scooter,Did you see the scooter?,0.12,0.016,JPG\,thermometer02b,candle08b,comb02a,toothbrush03b,brick,scooter,key01,pineapple01a,candy,birthdaycandle,stapler04b,canoftennisballs,teabag,medal02b,balloon01b,banana01,blankImage,scooter,,,,,,,,,,,,0,105,105,118,,,,,,,,,,,,,,,,,,,,,,,,,,,,,,,,,,,780.4607378002256,781.4760481000412,781.4426745001692,782.0175100001507,782.0175100001507,None,784.0200172001496,None,left,2.1537664998322725,784.0200172001496,None,786.1976026000921,None,left,0.6550722999963909,786.1976026000921,None,,,,,,,,,,,,,,,,,,,,,,,PPT52,001,2022-07-12_16h35.24.445,ABstudy,2022.1.4,59.90133055801126,
AB,Lag5_T1P_T2P,5,P,P,6,11,5,3,14,Poker chips,Did you see the Poker chips?,0.12,0.016,JPG\,iron01b,brick,broccoli01a,balloon01b,tomato01,pokerchips,sandal,teabag,scissors01,pineapple01a,stapler04b,measuringcup01,sock01a,book01b,blankImage,blankImage,blankImage,pokerchips,,,,,,,,,,,,0,106,106,154,,,,,,,,,,,,,,,,,,,,,,,,,,,,,,,,,,,786.8852815001737,787.899111200124,787.8824626000132,788.4654074001592,788.4654074001592,None,790.1808396000415,None,left,0.5207815000321716,790.1808396000415,None,790.7185964002274,None,left,0.6302844998426735,790.7185964002274,None,,,,,,,,,,,,,,,,,,,,,,,PPT52,001,2022-07-12_16h35.24.445,ABstudy,2022.1.4,59.90133055801126,
AB,Lag1_T1P_T2P,1,P,P,7,8,6,4,12,Dog House,Did you see the Dog House?,0.12,0.016,JPG\,pineapple01a,leaf02a,grape01,toiletpaper01a,match,tennisball01b,doghouse,stapler03b,pig,measuringcup01,ring01,lemon02,blankImage,blankImage,blankImage,blankImage,blankImage,doghouse,,,,,,,,,,,,0,107,107,44,,,,,,,,,,,,,,,,,,,,,,,,,,,,,,,,,,,791.3724396000616,792.3869104001205,792.3535367001314,792.9356491002254,792.9356491002254,None,794.4370402002241,None,left,0.5755971998441964,794.4370402002241,None,795.0417036002036,None,right,0.33047379995696247,795.0417036002036,None,,,,,,,,,,,,,,,,,,,,,,,PPT52,001,2022-07-12_16h35.24.445,ABstudy,2022.1.4,59.90133055801126,
AB,Lag5_T1P_T2P,5,P,P,8,13,7,3,16,church,Did you see the church?,0.12,0.016,JPG\,clock01a,cellphone,toaster01,toothbrush03b,cauliflower01,microscope,comb02a,church,scarf,clock04,sponge01,iron01b,stapler06,celery,ring01,ashtray01,blankImage,church,,,,,,,,,,,,0,108,108,129,,,,,,,,,,,,,,,,,,,,,,,,,,,,,,,,,,,795.3921749000438,796.4075676000211,796.3742253000382,796.9592874001246,796.9592874001246,None,798.8952178000472,None,left,0.6855409999843687,798.8952178000472,None,799.6107440001797,None,left,0.32216300000436604,799.6107440001797,None,,,,,,,,,,,,,,,,,,,,,,,PPT52,001,2022-07-12_16h35.24.445,ABstudy,2022.1.4,59.90133055801126,
AB,Lag1_T1P_T2P,1,P,P,8,9,7,4,13,kite,Did you see the kite?,0.12,0.016,JPG\,scissors01,balloon01b,eraser,feather03a,banana01,candle01,measuringcup01,kite,stapler04b,strawberry,pear01,carrot01,globe,blankImage,blankImage,blankImage,blankImage,kite,,,,,,,,,,,,0,109,109,17,,,,,,,,,,,,,,,,,,,,,,,,,,,,,,,,,,,799.9633077001199,800.978817500174,800.9453974000644,801.5392375001684,801.5392375001684,None,803.1620438001119,None,left,0.4665999000426382,803.1620438001119,None,803.6509770001285,None,left,0.28280459996312857,803.6509770001285,None,,,,,,,,,,,,,,,,,,,,,,,PPT52,001,2022-07-12_16h35.24.445,ABstudy,2022.1.4,59.90133055801126,
AB,Lag5_T1P_T2A,5,P,A,5,10,4,4,14,Ship in a bottle,Did you see the Ship in a bottle?,0.12,0.016,JPG\,sewingmachine01a,thermometer02b,sponge01,eraser,shipinabottle,fork03c,pizza,violin,belt02a,medal02b,pineapple01a,tennisball01b,dandelion,cauliflower01,blankImage,blankImage,blankImage,shipinabottle,,,,,,,,,,,,0,110,110,208,,,,,,,,,,,,,,,,,,,,,,,,,,,,,,,,,,,803.9782975001726,804.9834148001391,804.9678929001093,805.5671563001815,805.5671563001815,None,807.276407300029,None,right,1.1443729000166059,807.276407300029,None,808.4533213002142,None,right,0.49562030006200075,808.4533213002142,None,,,,,,,,,,,,,,,,,,,,,,,PPT52,001,2022-07-12_16h35.24.445,ABstudy,2022.1.4,59.90133055801126,
AB,Lag5_T1P_T2A,5,P,A,6,11,5,3,14,toy truck,Did you see the toy truck?,0.12,0.016,JPG\,globe,belt02a,sponge01,violin,fork03c,bluecheese,clock01a,microscope,balloon01b,scarf,teabag,pen04b,brick,brownsugar,blankImage,blankImage,blankImage,bluecheese,,,,,,,,,,,,0,111,111,204,,,,,,,,,,,,,,,,,,,,,,,,,,,,,,,,,,,808.9764040000737,809.9880829001777,809.9713742001913,810.5512919002213,810.5512919002213,None,812.1588919002097,None,right,0.7895863999146968,812.1588919002097,None,812.9744178000838,None,right,0.550378599902615,812.9744178000838,None,,,,,,,,,,,,,,,,,,,,,,,PPT52,001,2022-07-12_16h35.24.445,ABstudy,2022.1.4,59.90133055801126,
AB,Lag5_T1P_T2P,5,P,P,8,13,7,3,16,shrimp,Did you see the shrimp?,0.12,0.016,JPG\,globe,belt02a,sponge01,violin,fork03c,tomato01,clock01a,cocktailshrimp02,balloon01b,scarf,teabag,pen04b,stapler03a,brownsugar,speaker04,screwdriver04b,blankImage,cocktailshrimp02,,,,,,,,,,,,0,112,112,169,,,,,,,,,,,,,,,,,,,,,,,,,,,,,,,,,,,813.5952833001502,814.6093287002295,814.5924555000383,815.1942569001112,815.1942569001112,None,817.0981149000581,None,left,0.8983370999339968,817.0981149000581,None,818.0290471001063,None,right,0.6232574000023305,818.0290471001063,None,,,,,,,,,,,,,,,,,,,,,,,PPT52,001,2022-07-12_16h35.24.445,ABstudy,2022.1.4,59.90133055801126,
AB,Lag5_T1P_T2A,5,P,A,5,10,4,3,13,Totem Pole,Did you see the Totem Pole?,0.12,0.016,JPG\,canoftennisballs,banana01,scissors01,pig,totempole,leaf02a,pear01,sponge01,fork03c,tableknife02,balloon01b,match,toothbrush03b,blankImage,blankImage,blankImage,blankImage,totempole,,,,,,,,,,,,0,113,113,202,,,,,,,,,,,,,,,,,,,,,,,,,,,,,,,,,,,818.6884184000082,819.6975344000384,819.6807826000731,820.2616814000066,820.2616814000066,None,821.8602649001405,None,left,0.5686411000788212,821.8602649001405,None,822.4528400001582,None,right,2.3915802999399602,822.4528400001582,None,,,,,,,,,,,,,,,,,,,,,,,PPT52,001,2022-07-12_16h35.24.445,ABstudy,2022.1.4,59.90133055801126,
AB,Lag5_T1P_T2P,5,P,P,8,13,7,3,16,Chefs hat,Did you see the Chefs hat?,0.12,0.016,JPG\,rice,watermelon01,tableknife02,scarf,computerkeyboard02,cauliflower01,battery02b,chefshat,book01b,sandal,sponge01,microscope,stapler01,fork03c,thermometer02b,apple07,blankImage,chefshat,,,,,,,,,,,,0,114,114,128,,,,,,,,,,,,,,,,,,,,,,,,,,,,,,,,,,,824.8714635001961,825.8869291001465,825.8535391001496,826.4281495001633,826.4281495001633,None,828.4279890002217,None,right,1.120646399911493,828.4279890002217,None,829.5740306000225,None,right,0.39974859985522926,829.5740306000225,None,,,,,,,,,,,,,,,,,,,,,,,PPT52,001,2022-07-12_16h35.24.445,ABstudy,2022.1.4,59.90133055801126,
AB,Lag5_T1A_T2P,5,A,P,5,10,4,4,14,mail box,Did you see the mail box?,0.12,0.016,JPG\,button01,celery,birthdaycandle,apple07,avocado01,tennisball01b,dice05a,teabag,clock01a,stapler05,tomato01,scarf,orange,battery02b,blankImage,blankImage,blankImage,jeep,,,,,,,,,,,,0,115,115,263,,,,,,,,,,,,,,,,,,,,,,,,,,,,,,,,,,,830.0577584002167,831.0587842001114,831.0427542000543,831.6101004001684,831.6101004001684,None,833.3256125000771,None,left,1.582418599864468,833.3256125000771,None,834.9296579000074,None,right,1.0028927000239491,834.9296579000074,None,,,,,,,,,,,,,,,,,,,,,,,PPT52,001,2022-07-12_16h35.24.445,ABstudy,2022.1.4,59.90133055801126,
AB,Lag5_T1P_T2P,5,P,P,5,10,4,3,13,bathtub,Did you see the bathtub?,0.12,0.016,JPG\,belt02a,sunglasses04,computerkeyboard02,cherry01,bathtub,eraser,watch02a,dice05a,blueberry01,stapler04b,match,leaf02a,iron01b,blankImage,blankImage,blankImage,blankImage,bathtub,,,,,,,,,,,,0,116,116,103,,,,,,,,,,,,,,,,,,,,,,,,,,,,,,,,,,,835.9672720001545,836.9815046000294,836.9646961002145,837.549558600178,837.549558600178,None,839.1689629000612,None,right,0.7248118000570685,839.1689629000612,None,839.9175409001764,None,right,1.0313275000080466,839.9175409001764,None,,,,,,,,,,,,,,,,,,,,,,,PPT52,001,2022-07-12_16h35.24.445,ABstudy,2022.1.4,59.90133055801126,
AB,Lag1_T1P_T2P,1,P,P,5,6,4,3,9,mail box,Did you see the mail box?,0.12,0.016,JPG\,watermelon01,banana01,ring01,pencil01,mailbox02,stapler04b,cucumber,thermometer02b,key01,blankImage,blankImage,blankImage,blankImage,blankImage,blankImage,blankImage,blankImage,mailbox02,,,,,,,,,,,,0,117,117,21,,,,,,,,,,,,,,,,,,,,,,,,,,,,,,,,,,,841.0463579001371,842.0532652002294,842.0364546000492,842.6352402002085,842.6352402002085,None,843.6802727000322,None,left,1.61274280003272,843.6802727000322,None,845.3232096000575,None,left,0.7687578999903053,845.3232096000575,None,,,,,,,,,,,,,,,,,,,,,,,PPT52,001,2022-07-12_16h35.24.445,ABstudy,2022.1.4,59.90133055801126,
AB,Lag5_T1P_T2P,5,P,P,5,10,4,5,15,scorpion,Did you see the scorpion?,0.12,0.016,JPG\,fan,tomato01,candy,screwdriver04b,scorpion,cd,thermometer02b,apple07,button01,stapler01,brownsugar,lighter01,clock01a,envelope03a,clock04,blankImage,blankImage,scorpion,,,,,,,,,,,,0,118,118,97,,,,,,,,,,,,,,,,,,,,,,,,,,,,,,,,,,,846.1305811000057,847.141818900127,847.1250603001099,847.6973824000452,847.6973824000452,None,849.5738233001903,None,left,0.5983273999299854,849.5738233001903,None,850.1966384002008,None,left,0.3520546997897327,850.1966384002008,None,,,,,,,,,,,,,,,,,,,,,,,PPT52,001,2022-07-12_16h35.24.445,ABstudy,2022.1.4,59.90133055801126,
AB,Lag1_T1P_T2P,1,P,P,7,8,6,4,12,rooster,Did you see the rooster?,0.12,0.016,JPG\,pizza,strawberry,potato02b,speaker04,battery02b,iron01b,rooster,stapler03b,globe,banana01,medal02b,baseball01a,blankImage,blankImage,blankImage,blankImage,blankImage,rooster,,,,,,,,,,,,0,119,119,69,,,,,,,,,,,,,,,,,,,,,,,,,,,,,,,,,,,850.5804636001121,851.5959110001568,851.5625248001888,852.1458653002046,852.1458653002046,None,853.6349899000488,None,left,2.705367699963972,853.6349899000488,None,856.3684653001837,None,left,3.4533853998873383,856.3684653001837,None,,,,,,,,,,,,,,,,,,,,,,,PPT52,001,2022-07-12_16h35.24.445,ABstudy,2022.1.4,59.90133055801126,
AB,Lag5_T1P_T2A,5,P,A,7,12,6,5,17,corn,Did you see the corn?,0.12,0.016,JPG\,avocado01,pingpongpaddle01c,match,cauliflower01,paintbrush01,clock01a,corn02,cd,balloon01b,cellphone,watch02a,pear01,toaster01,sponge01,orange,blueberry01,blankImage,corn02,,,,,,,,,,,,0,120,120,210,,,,,,,,,,,,,,,,,,,,,,,,,,,,,,,,,,,859.8562730001286,860.8717559000943,860.8383323000744,861.4256902001798,861.4256902001798,None,863.4130552001297,None,left,0.4884273000061512,863.4130552001297,None,863.9247663000133,None,left,0.32755120005458593,863.9247663000133,None,,,,,,,,,,,,,,,,,,,,,,,PPT52,001,2022-07-12_16h35.24.445,ABstudy,2022.1.4,59.90133055801126,
AB,Lag5_T1P_T2P,5,P,P,7,12,6,5,17,Pigeon,Did you see the Pigeon?,0.12,0.016,JPG\,strawberry,leaf02a,clock04,candle01,avocado01,paintbrush01,pigeon,brownsugar,ring01,lemon02,fork03c,stapler01,cauliflower01,tableknife02,tennisball01b,thermometer02b,blankImage,pigeon,,,,,,,,,,,,0,121,121,151,,,,,,,,,,,,,,,,,,,,,,,,,,,,,,,,,,,864.2751272001769,865.2764683000278,865.2597709000111,865.8555448001716,865.8555448001716,None,867.80594820017,None,left,0.47838530014269054,867.80594820017,None,868.3124708000105,None,left,0.5080945999361575,868.3124708000105,None,,,,,,,,,,,,,,,,,,,,,,,PPT52,001,2022-07-12_16h35.24.445,ABstudy,2022.1.4,59.90133055801126,
AB,Lag5_T1A_T2A,5,A,A,7,12,6,4,16,boxing glove,Did you see the boxing glove?,0.12,0.016,JPG\,cherry01,cymbal,envelope03a,foosballtable,shirt02,cellphone,sewingmachine01a,candle08b,battery02b,apple07,pencil01,screwdriver04b,strawberry,sunglasses04,feather03a,rice,blankImage,lollipop04,,,,,,,,,,,,0,122,122,296,,,,,,,,,,,,,,,,,,,,,,,,,,,,,,,,,,,868.88980860007,869.8977662001271,869.8643973001745,870.4482877000701,870.4482877000701,None,872.3744020001031,None,right,0.7820575998630375,872.3744020001031,None,873.1843089000322,None,right,0.7323452001437545,873.1843089000322,None,,,,,,,,,,,,,,,,,,,,,,,PPT52,001,2022-07-12_16h35.24.445,ABstudy,2022.1.4,59.90133055801126,
AB,Lag1_T1P_T2A,1,P,A,7,8,6,4,12,gorilla,Did you see the gorilla?,0.12,0.016,JPG\,scissors01,ashtray01,garlic01a,medal02b,cigarette,candle08b,gorilla,envelope03a,cucumber,rice,toiletpaper01a,greenolive,blankImage,blankImage,blankImage,blankImage,blankImage,gorilla,,,,,,,,,,,,0,123,123,189,,,,,,,,,,,,,,,,,,,,,,,,,,,,,,,,,,,873.9389110000338,874.952834200114,874.9360773002263,875.5745242000557,875.5055428000633,None,876.9443990001455,None,left,1.0754859999287874,876.9443990001455,None,878.0392356000375,None,right,0.3985631999094039,878.0392356000375,None,,,,,,,,,,,,,,,,,,,,,,,PPT52,001,2022-07-12_16h35.24.445,ABstudy,2022.1.4,59.90133055801126,
AB,Lag5_T1P_T2P,5,P,P,7,12,6,5,17,Badminton Racket,Did you see the Badminton Racket?,0.12,0.016,JPG\,paintbrush01,dice05a,watermelon01,broccoli01a,hammer01,leaf02a,badmintonracket,tennisball01b,lemon02,fan,lipstick02a,stapler04b,envelope03a,sponge01,foosballtable,orange,blankImage,badmintonracket,,,,,,,,,,,,0,124,124,163,,,,,,,,,,,,,,,,,,,,,,,,,,,,,,,,,,,878.5240420000628,879.5236194001045,879.5236194001045,880.1805582002271,880.1068195002154,None,882.0171478001866,None,left,0.9629690998699516,882.0171478001866,None,883.0106934001669,None,left,0.618640000000596,883.0106934001669,None,,,,,,,,,,,,,,,,,,,,,,,PPT52,001,2022-07-12_16h35.24.445,ABstudy,2022.1.4,59.90133055801126,
AB,Lag1_T1P_T2P,1,P,P,7,8,6,3,11,Moose,Did you see the Moose?,0.12,0.016,JPG\,sock01a,spoon01,alligator,comb02a,printer02,medal02b,moose,stapler03a,greenolive,computerkeyboard02,cauliflower01,blankImage,blankImage,blankImage,blankImage,blankImage,blankImage,moose,,,,,,,,,,,,0,125,125,67,,,,,,,,,,,,,,,,,,,,,,,,,,,,,,,,,,,883.6649780001026,884.6789676002227,884.662228600122,885.2917455001734,885.2917455001734,None,886.6070448001847,None,left,0.8288419998716563,886.6070448001847,None,887.4680045000277,None,right,1.1047793999314308,887.4680045000277,None,,,,,,,,,,,,,,,,,,,,,,,PPT52,001,2022-07-12_16h35.24.445,ABstudy,2022.1.4,59.90133055801126,
AB,Lag1_T1P_T2A,1,P,A,7,8,6,3,11,walkie talkie,Did you see the walkie talkie?,0.12,0.016,JPG\,teabag,envelope03a,cellphone,apple07,cauliflower01,orange,walkietalkie,book01b,hammer01,feather03a,toaster01,blankImage,blankImage,blankImage,blankImage,blankImage,blankImage,walkietalkie,,,,,,,,,,,,0,126,126,197,,,,,,,,,,,,,,,,,,,,,,,,,,,,,,,,,,,888.6020714000333,889.6172540001571,889.583991800202,890.1562213001307,890.1562213001307,None,891.5045293001458,None,left,0.9162989999167621,891.5045293001458,None,892.4534223000519,None,right,0.48648960003629327,892.4534223000519,None,,,,,,,,,,,,,,,,,,,,,,,PPT52,001,2022-07-12_16h35.24.445,ABstudy,2022.1.4,59.90133055801126,
AB,Lag1_T1A_T2P,1,A,P,8,9,7,5,14,clock,Did you see the clock?,0.12,0.016,JPG\,speaker04,sewingmachine01a,eraser,violin,globe,belt02a,sunglasses04,cymbal,stapler01,greenolive,alligator,pear01,watch02a,screwdriver04b,blankImage,blankImage,blankImage,peacock,,,,,,,,,,,,0,127,127,240,,,,,,,,,,,,,,,,,,,,,,,,,,,,,,,,,,,892.9737264001742,893.9884362001903,893.9717182000168,894.6930327001028,894.596093500033,None,896.3060312001035,None,right,1.2103122998960316,896.3060312001035,None,897.5425801000092,None,left,0.28572990000247955,897.5425801000092,None,,,,,,,,,,,,,,,,,,,,,,,PPT52,001,2022-07-12_16h35.24.445,ABstudy,2022.1.4,59.90133055801126,
AB,Lag5_T1P_T2P,5,P,P,5,10,4,5,15,penguin,Did you see the penguin?,0.12,0.016,JPG\,watermelon01,cigarette,pintofbeer,cymbal,penguin,feather03a,cherry01,broom01,battery02b,stapler05,baseball01a,iron01b,garlic01a,computerkeyboard02,pig,blankImage,blankImage,penguin,,,,,,,,,,,,0,128,128,137,,,,,,,,,,,,,,,,,,,,,,,,,,,,,,,,,,,897.8644365000073,898.8765627001412,898.859923100099,899.4590651001781,899.4590651001781,None,901.166998000117,None,left,0.6386621000710875,901.166998000117,None,901.8292077002116,None,left,0.3273059001658112,901.8292077002116,None,,,,,,,,,,,,,,,,,,,,,,,PPT52,001,2022-07-12_16h35.24.445,ABstudy,2022.1.4,59.90133055801126,
AB,Lag5_T1A_T2A,5,A,A,7,12,6,3,15,Christmas lights,Did you see the Christmas lights?,0.12,0.016,JPG\,toiletpaper01a,mushroom01,medal02b,sandal,rice,cd,feather03a,pizza,candle08b,garlic01a,toaster01,belt02a,cigarette,violin,lemon02,blankImage,blankImage,rockbass,,,,,,,,,,,,0,129,129,299,,,,,,,,,,,,,,,,,,,,,,,,,,,,,,,,,,,902.1838384000584,903.1974979001097,903.1807344001718,903.8102126000449,903.8102126000449,None,905.5488051001448,None,right,1.9515860001556575,905.5488051001448,None,907.5181656000204,None,left,0.6218898000661284,907.5181656000204,None,,,,,,,,,,,,,,,,,,,,,,,PPT52,001,2022-07-12_16h35.24.445,ABstudy,2022.1.4,59.90133055801126,
AB,Lag5_T1P_T2A,5,P,A,8,13,7,4,17,fountain,Did you see the fountain?,0.12,0.016,JPG\,printer02,envelope03a,potato02b,calculator01,tableknife02,cigarette,ashtray01,parkfountain,broom01,greenolive,candle08b,battery02b,strawberry,candle01,foosballtable,tennisball01b,blankImage,parkfountain,,,,,,,,,,,,0,130,130,219,,,,,,,,,,,,,,,,,,,,,,,,,,,,,,,,,,,908.1711827002,909.1865364001133,909.153101200005,909.755882000085,909.755882000085,None,911.7127579001244,None,left,0.811406800057739,911.7127579001244,None,912.5567934000865,None,right,0.23937340010888875,912.5567934000865,None,,,,,,,,,,,,,,,,,,,,,,,PPT52,001,2022-07-12_16h35.24.445,ABstudy,2022.1.4,59.90133055801126,
AB,Lag5_T1P_T2A,5,P,A,8,13,7,4,17,knife,Did you see the knife?,0.12,0.016,JPG\,lighter01,hammer01,spoon01,chain01,cymbal,sponge01,lipstick02a,knife03,pig,watermelon01,cauliflower01,lemon02,broccoli01a,tableknife02,tennisball01b,toothbrush03b,blankImage,knife03,,,,,,,,,,,,0,131,131,214,,,,,,,,,,,,,,,,,,,,,,,,,,,,,,,,,,,912.8277494001668,913.8413422000594,913.8246325000655,914.4127265000716,914.4127265000716,None,916.3494642002042,None,left,0.7265311998780817,916.3494642002042,None,917.0950341001153,None,right,0.4134623999707401,917.0950341001153,None,,,,,,,,,,,,,,,,,,,,,,,PPT52,001,2022-07-12_16h35.24.445,ABstudy,2022.1.4,59.90133055801126,
AB,Lag1_T1P_T2A,1,P,A,8,9,7,5,14,Ceiling fan,Did you see the Ceiling fan?,0.12,0.016,JPG\,cucumber,sponge01,alligator,pear01,ashtray01,hammer01,clock04,ceilingfan01,fork03c,binoculars01b,mushroom01,broccoli01a,leaf02a,acorn,blankImage,blankImage,blankImage,ceilingfan01,,,,,,,,,,,,0,132,132,183,,,,,,,,,,,,,,,,,,,,,,,,,,,,,,,,,,,917.5324988001958,918.545836500125,918.5291676002089,919.1390676000156,919.1390676000156,None,920.7744606002234,None,left,0.6934108999557793,920.7744606002234,None,921.498707300052,None,right,0.16935950005427003,921.498707300052,None,,,,,,,,,,,,,,,,,,,,,,,PPT52,001,2022-07-12_16h35.24.445,ABstudy,2022.1.4,59.90133055801126,
AB,Lag1_T1P_T2P,1,P,P,7,8,6,5,13,arrow,Did you see the arrow?,0.12,0.016,JPG\,pencil01,broccoli01a,button01,sponge01,watermelon01,lipstick02a,arrow02,stapler04b,lighter01,sock01a,spoon01,blueberry01,belt02a,blankImage,blankImage,blankImage,blankImage,arrow02,,,,,,,,,,,,0,133,133,76,,,,,,,,,,,,,,,,,,,,,,,,,,,,,,,,,,,921.7022356002126,922.7168219001032,922.6834728000686,923.2639161001425,923.2639161001425,None,924.8331177001819,None,left,0.6670588999986649,924.8331177001819,None,925.5338048001286,None,left,0.526502899825573,925.5338048001286,None,,,,,,,,,,,,,,,,,,,,,,,PPT52,001,2022-07-12_16h35.24.445,ABstudy,2022.1.4,59.90133055801126,
AB,Lag5_T1P_T2P,5,P,P,6,11,5,4,15,punching bag,Did you see the punching bag?,0.12,0.016,JPG\,foosballtable,cigarette,pen04b,birthdaycandle,hammer01,punchingbag,binoculars01b,chain01,potato02b,cauliflower01,stapler04b,ashtray01,scarf,cellphone,calculator01,blankImage,blankImage,punchingbag,,,,,,,,,,,,0,134,134,156,,,,,,,,,,,,,,,,,,,,,,,,,,,,,,,,,,,926.0892846002243,927.1043783000205,927.0710261000786,927.5716533001978,927.5716533001978,None,929.5083496000152,None,left,0.535566900158301,929.5083496000152,None,930.0739516001195,None,left,0.21871009981259704,930.0739516001195,None,,,,,,,,,,,,,,,,,,,,,,,PPT52,001,2022-07-12_16h35.24.445,ABstudy,2022.1.4,59.90133055801126,
AB,Lag1_T1P_T2P,1,P,P,8,9,7,4,13,mattress,Did you see the mattress?,0.12,0.016,JPG\,button01,celery,birthdaycandle,apple07,avocado01,tennisball01b,dice05a,mattress,stapler01,feather03a,tomato01,scarf,orange,blankImage,blankImage,blankImage,blankImage,mattress,,,,,,,,,,,,0,135,135,22,,,,,,,,,,,,,,,,,,,,,,,,,,,,,,,,,,,930.3332575000823,931.3419188000262,931.3252021002118,931.9068242001813,931.9068242001813,None,933.5070985001512,None,left,0.5446281000040472,933.5070985001512,None,934.0790081000887,None,left,0.1891487999819219,934.0790081000887,None,,,,,,,,,,,,,,,,,,,,,,,PPT52,001,2022-07-12_16h35.24.445,ABstudy,2022.1.4,59.90133055801126,
AB,Lag5_T1P_T2A,5,P,A,8,13,7,5,18,telescope,Did you see the telescope?,0.12,0.016,JPG\,globe,broccoli01a,binoculars01b,iron01b,avocado01,dandelion,pineapple01a,handheldtelescope,fan,pizza,celery,blueberry01,sewingmachine01a,dice05a,watermelon01,candy,blankImage,handheldtelescope,,,,,,,,,,,,0,136,136,228,,,,,,,,,,,,,,,,,,,,,,,,,,,,,,,,,,,934.3011384001002,935.3127887002192,935.2959070000798,935.8872668000404,935.8872668000404,None,937.8258649001364,None,left,1.2664646001067013,937.8258649001364,None,939.1192561001517,None,left,0.19828570005483925,939.1192561001517,None,,,,,,,,,,,,,,,,,,,,,,,PPT52,001,2022-07-12_16h35.24.445,ABstudy,2022.1.4,59.90133055801126,
AB,Lag5_T1P_T2A,5,P,A,6,11,5,5,16,hat,Did you see the hat?,0.12,0.016,JPG\,apple07,toiletpaper01a,pizza,dandelion,greenolive,pilgrimhat,microscope,violin,orange,lipstick02a,balloon01b,sandal,lighter01,fan,book01b,sewingmachine01a,blankImage,pilgrimhat,,,,,,,,,,,,0,137,137,206,,,,,,,,,,,,,,,,,,,,,,,,,,,,,,,,,,,939.3415521001443,940.350886600092,940.334161200095,940.9175528001506,940.9175528001506,None,942.8439137001988,None,right,2.407803799957037,942.8439137001988,None,945.2724229001906,None,right,0.5161516000516713,945.2724229001906,None,,,,,,,,,,,,,,,,,,,,,,,PPT52,001,2022-07-12_16h35.24.445,ABstudy,2022.1.4,59.90133055801126,
