TrialType,CondType,Lag,T1_PA,T2_PA,T1Loc,T2Loc,PreDistractor,PostDistractor,TotalImg,cueWord,T1cue,StimLength,isi,PicFolder,Img1,Img2,Img3,Img4,Img5,Img6,Img7,Img8,Img9,Img10,Img11,Img12,Img13,Img14,Img15,Img16,Img17,T1_Identity,ImageType,T1PA,T2PA,Picture,Image,FullPathName,FilePath,Practice_Trials.thisRepN,Practice_Trials.thisTrialN,Practice_Trials.thisN,Practice_Trials.thisIndex,trials.thisRepN,trials.thisTrialN,trials.thisN,trials.thisIndex,trials_2.thisRepN,trials_2.thisTrialN,trials_2.thisN,trials_2.thisIndex,Practice_Ins.started,Practice_Ins.stopped,End_Prac_Ins.keys,End_Prac_Ins.rt,End_Prac_Ins.started,End_Prac_Ins.stopped,text_2.started,text_2.stopped,Fixation_Cross_2.started,Fixation_Cross_2.stopped,Rapid_Image_Present_2.started,Rapid_Image_Present_2.stopped,key_resp.keys,key_resp.rt,key_resp.started,key_resp.stopped,T1Response_2.started,T1Response_2.stopped,T2Response_2.started,T2Response_2.stopped,key_resp_4.keys,key_resp_4.rt,key_resp_4.started,key_resp_4.stopped,text.started,text.stopped,End_Instructions.keys,End_Instructions.rt,End_Instructions.started,End_Instructions.stopped,text_5.started,text_5.stopped,FC.started,FC.stopped,Rapid_Image_Present.started,Rapid_Image_Present.stopped,T1Response.started,T1Response.stopped,key_resp_2.keys,key_resp_2.rt,key_resp_2.started,key_resp_2.stopped,T2Response.started,T2Response.stopped,key_resp_3.keys,key_resp_3.rt,key_resp_3.started,key_resp_3.stopped,text_6.started,text_6.stopped,Fin_ins.keys,Fin_ins.rt,Fin_ins.started,Fin_ins.stopped,MemTest.started,MemTest.stopped,MemResponse.keys,MemResponse.rt,MemResponse.started,MemResponse.stopped,Display.started,Display.stopped,text_7.started,text_7.stopped,endOfExperiment.started,endOfExperiment.stopped,key_resp_5.keys,key_resp_5.rt,key_resp_5.started,key_resp_5.stopped,participant,session,date,expName,psychopyVersion,frameRate,
,,,,,,,,,,,,,,,,,,,,,,,,,,,,,,,,,,,,,,,,,,,,,,,,,,,,12.393363500013947,None,space,46.50380050006788,12.393363500013947,None,,,,,,,,,,,,,,,,,,,,,,,,,,,,,,,,,,,,,,,,,,,,,,,,,,,,,,,,,,,,,,,,,PPT50,001,2022-07-11_16h46.39.902,ABstudy,2022.1.4,59.95484203206868,
AB_Prac,Lag5_T1P_T2A,5,P,A,6,11,5,5,16,Wheat,Did you see the Wheat?,0.5,0.016,JPG\,bottleopener01,dentalfloss03b,cooler01,icecreamcone01a,paperclip01b,wheat,pencilsharpener02a,plasticbasket01a,toycar04,apricot,hairclip02,rock01a,honeydewmelon,antenna,blackberry,cardboardbox,blankImage,wheat,,,,,,,,0,0,0,7,,,,,,,,,,,,,,,58.99213130003773,59.995584700023755,59.97905389999505,60.609458600054495,60.609458600054495,None,left,2.590241000056267,68.7060794000281,None,68.7060794000281,None,71.32483140006661,None,left,1.540300099994056,71.32483140006661,None,,,,,,,,,,,,,,,,,,,,,,,,,,,,,,,,,,,,,,,,,,,,,,,PPT50,001,2022-07-11_16h46.39.902,ABstudy,2022.1.4,59.95484203206868,
AB_Prac,Lag5_T1A_T2P,5,A,P,6,11,5,3,14,dog,Did you see the dog?,0.5,0.016,JPG\,bucket01a,doorlock,cookiecutter,fireextinguisher01,gluestick,highlighter02b,sportbag,spraybottle01,suitcase,thread02,stapler05,walnut01c,icecubetray01a,vikingmask01b,blankImage,blankImage,blankImage,None,,,,,,,,0,1,1,9,,,,,,,,,,,,,,,72.89983340003528,73.90966320002917,73.89389910001773,74.48978200007696,74.48978200007696,None,left,1.6776946999598294,81.49985660007223,None,81.49985660007223,None,83.21606230002362,None,left,2.6567657999694347,83.21606230002362,None,,,,,,,,,,,,,,,,,,,,,,,,,,,,,,,,,,,,,,,,,,,,,,,PPT50,001,2022-07-11_16h46.39.902,ABstudy,2022.1.4,59.95484203206868,
AB_Prac,Lag5_T1P_T2P,5,P,P,5,10,4,5,15,Vulture,Did you see the Vulture?,0.5,0.016,JPG\,shorts01,toast,ramekin01,bib,vulture,cracker02,date,glasses01a,hat03b,stapler01,measuringtape01,nail,pill,drum01,starfish01,blankImage,blankImage,vulture,,,,,,,,0,2,2,3,,,,,,,,,,,,,,,85.92249470006209,86.92238070000894,86.90552390005905,87.50810380000621,87.50810380000621,None,left,1.3882225000998005,94.98089210002217,None,94.98089210002217,None,96.39874249999411,None,left,0.6979247000999749,96.39874249999411,None,,,,,,,,,,,,,,,,,,,,,,,,,,,,,,,,,,,,,,,,,,,,,,,PPT50,001,2022-07-11_16h46.39.902,ABstudy,2022.1.4,59.95484203206868,
AB_Prac,Lag1_T1P_T2A,1,P,A,5,6,4,5,11,Webcam,Did you see the Webcam?,0.5,0.016,JPG\,pictureframe04,binder03b,straw,adjustablewrench01b,webcam,cane,hairdryer02a,icepack,kitchenscale01a,lifejacket,piggybank,blankImage,blankImage,blankImage,blankImage,blankImage,blankImage,webcam,,,,,,,,0,3,3,6,,,,,,,,,,,,,,,97.12688150000758,98.13343730010092,98.1167050000513,98.72308280004654,98.72308280004654,None,left,1.3251306000165641,104.21163140004501,None,104.21163140004501,None,105.55727180000395,None,left,0.5159381999401376,105.55727180000395,None,,,,,,,,,,,,,,,,,,,,,,,,,,,,,,,,,,,,,,,,,,,,,,,PPT50,001,2022-07-11_16h46.39.902,ABstudy,2022.1.4,59.95484203206868,
AB_Prac,Lag1_T1P_T2P,1,P,P,8,9,7,5,14,Tennis racket,Did you see the Tennis racket?,0.5,0.016,JPG\,coconut,computermouse06,croissant01,deodorant02a,pillow01a,peanut01,boot02b,tennisracket,stapler03b,crayon,eggplant,marker01a,plant01,radish01,blankImage,blankImage,blankImage,tennisracket,,,,,,,,0,4,4,0,,,,,,,,,,,,,,,106.09784190007485,107.10894330008887,107.09226609999314,107.69375120010227,107.69375120010227,None,left,0.702075699926354,114.77075990010053,None,114.77075990010053,None,115.50087390001863,None,left,1.4207025000359863,115.50087390001863,None,,,,,,,,,,,,,,,,,,,,,,,,,,,,,,,,,,,,,,,,,,,,,,,PPT50,001,2022-07-11_16h46.39.902,ABstudy,2022.1.4,59.95484203206868,
AB_Prac,Lag5_T1P_T2A,5,P,A,6,11,5,5,16,bread,Did you see the bread?,0.5,0.016,JPG\,cleaver01,clipboard,dustpan,hikingshoe01,notebook03a,baguette01,playingcard,pliers02b,styrofoamcup,rollingpin01a,swimgoggles,wineglass01,fryingpan02a,safetypin,syringe01,thimble,blankImage,baguette01,,,,,,,,0,5,5,8,,,,,,,,,,,,,,,116.9541444000788,117.95314890006557,117.9365003000712,118.50949770002626,118.50949770002626,None,left,1.1270176999969408,126.57855420000851,None,126.57855420000851,None,127.72968390001915,None,right,1.0787548000225797,127.72968390001915,None,,,,,,,,,,,,,,,,,,,,,,,,,,,,,,,,,,,,,,,,,,,,,,,PPT50,001,2022-07-11_16h46.39.902,ABstudy,2022.1.4,59.95484203206868,
AB_Prac,Lag1_T1A_T2A,1,A,A,8,9,7,3,12,Moose,Did you see the Moose?,0.5,0.016,JPG\,clothespin03b,corkscrew03a,drillbit03a,fusilli03a,needlenosepliers01,perfume01a,pistachio,scrubbingbrush05b,spatula03,toothpastetube,hinge,toydinosaur,blankImage,blankImage,blankImage,blankImage,blankImage,None,,,,,,,,0,6,6,10,,,,,,,,,,,,,,,128.8435306000756,129.84842320007738,129.83153090009,130.40085770003498,130.40085770003498,None,right,2.0149903000565246,136.44932340004016,None,136.44932340004016,None,138.49026820005383,None,right,1.1021929999114946,138.49026820005383,None,,,,,,,,,,,,,,,,,,,,,,,,,,,,,,,,,,,,,,,,,,,,,,,PPT50,001,2022-07-11_16h46.39.902,ABstudy,2022.1.4,59.95484203206868,
AB_Prac,Lag1_T1P_T2P,1,P,P,6,7,5,5,12,triangle,Did you see the triangle?,0.5,0.016,JPG\,ginger,mousetrap,plum01,slipper01b,dropper01,triangle,stapler04b,pants,raspberry01,rope03,scale01a,vase01,blankImage,blankImage,blankImage,blankImage,blankImage,triangle,,,,,,,,0,7,7,1,,,,,,,,,,,,,,,139.62679370003752,140.64224830002058,140.6088353000814,141.19102860009298,141.19102860009298,None,left,1.547011399990879,147.22994240000844,None,147.22994240000844,None,148.80076700006612,None,right,0.9360590999713168,148.80076700006612,None,,,,,,,,,,,,,,,,,,,,,,,,,,,,,,,,,,,,,,,,,,,,,,,PPT50,001,2022-07-11_16h46.39.902,ABstudy,2022.1.4,59.95484203206868,
AB_Prac,Lag5_T1P_T2P,5,P,P,7,12,6,3,15,vacuum,Did you see the vacuum?,0.5,0.016,JPG\,fork07b,lightbulb01,manshoe,saw02b,shoelace,soap03a,vacuumcleaner01,floortile01,necklace,doll,cabbage,stapler03a,hanger02a,laptop01a,nailpolish03b,blankImage,blankImage,vacuumcleaner01,,,,,,,,0,8,8,2,,,,,,,,,,,,,,,149.7754031000659,150.78655900002923,150.77084080001805,151.3609487999929,151.3609487999929,None,left,0.8282447999808937,158.88537360006012,None,158.88537360006012,None,159.74453280004673,None,left,0.5518928000237793,159.74453280004673,None,,,,,,,,,,,,,,,,,,,,,,,,,,,,,,,,,,,,,,,,,,,,,,,PPT50,001,2022-07-11_16h46.39.902,ABstudy,2022.1.4,59.95484203206868,
AB_Prac,Lag5_T1P_T2P,5,P,P,5,10,4,5,15,washing machine,Did you see the washing machine?,0.5,0.016,JPG\,waterbottle03,wheel01,flashlight02b,zucchini01,washingmachine,headphones02b,nutcracker01,paintroller01,paperclip03,stapler06,ribbon04,electricrazor,bottleofredwine01,pitabread,pot02a,blankImage,blankImage,washingmachine,,,,,,,,0,9,9,4,,,,,,,,,,,,,,,160.33269950002432,161.34607100009453,161.32942260010168,161.90547110000625,161.90547110000625,None,left,1.1161302999826148,169.42812000005506,None,169.42812000005506,None,170.57232550007757,None,right,0.7811259999871254,170.57232550007757,None,,,,,,,,,,,,,,,,,,,,,,,,,,,,,,,,,,,,,,,,,,,,,,,PPT50,001,2022-07-11_16h46.39.902,ABstudy,2022.1.4,59.95484203206868,
AB_Prac,Lag1_T1P_T2A,1,P,A,8,9,7,5,14,flower,Did you see the flower?,0.5,0.016,JPG\,razor01,axe01,binder03b,bowl01,kettle01,lettuce,lime,plasticflower01b,mitten04,pencilcase01,plunger02,strawbasket01,toothpick02,wallet02a,blankImage,blankImage,blankImage,plasticflower01b,,,,,,,,0,10,10,5,,,,,,,,,,,,,,,171.3802048000507,172.39077699999325,172.37411950004753,172.9620565000223,172.9620565000223,None,left,0.7711768998997286,179.98117829998955,None,179.98117829998955,None,180.78282840002794,None,right,1.001330200000666,180.78282840002794,None,,,,,,,,,,,,,,,,,,,,,,,,,,,,,,,,,,,,,,,,,,,,,,,PPT50,001,2022-07-11_16h46.39.902,ABstudy,2022.1.4,59.95484203206868,
AB_Prac,Lag5_T1A_T2A,5,A,A,6,11,5,5,16,castle,Did you see the castle?,0.5,0.016,JPG\,tape02a,englishmuffin,flask,ladle02a,monitor,peach01,keychain,squeegee01b,telephone01b,whisk,walkman,syringe02,baguette01,coaster,box01a,coffeepot03a,blankImage,None,,,,,,,,0,11,11,11,,,,,,,,,,,,,,,181.82963450008538,182.83414150006138,182.80275410006288,183.4090756000951,183.4090756000951,None,right,1.3909609999973327,191.43324570008554,None,191.43324570008554,None,192.84457910002675,None,right,1.963332899962552,192.84457910002675,None,,,,,,,,,,,,,,,,,,,,,,,,,,,,,,,,,,,,,,,,,,,,,,,PPT50,001,2022-07-11_16h46.39.902,ABstudy,2022.1.4,59.95484203206868,
,,,,,,,,,,,,,,,,,,,,,,,,,,,,,,,,,,,,,,,,,,,,,,,,,,,,,,,,,,,,,,,,,,,,,,,,,,,,194.8294540999923,None,space,4.219140200060792,194.8294540999923,None,,,,,,,,,,,,,,,,,,,,,,,,,,,,,,,,,,,,,,,,,PPT50,001,2022-07-11_16h46.39.902,ABstudy,2022.1.4,59.95484203206868,
AB,Lag1_T1P_T2A,1,P,A,6,7,5,5,12,Barn,Did you see the Barn?,0.12,0.016,JPG\,celery,pencil01,fan,foosballtable,iron01b,barn,potato02b,fork03c,button01,pineapple01a,baseball01a,printer02,blankImage,blankImage,blankImage,blankImage,blankImage,barn,,,,,,,,,,,,0,0,0,181,,,,,,,,,,,,,,,,,,,,,,,,,,,,,,,,,,,199.87850570003502,200.88568450009916,200.86909799999557,201.49708950007334,201.49708950007334,None,202.94867610000074,None,right,10.387145500048064,202.94867610000074,None,213.36569170001894,None,right,1.3000075001036748,213.36569170001894,None,,,,,,,,,,,,,,,,,,,,,,,PPT50,001,2022-07-11_16h46.39.902,ABstudy,2022.1.4,59.95484203206868,
AB,Lag5_T1P_T2P,5,P,P,8,13,7,4,17,trumpet,Did you see the trumpet?,0.12,0.016,JPG\,toaster01,scarf,toiletpaper01a,calculator01,violin,sewingmachine01a,fan,trumpet,strawberry,balloon01b,brownsugar,eraser,stapler01,rice,ring01,shirt02,blankImage,trumpet,,,,,,,,,,,,0,1,1,145,,,,,,,,,,,,,,,,,,,,,,,,,,,,,,,,,,,214.6890785000287,215.70028410002124,215.68358660000376,216.27223050000612,216.27223050000612,None,218.18491960002575,None,left,1.2875524000264704,218.18491960002575,None,219.51845040009357,None,right,1.2898740000091493,219.51845040009357,None,,,,,,,,,,,,,,,,,,,,,,,PPT50,001,2022-07-11_16h46.39.902,ABstudy,2022.1.4,59.95484203206868,
AB,Lag5_T1P_T2P,5,P,P,8,13,7,3,16,parachute,Did you see the parachute?,0.12,0.016,JPG\,brick,plate01b,pen04b,toaster01,screwdriver04b,candle01,envelope03a,parachute,pig,ring01,orange,clock01a,stapler03b,calculator01,mushroom01,chain01,blankImage,parachute,,,,,,,,,,,,0,2,2,114,,,,,,,,,,,,,,,,,,,,,,,,,,,,,,,,,,,220.85147590003908,221.85662430000957,221.83976480003912,222.41802169999573,222.41802169999573,None,224.36584310000762,None,left,1.3550850000465289,224.36584310000762,None,225.74648000008892,None,left,2.5419752000598237,225.74648000008892,None,,,,,,,,,,,,,,,,,,,,,,,PPT50,001,2022-07-11_16h46.39.902,ABstudy,2022.1.4,59.95484203206868,
AB,Lag1_T1A_T2P,1,A,P,6,7,5,5,12,Ostrich,Did you see the Ostrich?,0.12,0.016,JPG\,thermometer02b,candle08b,comb02a,toothbrush03b,brick,computerkeyboard02,stapler05,pineapple01a,candy,birthdaycandle,clock04,hairclip03,blankImage,blankImage,blankImage,blankImage,blankImage,discoball,,,,,,,,,,,,0,3,3,232,,,,,,,,,,,,,,,,,,,,,,,,,,,,,,,,,,,228.3271703000646,229.3305172000546,229.31380700005684,229.95821900002193,229.8796537000453,None,231.33462119998876,None,left,2.8812277000397444,231.33462119998876,None,234.2355905000586,None,right,0.9804102999623865,234.2355905000586,None,,,,,,,,,,,,,,,,,,,,,,,PPT50,001,2022-07-11_16h46.39.902,ABstudy,2022.1.4,59.95484203206868,
AB,Lag5_T1A_T2A,5,A,A,6,11,5,3,14,mirror,Did you see the mirror?,0.12,0.016,JPG\,foosballtable,candy,envelope03a,microscope,pencil01,leaf02a,scissors01,watermelon01,grape01,dandelion,pineapple01a,hammer01,celery,thermometer02b,blankImage,blankImage,blankImage,shower,,,,,,,,,,,,0,4,4,305,,,,,,,,,,,,,,,,,,,,,,,,,,,,,,,,,,,235.238724200055,236.23789930006023,236.22209100006148,236.72496990009677,236.72496990009677,None,238.50024670001585,None,right,1.2835264999885112,238.50024670001585,None,239.80752400006168,None,right,1.3610389999812469,239.80752400006168,None,,,,,,,,,,,,,,,,,,,,,,,PPT50,001,2022-07-11_16h46.39.902,ABstudy,2022.1.4,59.95484203206868,
AB,Lag1_T1P_T2P,1,P,P,5,6,4,5,11,owl,Did you see the owl?,0.12,0.016,JPG\,cellphone,tomato01,comb02a,candy,barnowl,stapler03a,toaster01,fan,feather03a,pen04b,lemon02,blankImage,blankImage,blankImage,blankImage,blankImage,blankImage,barnowl,,,,,,,,,,,,0,5,5,33,,,,,,,,,,,,,,,,,,,,,,,,,,,,,,,,,,,241.1952227000147,242.2096351000946,242.1768842000747,242.76651770004537,242.76651770004537,None,244.10248860006686,None,left,0.9934857999905944,244.10248860006686,None,245.12729770003352,None,right,1.5526911999331787,245.12729770003352,None,,,,,,,,,,,,,,,,,,,,,,,PPT50,001,2022-07-11_16h46.39.902,ABstudy,2022.1.4,59.95484203206868,
AB,Lag5_T1P_T2P,5,P,P,7,12,6,5,17,statue,Did you see the statue?,0.12,0.016,JPG\,pear01,clock01a,cymbal,match,ashtray01,globe,statue,button01,lemon02,pen04b,dice05a,stapler06,toothbrush03b,screwdriver04b,feather03a,key01,blankImage,statue,,,,,,,,,,,,0,6,6,100,,,,,,,,,,,,,,,,,,,,,,,,,,,,,,,,,,,246.70799390005413,247.71542820008472,247.69875109998975,248.28591750003397,248.28591750003397,None,250.24576449999586,None,left,0.9624966999981552,250.24576449999586,None,251.23609980009496,None,right,0.9156696000136435,251.23609980009496,None,,,,,,,,,,,,,,,,,,,,,,,PPT50,001,2022-07-11_16h46.39.902,ABstudy,2022.1.4,59.95484203206868,
AB,Lag5_T1P_T2P,5,P,P,6,11,5,4,15,punching bag,Did you see the punching bag?,0.12,0.016,JPG\,foosballtable,cigarette,pen04b,birthdaycandle,hammer01,punchingbag,binoculars01b,chain01,potato02b,cauliflower01,stapler04b,ashtray01,scarf,cellphone,calculator01,blankImage,blankImage,punchingbag,,,,,,,,,,,,0,7,7,156,,,,,,,,,,,,,,,,,,,,,,,,,,,,,,,,,,,252.1774420000147,253.18818810000084,253.1726869000122,253.6858142000856,253.6858142000856,None,255.6423352001002,None,left,1.91820109996479,255.6423352001002,None,257.5919598999899,None,right,0.6406201999634504,257.5919598999899,None,,,,,,,,,,,,,,,,,,,,,,,PPT50,001,2022-07-11_16h46.39.902,ABstudy,2022.1.4,59.95484203206868,
AB,Lag5_T1P_T2A,5,P,A,5,10,4,4,14,Ship in a bottle,Did you see the Ship in a bottle?,0.12,0.016,JPG\,sewingmachine01a,thermometer02b,sponge01,eraser,shipinabottle,fork03c,pizza,violin,belt02a,medal02b,pineapple01a,tennisball01b,dandelion,cauliflower01,blankImage,blankImage,blankImage,shipinabottle,,,,,,,,,,,,0,8,8,208,,,,,,,,,,,,,,,,,,,,,,,,,,,,,,,,,,,258.26518690004013,259.2769295000471,259.26028190006036,259.84880100004375,259.84880100004375,None,261.5639636000851,None,left,1.2039789999835193,261.5639636000851,None,262.797602500068,None,right,0.5779885000083596,262.797602500068,None,,,,,,,,,,,,,,,,,,,,,,,PPT50,001,2022-07-11_16h46.39.902,ABstudy,2022.1.4,59.95484203206868,
AB,Lag1_T1P_T2P,1,P,P,7,8,6,4,12,Christmas Tree,Did you see the Christmas Tree?,0.12,0.016,JPG\,sandal,fan,printer02,cellphone,mushroom01,candle08b,firtree,stapler03a,lamp04a,hammer01,teabag,aceofdiamond,blankImage,blankImage,blankImage,blankImage,blankImage,firtree,,,,,,,,,,,,0,9,9,6,,,,,,,,,,,,,,,,,,,,,,,,,,,,,,,,,,,263.40967030008323,264.4157160000177,264.39909660001285,264.99797100003343,264.99797100003343,None,266.4246354000643,None,left,0.743873400031589,266.4246354000643,None,267.1854066000087,None,right,0.47902360011357814,267.1854066000087,None,,,,,,,,,,,,,,,,,,,,,,,PPT50,001,2022-07-11_16h46.39.902,ABstudy,2022.1.4,59.95484203206868,
AB,Lag5_T1A_T2P,5,A,P,6,11,5,5,16,baseball bat,Did you see the baseball bat?,0.12,0.016,JPG\,avocado01,aceofdiamond,match,cauliflower01,paintbrush01,clock01a,pig,cd,balloon01b,cellphone,stapler01,pear01,toaster01,sponge01,orange,blueberry01,blankImage,stool01,,,,,,,,,,,,0,10,10,273,,,,,,,,,,,,,,,,,,,,,,,,,,,,,,,,,,,267.690718100057,268.70359110005666,268.6877650000388,269.2774909000145,269.2774909000145,None,271.2459872000618,None,left,1.1218369000125676,271.2459872000618,None,272.3900421001017,None,left,1.7696159000042826,272.3900421001017,None,,,,,,,,,,,,,,,,,,,,,,,PPT50,001,2022-07-11_16h46.39.902,ABstudy,2022.1.4,59.95484203206868,
AB,Lag5_T1A_T2P,5,A,P,6,11,5,3,14,Kiwi,Did you see the Kiwi?,0.12,0.016,JPG\,paintbrush01,dice05a,watermelon01,broccoli01a,hammer01,leaf02a,match,tennisball01b,lemon02,fan,stapler06,grape01,envelope03a,sponge01,blankImage,blankImage,blankImage,granolabar01,,,,,,,,,,,,0,11,11,261,,,,,,,,,,,,,,,,,,,,,,,,,,,,,,,,,,,274.19809940003324,275.2095144999912,275.19279600004666,275.7674113000976,275.7674113000976,None,277.50776790000964,None,right,1.1653700000606477,277.50776790000964,None,278.69626140000764,None,right,1.3352814000099897,278.69626140000764,None,,,,,,,,,,,,,,,,,,,,,,,PPT50,001,2022-07-11_16h46.39.902,ABstudy,2022.1.4,59.95484203206868,
AB,Lag5_T1A_T2P,5,A,P,7,12,6,4,16,ear,Did you see the ear?,0.12,0.016,JPG\,candle01,shirt02,brick,orange,greenolive,toothbrush03b,pizza,thermometer02b,book01b,toiletpaper01a,sewingmachine01a,stapler01,candy,cymbal,potato02b,plate01b,blankImage,chair,,,,,,,,,,,,0,12,12,257,,,,,,,,,,,,,,,,,,,,,,,,,,,,,,,,,,,280.0665279000532,281.0820118000265,281.04857059998903,281.617162700044,281.617162700044,None,283.54763220006134,None,right,1.4208337999880314,283.54763220006134,None,284.98590960004367,None,right,0.7985665000742301,284.98590960004367,None,,,,,,,,,,,,,,,,,,,,,,,PPT50,001,2022-07-11_16h46.39.902,ABstudy,2022.1.4,59.95484203206868,
AB,Lag1_T1A_T2P,1,A,P,7,8,6,3,11,Fox,Did you see the Fox?,0.12,0.016,JPG\,toaster01,chain01,sponge01,baseball01a,carrot01,belt02a,book01b,stapler03b,grape01,brick,celery,blankImage,blankImage,blankImage,blankImage,blankImage,blankImage,fingerprint,,,,,,,,,,,,0,13,13,234,,,,,,,,,,,,,,,,,,,,,,,,,,,,,,,,,,,285.81082590005826,286.8211234000046,286.8044220000738,287.4339555000188,287.4339555000188,None,288.8126035000896,None,right,1.2112938999198377,288.8126035000896,None,290.0409075000789,None,right,1.4468489000573754,290.0409075000789,None,,,,,,,,,,,,,,,,,,,,,,,PPT50,001,2022-07-11_16h46.39.902,ABstudy,2022.1.4,59.95484203206868,
AB,Lag5_T1A_T2P,5,A,P,8,13,7,5,18,lollipop,Did you see the lollipop?,0.12,0.016,JPG\,watermelon01,banana01,ring01,pencil01,tomato01,speaker04,cucumber,thermometer02b,key01,foosballtable,violin,spoon01,stapler04b,dice05a,pen04b,mushroom01,blankImage,jeans01,,,,,,,,,,,,0,14,14,262,,,,,,,,,,,,,,,,,,,,,,,,,,,,,,,,,,,291.51202630007174,292.5267070000991,292.4933549000416,293.08361120009795,293.08361120009795,None,295.092885900056,None,right,1.2035730000352487,295.092885900056,None,296.31384399998933,None,right,0.533820700016804,296.31384399998933,None,,,,,,,,,,,,,,,,,,,,,,,PPT50,001,2022-07-11_16h46.39.902,ABstudy,2022.1.4,59.95484203206868,
AB,Lag5_T1P_T2A,5,P,A,8,13,7,4,17,fountain,Did you see the fountain?,0.12,0.016,JPG\,printer02,envelope03a,potato02b,calculator01,tableknife02,cigarette,ashtray01,parkfountain,broom01,greenolive,candle08b,battery02b,strawberry,candle01,foosballtable,tennisball01b,blankImage,parkfountain,,,,,,,,,,,,0,15,15,219,,,,,,,,,,,,,,,,,,,,,,,,,,,,,,,,,,,296.86559210007545,297.86617990001105,297.8491606999887,298.43827560008503,298.43827560008503,None,300.4017934000585,None,left,0.919097900041379,300.4017934000585,None,301.3665736000985,None,right,0.4975143000483513,301.3665736000985,None,,,,,,,,,,,,,,,,,,,,,,,PPT50,001,2022-07-11_16h46.39.902,ABstudy,2022.1.4,59.95484203206868,
AB,Lag1_T1P_T2P,1,P,P,6,7,5,3,10,Pool table,Did you see the Pool table?,0.12,0.016,JPG\,tomato01,pen04b,shirt02,carrot01,lamp04a,pooltable,stapler06,avocado01,sewingmachine01a,apple07,blankImage,blankImage,blankImage,blankImage,blankImage,blankImage,blankImage,pooltable,,,,,,,,,,,,0,16,16,29,,,,,,,,,,,,,,,,,,,,,,,,,,,,,,,,,,,301.8887420000974,302.90375420008786,302.8704164000228,303.45636650000233,303.45636650000233,None,304.69621299998835,None,left,1.1850419000256807,304.69621299998835,None,305.92115660000127,None,right,0.5197683000005782,305.92115660000127,None,,,,,,,,,,,,,,,,,,,,,,,PPT50,001,2022-07-11_16h46.39.902,ABstudy,2022.1.4,59.95484203206868,
AB,Lag5_T1P_T2P,5,P,P,7,12,6,3,15,marble,Did you see the marble?,0.12,0.016,JPG\,cigarette,ashtray01,envelope03a,sandal,chain01,cucumber,marble,tomato01,dandelion,candle01,lemon02,stapler03b,potato02b,cymbal,clock01a,blankImage,blankImage,marble,,,,,,,,,,,,0,17,17,146,,,,,,,,,,,,,,,,,,,,,,,,,,,,,,,,,,,306.5180235999869,307.5251484999899,307.50839870003983,308.10787320008967,308.10787320008967,None,309.8321842000587,None,left,1.0003193999873474,309.8321842000587,None,310.8620348999975,None,right,0.42535989999305457,310.8620348999975,None,,,,,,,,,,,,,,,,,,,,,,,PPT50,001,2022-07-11_16h46.39.902,ABstudy,2022.1.4,59.95484203206868,
AB,Lag5_T1P_T2P,5,P,P,6,11,5,4,15,boxing glove,Did you see the boxing glove?,0.12,0.016,JPG\,button01,celery,birthdaycandle,apple07,avocado01,boxingglove01,dice05a,teabag,clock01a,feather03a,stapler06,scarf,orange,battery02b,thermometer02b,blankImage,blankImage,boxingglove01,,,,,,,,,,,,0,18,18,165,,,,,,,,,,,,,,,,,,,,,,,,,,,,,,,,,,,311.31932660005987,312.32998070004396,312.31321610009763,312.9066700000549,312.9066700000549,None,314.80324160004966,None,left,1.0290324999950826,314.80324160004966,None,315.84989050007425,None,right,0.6224247000645846,315.84989050007425,None,,,,,,,,,,,,,,,,,,,,,,,PPT50,001,2022-07-11_16h46.39.902,ABstudy,2022.1.4,59.95484203206868,
AB,Lag5_T1A_T2P,5,A,P,5,10,4,4,14,Chefs hat,Did you see the Chefs hat?,0.12,0.016,JPG\,candle01,fork03c,plate01b,violin,computerkeyboard02,candy,calculator01,paintbrush01,cherry01,stapler06,teabag,banana01,cd,lighter01,blankImage,blankImage,blankImage,horseshoe,,,,,,,,,,,,0,19,19,278,,,,,,,,,,,,,,,,,,,,,,,,,,,,,,,,,,,316.50408620003145,317.51877359999344,317.50270640000235,318.14748610008974,318.07518290006556,None,319.7548525000457,None,left,1.7971438999520615,319.7548525000457,None,321.5727743000025,None,left,0.30712360003963113,321.5727743000025,None,,,,,,,,,,,,,,,,,,,,,,,PPT50,001,2022-07-11_16h46.39.902,ABstudy,2022.1.4,59.95484203206868,
AB,Lag5_T1A_T2P,5,A,P,6,11,5,3,14,keys,Did you see the keys?,0.12,0.016,JPG\,pencil01,microscope,banana01,computerkeyboard02,celery,cellphone,scissors01,sock01a,book01b,onion,stapler03a,binoculars01b,baseball01a,iron01b,blankImage,blankImage,blankImage,treadmill,,,,,,,,,,,,0,20,20,275,,,,,,,,,,,,,,,,,,,,,,,,,,,,,,,,,,,321.90953539998736,322.9238511000294,322.89047640003264,323.4648148000706,323.4648148000706,None,325.24427890009247,None,left,1.7639276999980211,325.24427890009247,None,327.02812220004853,None,left,1.0518370000645518,327.02812220004853,None,,,,,,,,,,,,,,,,,,,,,,,PPT50,001,2022-07-11_16h46.39.902,ABstudy,2022.1.4,59.95484203206868,
AB,Lag5_T1A_T2P,5,A,P,7,12,6,4,16,scooter,Did you see the scooter?,0.12,0.016,JPG\,cigarette,pig,banana01,strawberry,clock01a,plate01b,spoon01,blueberry01,battery02b,pineapple01a,chain01,stapler05,candy,pen04b,teabag,birthdaycandle,blankImage,1nose,,,,,,,,,,,,0,21,21,268,,,,,,,,,,,,,,,,,,,,,,,,,,,,,,,,,,,328.11536669998895,329.13008150004316,329.11327670002356,329.74843620008323,329.67924760002643,None,331.5529072000645,None,right,1.4395461999811232,331.5529072000645,None,333.0169505000813,None,left,1.167801099945791,333.0169505000813,None,,,,,,,,,,,,,,,,,,,,,,,PPT50,001,2022-07-11_16h46.39.902,ABstudy,2022.1.4,59.95484203206868,
AB,Lag1_T1P_T2P,1,P,P,5,6,4,5,11,candy cane,Did you see the candy cane?,0.12,0.016,JPG\,shirt02,match,screw02,foosballtable,candycane01a,stapler04b,sewingmachine01a,watch02a,button01,comb02a,dice05a,blankImage,blankImage,blankImage,blankImage,blankImage,blankImage,candycane01a,,,,,,,,,,,,0,22,22,9,,,,,,,,,,,,,,,,,,,,,,,,,,,,,,,,,,,334.20442240010016,335.21927430003416,335.1861301000463,335.81594250001945,335.81594250001945,None,337.11667480005417,None,left,1.372188900015317,337.11667480005417,None,338.5061970000388,None,right,0.5418663000455126,338.5061970000388,None,,,,,,,,,,,,,,,,,,,,,,,PPT50,001,2022-07-11_16h46.39.902,ABstudy,2022.1.4,59.95484203206868,
AB,Lag5_T1A_T2P,5,A,P,7,12,6,4,16,hand,Did you see the hand?,0.12,0.016,JPG\,celery,tennisball01b,calculator01,pear01,screw02,orange,button01,cellphone,onion,apple07,iron01b,stapler05,banana01,paintbrush01,dandelion,toothbrush03b,blankImage,bull,,,,,,,,,,,,0,23,23,281,,,,,,,,,,,,,,,,,,,,,,,,,,,,,,,,,,,339.07660360005684,340.0909570000367,340.05771090008784,340.6331616000971,340.6331616000971,None,342.6202615000075,None,right,1.3873515999875963,342.6202615000075,None,344.0284087000182,None,right,1.4752118000760674,344.0284087000182,None,,,,,,,,,,,,,,,,,,,,,,,PPT50,001,2022-07-11_16h46.39.902,ABstudy,2022.1.4,59.95484203206868,
AB,Lag5_T1A_T2P,5,A,P,8,13,7,5,18,fish,Did you see the fish?,0.12,0.016,JPG\,scissors01,grape01,mushroom01,toiletpaper01a,greenolive,pizza,cigarette,ashtray01,carrot01,pineapple01a,foosballtable,lipstick02a,stapler04b,tambourine02,potato02b,violin,blankImage,chimney,,,,,,,,,,,,0,24,24,283,,,,,,,,,,,,,,,,,,,,,,,,,,,,,,,,,,,345.5321064000018,346.54737960000057,346.51409270009026,347.0816595000215,347.0816595000215,None,349.09497060009744,None,left,2.897088700090535,349.09497060009744,None,352.0196630000137,None,right,0.4195991000160575,352.0196630000137,None,,,,,,,,,,,,,,,,,,,,,,,PPT50,001,2022-07-11_16h46.39.902,ABstudy,2022.1.4,59.95484203206868,
AB,Lag1_T1P_T2P,1,P,P,7,8,6,5,13,horse,Did you see the horse?,0.12,0.016,JPG\,watermelon01,pencil01,microscope,blueberry01,computerkeyboard02,lamp04a,horse,stapler03b,sock01a,key01,binoculars01b,cauliflower01,ashtray01,blankImage,blankImage,blankImage,blankImage,horse,,,,,,,,,,,,0,25,25,3,,,,,,,,,,,,,,,,,,,,,,,,,,,,,,,,,,,352.4727760000387,353.48760640004184,353.4708794000326,354.13954910007305,354.05546589998994,None,355.65079179999884,None,left,1.2450062000425532,355.65079179999884,None,356.9241303000599,None,right,0.35570499999448657,356.9241303000599,None,,,,,,,,,,,,,,,,,,,,,,,PPT50,001,2022-07-11_16h46.39.902,ABstudy,2022.1.4,59.95484203206868,
AB,Lag5_T1A_T2P,5,A,P,6,11,5,4,15,butterfly,Did you see the butterfly?,0.12,0.016,JPG\,comb02a,key01,medal02b,battery02b,lighter01,microscope,watermelon01,sandal,pig,cellphone,stapler06,calculator01,cymbal,clock04,cucumber,blankImage,blankImage,uprightpiano01,,,,,,,,,,,,0,26,26,276,,,,,,,,,,,,,,,,,,,,,,,,,,,,,,,,,,,357.3118033000501,358.3255613000365,358.30882260005455,358.88479989999905,358.88479989999905,None,360.67721580003854,None,right,1.8427320000482723,360.67721580003854,None,362.5608669000212,None,right,0.7268769999500364,362.5608669000212,None,,,,,,,,,,,,,,,,,,,,,,,PPT50,001,2022-07-11_16h46.39.902,ABstudy,2022.1.4,59.95484203206868,
AB,Lag1_T1P_T2A,1,P,A,8,9,7,5,14,Fridge,Did you see the Fridge?,0.12,0.016,JPG\,cherry01,cymbal,envelope03a,foosballtable,shirt02,cellphone,sewingmachine01a,fridge,battery02b,apple07,pencil01,screwdriver04b,strawberry,sunglasses04,blankImage,blankImage,blankImage,fridge,,,,,,,,,,,,0,27,27,173,,,,,,,,,,,,,,,,,,,,,,,,,,,,,,,,,,,363.32581860001665,364.33220030006487,364.3167029999895,364.9086372000165,364.9086372000165,None,366.67314060009085,None,right,1.1503146999748424,366.67314060009085,None,367.85170700005256,None,right,0.5157567000715062,367.85170700005256,None,,,,,,,,,,,,,,,,,,,,,,,PPT50,001,2022-07-11_16h46.39.902,ABstudy,2022.1.4,59.95484203206868,
AB,Lag5_T1P_T2P,5,P,P,7,12,6,4,16,window,Did you see the window?,0.12,0.016,JPG\,cigarette,pig,banana01,strawberry,clock01a,plate01b,dormer,blueberry01,battery02b,pineapple01a,chain01,stapler01,candy,pen04b,teabag,birthdaycandle,blankImage,dormer,,,,,,,,,,,,0,28,28,170,,,,,,,,,,,,,,,,,,,,,,,,,,,,,,,,,,,368.38817759999074,369.4032271000324,369.36983520002104,369.9511711000232,369.9511711000232,None,371.82722970005125,None,left,0.5325012999819592,371.82722970005125,None,372.38956570008304,None,right,0.6501359000103548,372.38956570008304,None,,,,,,,,,,,,,,,,,,,,,,,PPT50,001,2022-07-11_16h46.39.902,ABstudy,2022.1.4,59.95484203206868,
AB,Lag5_T1P_T2P,5,P,P,6,11,5,4,15,Witch hat,Did you see the Witch hat?,0.12,0.016,JPG\,pizza,watch02a,greenolive,cucumber,match,witchhat,scissors01,broom01,globe,cherry01,stapler03a,cigarette,microscope,cellphone,speaker04,blankImage,blankImage,witchhat,,,,,,,,,,,,0,29,29,101,,,,,,,,,,,,,,,,,,,,,,,,,,,,,,,,,,,373.0591351999901,374.074594900012,374.04119720007293,374.6287652000319,374.6287652000319,None,376.43873220006935,None,left,0.5850675000110641,376.43873220006935,None,377.0445534000173,None,right,0.9632959000300616,377.0445534000173,None,,,,,,,,,,,,,,,,,,,,,,,PPT50,001,2022-07-11_16h46.39.902,ABstudy,2022.1.4,59.95484203206868,
AB,Lag1_T1P_T2A,1,P,A,6,7,5,4,11,Road,Did you see the Road?,0.12,0.016,JPG\,pizza,printer02,medal02b,spoon01,grape01,road02,belt02a,watermelon01,celery,battery02b,screw02,blankImage,blankImage,blankImage,blankImage,blankImage,blankImage,road02,,,,,,,,,,,,0,30,30,174,,,,,,,,,,,,,,,,,,,,,,,,,,,,,,,,,,,378.0330587000353,379.0461456000339,379.0294245000696,379.6236793000717,379.6236793000717,None,380.9796695000259,None,left,2.404248800012283,380.9796695000259,None,383.4009397000773,None,left,1.3824533999431878,383.4009397000773,None,,,,,,,,,,,,,,,,,,,,,,,PPT50,001,2022-07-11_16h46.39.902,ABstudy,2022.1.4,59.95484203206868,
AB,Lag5_T1P_T2A,5,P,A,7,12,6,4,16,Bear,Did you see the Bear?,0.12,0.016,JPG\,comb02a,key01,medal02b,battery02b,lighter01,microscope,grizzly,sandal,pig,cellphone,computerkeyboard02,calculator01,cymbal,clock04,cucumber,avocado01,blankImage,grizzly,,,,,,,,,,,,0,31,31,213,,,,,,,,,,,,,,,,,,,,,,,,,,,,,,,,,,,384.80763840000145,385.82049320009537,385.8048828000901,386.40010279999115,386.40010279999115,None,388.3186907999916,None,left,0.7057794000720605,388.3186907999916,None,389.0564332000213,None,left,1.262596599990502,389.0564332000213,None,,,,,,,,,,,,,,,,,,,,,,,PPT50,001,2022-07-11_16h46.39.902,ABstudy,2022.1.4,59.95484203206868,
AB,Lag1_T1P_T2P,1,P,P,8,9,7,3,12,Fire hydrant,Did you see the Fire hydrant?,0.12,0.016,JPG\,foosballtable,candy,envelope03a,microscope,pencil01,leaf02a,scissors01,firehydrant,stapler01,dandelion,pineapple01a,hammer01,blankImage,blankImage,blankImage,blankImage,blankImage,firehydrant,,,,,,,,,,,,0,32,32,83,,,,,,,,,,,,,,,,,,,,,,,,,,,,,,,,,,,390.3434540000744,391.358781500021,391.32555860001594,391.8258219000418,391.8258219000418,None,393.44364559999667,None,left,0.6835073000984266,393.44364559999667,None,394.14478780003265,None,right,1.3187409000238404,394.14478780003265,None,,,,,,,,,,,,,,,,,,,,,,,PPT50,001,2022-07-11_16h46.39.902,ABstudy,2022.1.4,59.95484203206868,
AB,Lag1_T1P_T2P,1,P,P,8,9,7,3,12,zebra,Did you see the zebra?,0.12,0.016,JPG\,apple07,toiletpaper01a,pizza,dandelion,greenolive,eraser,microscope,zebra,stapler03b,lipstick02a,balloon01b,sandal,blankImage,blankImage,blankImage,blankImage,blankImage,zebra,,,,,,,,,,,,0,33,33,28,,,,,,,,,,,,,,,,,,,,,,,,,,,,,,,,,,,395.4940208999906,396.49779270007275,396.4821756000165,397.0893900000956,397.0893900000956,None,398.4981633001007,None,left,0.8780938000418246,398.4981633001007,None,399.39974810008425,None,right,0.2875186000019312,399.39974810008425,None,,,,,,,,,,,,,,,,,,,,,,,PPT50,001,2022-07-11_16h46.39.902,ABstudy,2022.1.4,59.95484203206868,
AB,Lag1_T1A_T2A,1,A,A,8,9,7,5,14,Ping pong Table,Did you see the Ping pong Table?,0.12,0.016,JPG\,pineapple01a,tennisball01b,computerkeyboard02,feather03a,belt02a,acorn,violin,blueberry01,medal02b,alligator,greenolive,screwdriver04b,potato02b,fork03c,blankImage,blankImage,blankImage,statue,,,,,,,,,,,,0,34,34,287,,,,,,,,,,,,,,,,,,,,,,,,,,,,,,,,,,,399.72208510001656,400.7354001000058,400.71980730001815,401.3247483000159,401.3247483000159,None,403.047035900061,None,left,1.7760473000817,403.047035900061,None,404.8554486000212,None,right,0.4638883000006899,404.8554486000212,None,,,,,,,,,,,,,,,,,,,,,,,PPT50,001,2022-07-11_16h46.39.902,ABstudy,2022.1.4,59.95484203206868,
AB,Lag5_T1P_T2P,5,P,P,8,13,7,5,18,Kiwi,Did you see the Kiwi?,0.12,0.016,JPG\,violin,pizza,toothbrush03b,pineapple01a,banana01,ashtray01,candy,kiwi03,clock04,sock01a,microscope,speaker04,stapler04b,sunglasses04,lipstick02a,blueberry01,blankImage,kiwi03,,,,,,,,,,,,0,35,35,111,,,,,,,,,,,,,,,,,,,,,,,,,,,,,,,,,,,405.3447300000116,406.35702850006055,406.3402020999929,406.9120385000715,406.9120385000715,None,408.8617480000248,None,left,0.6746939000440761,408.8617480000248,None,409.5602701000171,None,right,0.6230599000118673,409.5602701000171,None,,,,,,,,,,,,,,,,,,,,,,,PPT50,001,2022-07-11_16h46.39.902,ABstudy,2022.1.4,59.95484203206868,
AB,Lag5_T1P_T2A,5,P,A,8,13,7,4,17,knife,Did you see the knife?,0.12,0.016,JPG\,lighter01,hammer01,spoon01,chain01,cymbal,sponge01,lipstick02a,knife03,pig,watermelon01,cauliflower01,lemon02,broccoli01a,tableknife02,tennisball01b,toothbrush03b,blankImage,knife03,,,,,,,,,,,,0,36,36,214,,,,,,,,,,,,,,,,,,,,,,,,,,,,,,,,,,,410.27070440002717,411.2792839000467,411.263746200013,411.90476579999086,411.83627289999276,None,413.7267682000529,None,left,1.6575222000246868,413.7267682000529,None,415.4159568999894,None,right,0.27133329992648214,415.4159568999894,None,,,,,,,,,,,,,,,,,,,,,,,PPT50,001,2022-07-11_16h46.39.902,ABstudy,2022.1.4,59.95484203206868,
AB,Lag5_T1A_T2P,5,A,P,5,10,4,5,15,parachute,Did you see the parachute?,0.12,0.016,JPG\,binoculars01b,speaker04,sandal,envelope03a,plate01b,comb02a,battery02b,chain01,measuringcup01,stapler03b,medal02b,lamp04a,tennisball01b,pizza,cigarette,blankImage,blankImage,knee,,,,,,,,,,,,0,37,37,264,,,,,,,,,,,,,,,,,,,,,,,,,,,,,,,,,,,415.7187021001009,416.73371510009747,416.70041220006533,417.2854473000625,417.2854473000625,None,419.18408570007887,None,left,0.8557103999191895,419.18408570007887,None,420.0723060000455,None,right,0.31922669999767095,420.0723060000455,None,,,,,,,,,,,,,,,,,,,,,,,PPT50,001,2022-07-11_16h46.39.902,ABstudy,2022.1.4,59.95484203206868,
AB,Lag5_T1P_T2P,5,P,P,6,11,5,5,16,scooter,Did you see the scooter?,0.12,0.016,JPG\,thermometer02b,candle08b,comb02a,toothbrush03b,brick,scooter,key01,pineapple01a,candy,birthdaycandle,stapler04b,canoftennisballs,teabag,medal02b,balloon01b,banana01,blankImage,scooter,,,,,,,,,,,,0,38,38,118,,,,,,,,,,,,,,,,,,,,,,,,,,,,,,,,,,,420.4273836000357,421.4384377000388,421.4217404000228,422.0191033000592,422.0191033000592,None,424.0053557000356,None,left,0.7059196999762207,424.0053557000356,None,424.74149380007293,None,right,0.5056379000889137,424.74149380007293,None,,,,,,,,,,,,,,,,,,,,,,,PPT50,001,2022-07-11_16h46.39.902,ABstudy,2022.1.4,59.95484203206868,
AB,Lag1_T1P_T2P,1,P,P,5,6,4,3,9,kangaroo,Did you see the kangaroo?,0.12,0.016,JPG\,candle01,shirt02,brick,orange,kangaroo,stapler03a,pizza,thermometer02b,book01b,blankImage,blankImage,blankImage,blankImage,blankImage,blankImage,blankImage,blankImage,kangaroo,,,,,,,,,,,,0,39,39,16,,,,,,,,,,,,,,,,,,,,,,,,,,,,,,,,,,,425.2777936999919,426.2930472000735,426.2597046000883,426.82886770006735,426.82886770006735,None,428.0594183000503,None,left,1.0684712999500334,428.0594183000503,None,429.14662630006205,None,right,0.5892227999866009,429.14662630006205,None,,,,,,,,,,,,,,,,,,,,,,,PPT50,001,2022-07-11_16h46.39.902,ABstudy,2022.1.4,59.95484203206868,
AB,Lag1_T1A_T2P,1,A,P,6,7,5,5,12,Treadmill,Did you see the Treadmill?,0.12,0.016,JPG\,pencil01,broccoli01a,button01,sponge01,watermelon01,lipstick02a,stapler04b,fan,lighter01,sock01a,spoon01,blueberry01,blankImage,blankImage,blankImage,blankImage,blankImage,magneticcompass,,,,,,,,,,,,0,40,40,238,,,,,,,,,,,,,,,,,,,,,,,,,,,,,,,,,,,429.76755840005353,430.7812484999886,430.7645343000768,431.3630603000056,431.3630603000056,None,432.8357422000263,None,right,1.8594917000737041,432.8357422000263,None,434.7189140000846,None,right,0.8881225999211892,434.7189140000846,None,,,,,,,,,,,,,,,,,,,,,,,PPT50,001,2022-07-11_16h46.39.902,ABstudy,2022.1.4,59.95484203206868,
AB,Lag5_T1P_T2P,5,P,P,5,10,4,5,15,penguin,Did you see the penguin?,0.12,0.016,JPG\,watermelon01,cigarette,pintofbeer,cymbal,penguin,feather03a,cherry01,broom01,battery02b,stapler05,baseball01a,iron01b,garlic01a,computerkeyboard02,pig,blankImage,blankImage,penguin,,,,,,,,,,,,0,41,41,137,,,,,,,,,,,,,,,,,,,,,,,,,,,,,,,,,,,435.64173670008313,436.65379040001426,436.6370077000465,437.23747729999013,437.23747729999013,None,438.9757247000234,None,left,1.1196893999585882,438.9757247000234,None,440.124017400085,None,right,1.4110433999449015,440.124017400085,None,,,,,,,,,,,,,,,,,,,,,,,PPT50,001,2022-07-11_16h46.39.902,ABstudy,2022.1.4,59.95484203206868,
AB,Lag1_T1P_T2P,1,P,P,8,9,7,4,13,kite,Did you see the kite?,0.12,0.016,JPG\,scissors01,balloon01b,eraser,feather03a,banana01,candle01,measuringcup01,kite,stapler04b,strawberry,pear01,carrot01,globe,blankImage,blankImage,blankImage,blankImage,kite,,,,,,,,,,,,0,42,42,17,,,,,,,,,,,,,,,,,,,,,,,,,,,,,,,,,,,441.5616825000616,442.576525600045,442.5428924000589,443.1196082000388,443.1196082000388,None,444.7490738000488,None,left,1.2187736999476328,444.7490738000488,None,445.99610029999167,None,right,0.3316730000078678,445.99610029999167,None,,,,,,,,,,,,,,,,,,,,,,,PPT50,001,2022-07-11_16h46.39.902,ABstudy,2022.1.4,59.95484203206868,
AB,Lag5_T1P_T2P,5,P,P,7,12,6,3,15,Eye patch,Did you see the Eye patch?,0.12,0.016,JPG\,candle01,paintbrush01,scissors01,fan,microscope,toothbrush03b,eyepatch,watermelon01,teabag,pencil01,lemon02,stapler05,shirt02,cauliflower01,cd,blankImage,blankImage,eyepatch,,,,,,,,,,,,0,43,43,108,,,,,,,,,,,,,,,,,,,,,,,,,,,,,,,,,,,446.35409480007365,447.3642005000729,447.3475636000512,447.9287600000389,447.9287600000389,None,449.80457770009525,None,left,1.0511625999351963,449.80457770009525,None,450.88432489999104,None,right,0.5152947000460699,450.88432489999104,None,,,,,,,,,,,,,,,,,,,,,,,PPT50,001,2022-07-11_16h46.39.902,ABstudy,2022.1.4,59.95484203206868,
AB,Lag1_T1P_T2A,1,P,A,6,7,5,4,11,bird,Did you see the bird?,0.12,0.016,JPG\,foosballtable,candy,envelope03a,microscope,pencil01,cedarwaxwing,scissors01,watermelon01,grape01,dandelion,pineapple01a,blankImage,blankImage,blankImage,blankImage,blankImage,blankImage,cedarwaxwing,,,,,,,,,,,,0,44,44,182,,,,,,,,,,,,,,,,,,,,,,,,,,,,,,,,,,,451.42065710003953,452.4362587000942,452.40287220000755,452.9062172000995,452.9062172000995,None,454.3554762999993,None,left,1.1075427000178024,454.3554762999993,None,455.4893338000402,None,right,0.4855839000083506,455.4893338000402,None,,,,,,,,,,,,,,,,,,,,,,,PPT50,001,2022-07-11_16h46.39.902,ABstudy,2022.1.4,59.95484203206868,
AB,Lag1_T1P_T2A,1,P,A,7,8,6,4,12,Steering wheel,Did you see the Steering wheel?,0.12,0.016,JPG\,alligator,banana01,apple07,tomato01,button01,spoon01,steeringwheel,fork03c,canoftennisballs,potato02b,grape01,leaf02a,blankImage,blankImage,blankImage,blankImage,blankImage,steeringwheel,,,,,,,,,,,,0,45,45,198,,,,,,,,,,,,,,,,,,,,,,,,,,,,,,,,,,,456.01306430005934,457.0240251000505,457.0072702000616,457.507821300067,457.507821300067,None,459.0326133000199,None,left,1.0065998999634758,459.0326133000199,None,460.060527499998,None,right,0.2908324000891298,460.060527499998,None,,,,,,,,,,,,,,,,,,,,,,,PPT50,001,2022-07-11_16h46.39.902,ABstudy,2022.1.4,59.95484203206868,
AB,Lag1_T1A_T2P,1,A,P,5,6,4,3,9,Stool,Did you see the Stool?,0.12,0.016,JPG\,cherry01,cymbal,envelope03a,foosballtable,shirt02,stapler01,sewingmachine01a,candle08b,battery02b,blankImage,blankImage,blankImage,blankImage,blankImage,blankImage,blankImage,blankImage,hulahoop,,,,,,,,,,,,0,46,46,236,,,,,,,,,,,,,,,,,,,,,,,,,,,,,,,,,,,460.38260180002544,461.3951229000231,461.37832530005835,461.99695490009617,461.99695490009617,None,463.1123460000381,None,right,1.448177699930966,463.1123460000381,None,464.58173380000517,None,right,0.6657456000102684,464.58173380000517,None,,,,,,,,,,,,,,,,,,,,,,,PPT50,001,2022-07-11_16h46.39.902,ABstudy,2022.1.4,59.95484203206868,
AB,Lag1_T1P_T2P,1,P,P,5,6,4,3,9,elephant,Did you see the elephant?,0.12,0.016,JPG\,celery,brownsugar,key01,sunglasses04,arugula,stapler04b,dice05a,tennisball01b,scarf,blankImage,blankImage,blankImage,blankImage,blankImage,blankImage,blankImage,blankImage,arugula,,,,,,,,,,,,0,47,47,54,,,,,,,,,,,,,,,,,,,,,,,,,,,,,,,,,,,465.3133031000616,466.31673630001023,466.3000824000919,466.8957701000618,466.8957701000618,None,467.9306839000201,None,right,1.2611061000498012,467.9306839000201,None,469.21967090002727,None,right,0.26809959998354316,469.21967090002727,None,,,,,,,,,,,,,,,,,,,,,,,PPT50,001,2022-07-11_16h46.39.902,ABstudy,2022.1.4,59.95484203206868,
AB,Lag1_T1P_T2P,1,P,P,7,8,6,4,12,trophy,Did you see the trophy?,0.12,0.016,JPG\,cherry01,cymbal,envelope03a,foosballtable,shirt02,cellphone,trophy01,stapler04b,battery02b,apple07,pencil01,screwdriver04b,blankImage,blankImage,blankImage,blankImage,blankImage,trophy01,,,,,,,,,,,,0,48,48,74,,,,,,,,,,,,,,,,,,,,,,,,,,,,,,,,,,,469.52482699998654,470.53750690002926,470.5206990999868,471.10173180000857,471.10173180000857,None,472.6002454000991,None,left,0.8310607000021264,472.6002454000991,None,473.4574315000791,None,right,0.4218080999562517,473.4574315000791,None,,,,,,,,,,,,,,,,,,,,,,,PPT50,001,2022-07-11_16h46.39.902,ABstudy,2022.1.4,59.95484203206868,
AB,Lag5_T1A_T2P,5,A,P,8,13,7,4,17,wrench,Did you see the wrench?,0.12,0.016,JPG\,clock01a,grape01,plate01b,key01,screwdriver04b,feather03a,pineapple01a,iron01b,toothbrush03b,comb02a,broom01,toaster01,stapler05,garlic01a,match,ashtray01,blankImage,seal,,,,,,,,,,,,0,49,49,272,,,,,,,,,,,,,,,,,,,,,,,,,,,,,,,,,,,473.91303910000715,474.92527610005345,474.90853370004334,475.50250980001874,475.50250980001874,None,477.4008641000837,None,right,1.302822700003162,477.4008641000837,None,478.7290708000073,None,right,0.3515736000845209,478.7290708000073,None,,,,,,,,,,,,,,,,,,,,,,,PPT50,001,2022-07-11_16h46.39.902,ABstudy,2022.1.4,59.95484203206868,
AB,Lag1_T1A_T2P,1,A,P,8,9,7,4,13,Toolbox,Did you see the Toolbox?,0.12,0.016,JPG\,pizza,printer02,medal02b,spoon01,grape01,lighter01,belt02a,watermelon01,stapler03b,battery02b,screw02,comb02a,cauliflower01,blankImage,blankImage,blankImage,blankImage,ladybug03,,,,,,,,,,,,0,50,50,237,,,,,,,,,,,,,,,,,,,,,,,,,,,,,,,,,,,479.1172845000401,480.1304284000071,480.1138440000359,480.6936760999961,480.6936760999961,None,482.3473526000744,None,left,1.0757921999320388,482.3473526000744,None,483.4501157000195,None,right,0.34997139999177307,483.4501157000195,None,,,,,,,,,,,,,,,,,,,,,,,PPT50,001,2022-07-11_16h46.39.902,ABstudy,2022.1.4,59.95484203206868,
AB,Lag5_T1P_T2P,5,P,P,7,12,6,4,16,Fireplace,Did you see the Fireplace?,0.12,0.016,JPG\,printer02,leaf02a,cauliflower01,sock01a,brownsugar,paintbrush01,fireplace,orange,belt02a,shirt02,key01,stapler01,cigarette,scissors01,envelope03a,blueberry01,blankImage,fireplace,,,,,,,,,,,,0,51,51,88,,,,,,,,,,,,,,,,,,,,,,,,,,,,,,,,,,,483.8212566000875,484.834885600023,484.81816780008376,485.47585250006523,485.39621570007876,None,487.3396474000765,None,left,0.5953186999540776,487.3396474000765,None,487.955615999992,None,right,0.5800717000383884,487.955615999992,None,,,,,,,,,,,,,,,,,,,,,,,PPT50,001,2022-07-11_16h46.39.902,ABstudy,2022.1.4,59.95484203206868,
AB,Lag5_T1P_T2A,5,P,A,6,11,5,4,15,Spear,Did you see the Spear?,0.12,0.016,JPG\,belt02a,measuringcup01,spoon01,chain01,greenolive,spear02,computerkeyboard02,onion,fan,strawberry,candle01,broom01,binoculars01b,ashtray01,pingpongpaddle01c,blankImage,blankImage,spear02,,,,,,,,,,,,0,52,52,227,,,,,,,,,,,,,,,,,,,,,,,,,,,,,,,,,,,488.55772220005747,489.57289370009676,489.53950509999413,490.1324642000254,490.1324642000254,None,491.98788370005786,None,left,1.0511055999668315,491.98788370005786,None,493.06073560006917,None,right,0.5061359999235719,493.06073560006917,None,,,,,,,,,,,,,,,,,,,,,,,PPT50,001,2022-07-11_16h46.39.902,ABstudy,2022.1.4,59.95484203206868,
AB,Lag1_T1P_T2P,1,P,P,8,9,7,4,13,ladder,Did you see the ladder?,0.12,0.016,JPG\,cigarette,fork03c,greenolive,broccoli01a,avocado01,tennisball01b,balloon01b,ladder,stapler03b,fan,clock01a,strawberry,envelope03a,blankImage,blankImage,blankImage,blankImage,ladder,,,,,,,,,,,,0,53,53,45,,,,,,,,,,,,,,,,,,,,,,,,,,,,,,,,,,,493.5990278000245,494.6115970000392,494.5948934000917,495.1812627000036,495.1812627000036,None,496.7721356000984,None,left,0.938764400081709,496.7721356000984,None,497.73100970010273,None,right,0.8609018999850377,497.73100970010273,None,,,,,,,,,,,,,,,,,,,,,,,PPT50,001,2022-07-11_16h46.39.902,ABstudy,2022.1.4,59.95484203206868,
AB,Lag1_T1P_T2P,1,P,P,6,7,5,5,12,snowman,Did you see the snowman?,0.12,0.016,JPG\,comb02a,watch02a,scissors01,dice05a,tableknife02,snowman,stapler03a,printer02,dandelion,spoon01,ashtray01,battery02b,blankImage,blankImage,blankImage,blankImage,blankImage,snowman,,,,,,,,,,,,0,54,54,4,,,,,,,,,,,,,,,,,,,,,,,,,,,,,,,,,,,498.6188383999979,499.63323050003964,499.5998730000574,500.26814589998685,500.26814589998685,None,501.6387140000006,None,left,0.7610445000464097,501.6387140000006,None,502.43341850000434,None,right,0.44544269994366914,502.43341850000434,None,,,,,,,,,,,,,,,,,,,,,,,PPT50,001,2022-07-11_16h46.39.902,ABstudy,2022.1.4,59.95484203206868,
AB,Lag1_T1P_T2P,1,P,P,6,7,5,3,10,elephant,Did you see the elephant?,0.12,0.016,JPG\,clock01a,grape01,plate01b,key01,screwdriver04b,africanelephant,stapler03b,iron01b,toothbrush03b,comb02a,blankImage,blankImage,blankImage,blankImage,blankImage,blankImage,blankImage,africanelephant,,,,,,,,,,,,0,55,55,31,,,,,,,,,,,,,,,,,,,,,,,,,,,,,,,,,,,502.91536020010244,503.9213187000714,503.9050400000997,504.4949065000983,504.4949065000983,None,505.7583747000899,None,left,1.273032100056298,505.7583747000899,None,507.0576292000478,None,left,1.2535848999395967,507.0576292000478,None,,,,,,,,,,,,,,,,,,,,,,,PPT50,001,2022-07-11_16h46.39.902,ABstudy,2022.1.4,59.95484203206868,
AB,Lag5_T1P_T2P,5,P,P,7,12,6,3,15,lips,Did you see the lips?,0.12,0.016,JPG\,cigarette,fork03c,greenolive,broccoli01a,avocado01,tennisball01b,lip,leaf02a,pig,fan,clock01a,stapler03a,envelope03a,birthdaycandle,teabag,blankImage,blankImage,lip,,,,,,,,,,,,0,56,56,95,,,,,,,,,,,,,,,,,,,,,,,,,,,,,,,,,,,508.3420750000514,509.3429102000082,509.32635570003185,509.8853278000606,509.8853278000606,None,511.7396388000343,None,left,0.5408880000468343,511.7396388000343,None,512.3121537000407,None,left,0.26334269996732473,512.3121537000407,None,,,,,,,,,,,,,,,,,,,,,,,PPT50,001,2022-07-11_16h46.39.902,ABstudy,2022.1.4,59.95484203206868,
AB,Lag1_T1P_T2P,1,P,P,5,6,4,4,10,skateboard,Did you see the skateboard?,0.12,0.016,JPG\,binoculars01b,cymbal,pizza,candy,skateboard,stapler05,grape01,thermometer02b,speaker04,lemon02,blankImage,blankImage,blankImage,blankImage,blankImage,blankImage,blankImage,skateboard,,,,,,,,,,,,0,57,57,25,,,,,,,,,,,,,,,,,,,,,,,,,,,,,,,,,,,512.5980674000457,513.6135062000249,513.5800616000779,514.1670769000193,514.1670769000193,None,515.4215557000134,None,left,0.985951800015755,515.4215557000134,None,516.4332774000941,None,right,0.44606759992893785,516.4332774000941,None,,,,,,,,,,,,,,,,,,,,,,,PPT50,001,2022-07-11_16h46.39.902,ABstudy,2022.1.4,59.95484203206868,
AB,Lag5_T1P_T2P,5,P,P,7,12,6,5,17,American football helmet,Did you see the American football helmet?,0.12,0.016,JPG\,alligator,banana01,apple07,tomato01,button01,spoon01,footballhelmet,fork03c,slipper03b,potato02b,grape01,stapler03b,teabag,screwdriver04b,hammer01,tennisball01b,blankImage,footballhelmet,,,,,,,,,,,,0,58,58,148,,,,,,,,,,,,,,,,,,,,,,,,,,,,,,,,,,,516.9033084000694,517.9183654000517,517.9026978000766,518.4050373000791,518.4050373000791,None,520.4152866000077,None,left,1.0404281000373885,520.4152866000077,None,521.4882452000165,None,right,0.31900350004434586,521.4882452000165,None,,,,,,,,,,,,,,,,,,,,,,,PPT50,001,2022-07-11_16h46.39.902,ABstudy,2022.1.4,59.95484203206868,
AB,Lag5_T1P_T2A,5,P,A,8,13,7,3,16,Shelves,Did you see the Shelves?,0.12,0.016,JPG\,pineapple01a,leaf02a,grape01,toiletpaper01a,match,tennisball01b,spoon01,shelves,pig,measuringcup01,ring01,lemon02,dice05a,pizza,potato02b,eraser,blankImage,shelves,,,,,,,,,,,,0,59,59,222,,,,,,,,,,,,,,,,,,,,,,,,,,,,,,,,,,,521.8997117000399,522.9061282000039,522.889442600077,523.4724572000559,523.4724572000559,None,525.3712698000018,None,left,1.348780500004068,525.3712698000018,None,526.7436785000609,None,left,1.2552967999363318,526.7436785000609,None,,,,,,,,,,,,,,,,,,,,,,,PPT50,001,2022-07-11_16h46.39.902,ABstudy,2022.1.4,59.95484203206868,
AB,Lag5_T1A_T2P,5,A,P,7,12,6,5,17,funnel,Did you see the funnel?,0.12,0.016,JPG\,iron01b,orange,birthdaycandle,potato02b,cauliflower01,pencil01,key01,candle08b,celery,tableknife02,pen04b,stapler04b,ring01,rice,lemon02,tomato01,blankImage,englishcucumber,,,,,,,,,,,,0,60,60,259,,,,,,,,,,,,,,,,,,,,,,,,,,,,,,,,,,,528.0327197000152,529.0457677000668,529.0291216000915,529.6058448000113,529.6058448000113,None,531.6033714000368,None,right,2.5571905999677256,531.6033714000368,None,534.1843584000599,None,right,0.4704928999999538,534.1843584000599,None,,,,,,,,,,,,,,,,,,,,,,,PPT50,001,2022-07-11_16h46.39.902,ABstudy,2022.1.4,59.95484203206868,
AB,Lag5_T1A_T2A,5,A,A,5,10,4,5,15,sword,Did you see the sword?,0.12,0.016,JPG\,pencil01,broccoli01a,button01,sponge01,watermelon01,lipstick02a,comb02a,fan,lighter01,sock01a,spoon01,blueberry01,belt02a,onion,grape01,blankImage,blankImage,parachute,,,,,,,,,,,,0,61,61,298,,,,,,,,,,,,,,,,,,,,,,,,,,,,,,,,,,,534.6886445001,535.7023349000374,535.6855707000941,536.2822030000389,536.2822030000389,None,538.1209696000442,None,right,2.9905404000310227,538.1209696000442,None,541.1412198999897,None,right,0.729630499961786,541.1412198999897,None,,,,,,,,,,,,,,,,,,,,,,,PPT50,001,2022-07-11_16h46.39.902,ABstudy,2022.1.4,59.95484203206868,
AB,Lag5_T1P_T2P,5,P,P,7,12,6,5,17,Pigeon,Did you see the Pigeon?,0.12,0.016,JPG\,strawberry,leaf02a,clock04,candle01,avocado01,paintbrush01,pigeon,brownsugar,ring01,lemon02,fork03c,stapler01,cauliflower01,tableknife02,tennisball01b,thermometer02b,blankImage,pigeon,,,,,,,,,,,,0,62,62,151,,,,,,,,,,,,,,,,,,,,,,,,,,,,,,,,,,,541.8921323000686,542.8926510000601,542.8760117000202,543.5159663000377,543.5159663000377,None,545.4274782000575,None,left,0.6917457999661565,545.4274782000575,None,546.1462185001001,None,left,0.286105899955146,546.1462185001001,None,,,,,,,,,,,,,,,,,,,,,,,PPT50,001,2022-07-11_16h46.39.902,ABstudy,2022.1.4,59.95484203206868,
AB,Lag5_T1P_T2P,5,P,P,7,12,6,5,17,elbow,Did you see the elbow?,0.12,0.016,JPG\,candle01,fork03c,plate01b,violin,computerkeyboard02,candy,elbow,paintbrush01,cherry01,sock01a,teabag,stapler01,cd,lighter01,book01b,tennisball01b,blankImage,elbow,,,,,,,,,,,,0,63,63,87,,,,,,,,,,,,,,,,,,,,,,,,,,,,,,,,,,,546.4680489000166,547.4806760000065,547.4642051000847,548.028786500101,548.028786500101,None,550.0511479000561,None,right,1.7558381999842823,550.0511479000561,None,551.8352444000775,None,left,0.8681321999756619,551.8352444000775,None,,,,,,,,,,,,,,,,,,,,,,,PPT50,001,2022-07-11_16h46.39.902,ABstudy,2022.1.4,59.95484203206868,
AB,Lag1_T1P_T2P,1,P,P,6,7,5,4,11,no parking sign,Did you see the no parking sign?,0.12,0.016,JPG\,fork03c,belt02a,grape01,computerkeyboard02,lemon02,parkingsign,stapler05,toiletpaper01a,toaster01,lipstick02a,book01b,blankImage,blankImage,blankImage,blankImage,blankImage,blankImage,parkingsign,,,,,,,,,,,,0,64,64,47,,,,,,,,,,,,,,,,,,,,,,,,,,,,,,,,,,,552.7984346000012,553.803721500095,553.7869895000476,554.3647351000691,554.3647351000691,None,555.6802497000899,None,left,1.4791860000696033,555.6802497000899,None,557.1931048000697,None,right,0.5834212000481784,557.1931048000697,None,,,,,,,,,,,,,,,,,,,,,,,PPT50,001,2022-07-11_16h46.39.902,ABstudy,2022.1.4,59.95484203206868,
AB,Lag1_T1P_T2P,1,P,P,7,8,6,4,12,rooster,Did you see the rooster?,0.12,0.016,JPG\,pizza,strawberry,potato02b,speaker04,battery02b,iron01b,rooster,stapler03b,globe,banana01,medal02b,baseball01a,blankImage,blankImage,blankImage,blankImage,blankImage,rooster,,,,,,,,,,,,0,65,65,69,,,,,,,,,,,,,,,,,,,,,,,,,,,,,,,,,,,557.8172872000141,558.8257599000353,558.8100904000457,559.4633165000705,559.4633165000705,None,560.9133469000226,None,left,1.453485200065188,560.9133469000226,None,562.3956389999948,None,right,0.3712146000470966,562.3956389999948,None,,,,,,,,,,,,,,,,,,,,,,,PPT50,001,2022-07-11_16h46.39.902,ABstudy,2022.1.4,59.95484203206868,
AB,Lag1_T1P_T2P,1,P,P,8,9,7,3,12,Wheelchair,Did you see the Wheelchair?,0.12,0.016,JPG\,cigarette,pig,banana01,strawberry,clock01a,plate01b,spoon01,wheelchair,stapler03b,pineapple01a,chain01,paintbrush01,blankImage,blankImage,blankImage,blankImage,blankImage,wheelchair,,,,,,,,,,,,0,66,66,27,,,,,,,,,,,,,,,,,,,,,,,,,,,,,,,,,,,562.8492237000028,563.8637231000466,563.8469423000934,564.441938300035,564.441938300035,None,565.8521174000343,None,left,0.9624659999972209,565.8521174000343,None,566.8335504001006,None,left,0.28603689989540726,566.8335504001006,None,,,,,,,,,,,,,,,,,,,,,,,PPT50,001,2022-07-11_16h46.39.902,ABstudy,2022.1.4,59.95484203206868,
AB,Lag1_T1P_T2A,1,P,A,7,8,6,4,12,gorilla,Did you see the gorilla?,0.12,0.016,JPG\,scissors01,ashtray01,garlic01a,medal02b,cigarette,candle08b,gorilla,envelope03a,cucumber,rice,toiletpaper01a,greenolive,blankImage,blankImage,blankImage,blankImage,blankImage,gorilla,,,,,,,,,,,,0,67,67,189,,,,,,,,,,,,,,,,,,,,,,,,,,,,,,,,,,,567.1538150000852,568.1679950000253,568.1512594000669,568.7335774000967,568.7335774000967,None,570.1704680999974,None,left,1.0444012000225484,570.1704680999974,None,571.2375209000893,None,right,0.3213675000006333,571.2375209000893,None,,,,,,,,,,,,,,,,,,,,,,,PPT50,001,2022-07-11_16h46.39.902,ABstudy,2022.1.4,59.95484203206868,
AB,Lag5_T1P_T2P,5,P,P,8,13,7,3,16,shrimp,Did you see the shrimp?,0.12,0.016,JPG\,globe,belt02a,sponge01,violin,fork03c,tomato01,clock01a,cocktailshrimp02,balloon01b,scarf,teabag,pen04b,stapler03a,brownsugar,speaker04,screwdriver04b,blankImage,cocktailshrimp02,,,,,,,,,,,,0,68,68,169,,,,,,,,,,,,,,,,,,,,,,,,,,,,,,,,,,,571.643114500097,572.6558305000653,572.6391038000584,573.2336807000684,573.2336807000684,None,575.0939942999976,None,left,0.7447296000318602,575.0939942999976,None,575.8591908999952,None,right,0.3245091999415308,575.8591908999952,None,,,,,,,,,,,,,,,,,,,,,,,PPT50,001,2022-07-11_16h46.39.902,ABstudy,2022.1.4,59.95484203206868,
AB,Lag1_T1P_T2P,1,P,P,8,9,7,3,12,Sheep,Did you see the Sheep?,0.12,0.016,JPG\,celery,orange,scissors01,balloon01b,avocado01,printer02,mushroom01,sheep,stapler03b,dice05a,ashtray01,fan,blankImage,blankImage,blankImage,blankImage,blankImage,sheep,,,,,,,,,,,,0,69,69,71,,,,,,,,,,,,,,,,,,,,,,,,,,,,,,,,,,,576.2147051000502,577.2270193999866,577.2102691000327,577.799197299988,577.799197299988,None,579.2858793000923,None,left,0.9855848998995498,579.2858793000923,None,580.296923100017,None,left,0.23046290001366287,580.296923100017,None,,,,,,,,,,,,,,,,,,,,,,,PPT50,001,2022-07-11_16h46.39.902,ABstudy,2022.1.4,59.95484203206868,
AB,Lag1_T1P_T2P,1,P,P,6,7,5,3,10,fortune cookie,Did you see the fortune cookie?,0.12,0.016,JPG\,scissors01,grape01,mushroom01,toiletpaper01a,greenolive,fortunecookie,stapler03b,ashtray01,carrot01,pineapple01a,blankImage,blankImage,blankImage,blankImage,blankImage,blankImage,blankImage,fortunecookie,,,,,,,,,,,,0,70,70,42,,,,,,,,,,,,,,,,,,,,,,,,,,,,,,,,,,,580.5532374000177,581.5647043000208,581.5479794000275,582.1210370000917,582.1210370000917,None,583.3400452000787,None,left,1.2037343999836594,583.3400452000787,None,584.5674537000014,None,right,0.495444200001657,584.5674537000014,None,,,,,,,,,,,,,,,,,,,,,,,PPT50,001,2022-07-11_16h46.39.902,ABstudy,2022.1.4,59.95484203206868,
AB,Lag5_T1P_T2P,5,P,P,6,11,5,5,16,keys,Did you see the keys?,0.12,0.016,JPG\,toiletpaper01a,mushroom01,medal02b,sandal,rice,foldingchair,feather03a,pizza,candle08b,garlic01a,stapler01,belt02a,cigarette,violin,lemon02,fork03c,blankImage,foldingchair,,,,,,,,,,,,0,71,71,125,,,,,,,,,,,,,,,,,,,,,,,,,,,,,,,,,,,585.086914399988,586.1023592000129,586.0689943000907,586.6598626000341,586.6598626000341,None,588.6141956000356,None,left,1.3530204000417143,588.6141956000356,None,589.989719800069,None,left,0.2735224000643939,589.989719800069,None,,,,,,,,,,,,,,,,,,,,,,,PPT50,001,2022-07-11_16h46.39.902,ABstudy,2022.1.4,59.95484203206868,
AB,Lag5_T1P_T2P,5,P,P,5,10,4,3,13,bathtub,Did you see the bathtub?,0.12,0.016,JPG\,belt02a,sunglasses04,computerkeyboard02,cherry01,bathtub,eraser,watch02a,dice05a,blueberry01,stapler04b,match,leaf02a,iron01b,blankImage,blankImage,blankImage,blankImage,bathtub,,,,,,,,,,,,0,72,72,103,,,,,,,,,,,,,,,,,,,,,,,,,,,,,,,,,,,590.2921219000127,591.3075244000647,591.2741752000293,591.8532718000934,591.8532718000934,None,593.4181835000636,None,left,1.085341600002721,593.4181835000636,None,594.5278670000844,None,left,0.19860689993947744,594.5278670000844,None,,,,,,,,,,,,,,,,,,,,,,,PPT50,001,2022-07-11_16h46.39.902,ABstudy,2022.1.4,59.95484203206868,
AB,Lag1_T1P_T2P,1,P,P,5,6,4,5,11,squirrel,Did you see the squirrel?,0.12,0.016,JPG\,pencil01,orange,clock01a,sponge01,squirrel,stapler05,lipstick02a,strawberry,book01b,mushroom01,envelope03a,blankImage,blankImage,blankImage,blankImage,blankImage,blankImage,squirrel,,,,,,,,,,,,0,73,73,5,,,,,,,,,,,,,,,,,,,,,,,,,,,,,,,,,,,594.7536840999965,595.7623567000264,595.745814200025,596.3072129000211,596.3072129000211,None,597.7338352000806,None,left,1.2896334999240935,597.7338352000806,None,599.0489054000936,None,left,1.1337666999315843,599.0489054000936,None,,,,,,,,,,,,,,,,,,,,,,,PPT50,001,2022-07-11_16h46.39.902,ABstudy,2022.1.4,59.95484203206868,
AB,Lag5_T1A_T2A,5,A,A,5,10,4,4,14,music sheet,Did you see the music sheet?,0.12,0.016,JPG\,celery,pencil01,fan,foosballtable,iron01b,shirt02,potato02b,fork03c,button01,pineapple01a,baseball01a,printer02,cauliflower01,dandelion,blankImage,blankImage,blankImage,licenseplate,,,,,,,,,,,,0,74,74,304,,,,,,,,,,,,,,,,,,,,,,,,,,,,,,,,,,,600.2052887000609,601.2176589000737,601.200794900069,601.7878787000664,601.7878787000664,None,603.3897477000719,None,right,1.233829600038007,603.3897477000719,None,604.6543714000145,None,right,0.4320670000743121,604.6543714000145,None,,,,,,,,,,,,,,,,,,,,,,,PPT50,001,2022-07-11_16h46.39.902,ABstudy,2022.1.4,59.95484203206868,
AB,Lag1_T1A_T2P,1,A,P,5,6,4,3,9,Crown,Did you see the Crown?,0.12,0.016,JPG\,leaf02a,pear01,measuringcup01,cigarette,fan,stapler04b,teabag,tableknife02,ring01,blankImage,blankImage,blankImage,blankImage,blankImage,blankImage,blankImage,blankImage,arrow02,,,,,,,,,,,,0,75,75,248,,,,,,,,,,,,,,,,,,,,,,,,,,,,,,,,,,,605.1106102000922,606.122467600042,606.1056938000256,606.6891761000734,606.6891761000734,None,607.8292866999982,None,right,2.466053400072269,607.8292866999982,None,610.3408885000972,None,right,0.6824568000156432,610.3408885000972,None,,,,,,,,,,,,,,,,,,,,,,,PPT50,001,2022-07-11_16h46.39.902,ABstudy,2022.1.4,59.95484203206868,
AB,Lag1_T1P_T2A,1,P,A,7,8,6,4,12,gate,Did you see the gate?,0.12,0.016,JPG\,pen04b,speaker04,lighter01,cherry01,pintofbeer,onion,entrancegate,toothbrush03b,broom01,sewingmachine01a,book01b,iron01b,blankImage,blankImage,blankImage,blankImage,blankImage,entrancegate,,,,,,,,,,,,0,76,76,187,,,,,,,,,,,,,,,,,,,,,,,,,,,,,,,,,,,611.0524004000472,612.0620702999877,612.0463536999887,612.6351759000681,612.6351759000681,None,614.107696000021,None,left,0.571064000017941,614.107696000021,None,614.7003840000834,None,right,0.6502132000168785,614.7003840000834,None,,,,,,,,,,,,,,,,,,,,,,,PPT50,001,2022-07-11_16h46.39.902,ABstudy,2022.1.4,59.95484203206868,
AB,Lag5_T1A_T2P,5,A,P,6,11,5,3,14,saxophone,Did you see the saxophone?,0.12,0.016,JPG\,globe,belt02a,sponge01,violin,fork03c,tomato01,clock01a,microscope,balloon01b,scarf,stapler03b,pen04b,brick,brownsugar,blankImage,blankImage,blankImage,microphone01,,,,,,,,,,,,0,77,77,267,,,,,,,,,,,,,,,,,,,,,,,,,,,,,,,,,,,615.3923983999994,616.4000181000447,616.3845053000841,616.9811019999906,616.9811019999906,None,618.6289745999966,None,left,0.9380555000388995,618.6289745999966,None,619.5860538000707,None,right,0.3099447999848053,619.5860538000707,None,,,,,,,,,,,,,,,,,,,,,,,PPT50,001,2022-07-11_16h46.39.902,ABstudy,2022.1.4,59.95484203206868,
AB,Lag1_T1A_T2P,1,A,P,8,9,7,5,14,calendar,Did you see the calendar?,0.12,0.016,JPG\,foosballtable,candy,envelope03a,microscope,pencil01,leaf02a,scissors01,watermelon01,stapler04b,dandelion,pineapple01a,hammer01,celery,thermometer02b,blankImage,blankImage,blankImage,trampoline,,,,,,,,,,,,0,78,78,245,,,,,,,,,,,,,,,,,,,,,,,,,,,,,,,,,,,619.9236704000505,620.9371319999918,620.9204955000896,621.4216631000163,621.4216631000163,None,623.1847599000903,None,right,1.749716299935244,623.1847599000903,None,624.9586118001025,None,right,0.6089641000144184,624.9586118001025,None,,,,,,,,,,,,,,,,,,,,,,,PPT50,001,2022-07-11_16h46.39.902,ABstudy,2022.1.4,59.95484203206868,
AB,Lag5_T1P_T2P,5,P,P,8,13,7,3,16,Chefs hat,Did you see the Chefs hat?,0.12,0.016,JPG\,rice,watermelon01,tableknife02,scarf,computerkeyboard02,cauliflower01,battery02b,chefshat,book01b,sandal,sponge01,microscope,stapler01,fork03c,thermometer02b,apple07,blankImage,chefshat,,,,,,,,,,,,0,79,79,128,,,,,,,,,,,,,,,,,,,,,,,,,,,,,,,,,,,625.6002675000345,626.6096375000197,626.5930170000065,627.1945001001004,627.1945001001004,None,629.1682093000272,None,right,1.030293200048618,629.1682093000272,None,630.2298232000321,None,right,0.6485905000008643,630.2298232000321,None,,,,,,,,,,,,,,,,,,,,,,,PPT50,001,2022-07-11_16h46.39.902,ABstudy,2022.1.4,59.95484203206868,
AB,Lag1_T1P_T2A,1,P,A,5,6,4,5,11,Toaster oven,Did you see the Toaster oven?,0.12,0.016,JPG\,fork03c,toothbrush03b,cellphone,fan,toasteroven,clock01a,ring01,eraser,sunglasses04,thermometer02b,violin,blankImage,blankImage,blankImage,blankImage,blankImage,blankImage,toasteroven,,,,,,,,,,,,0,80,80,200,,,,,,,,,,,,,,,,,,,,,,,,,,,,,,,,,,,630.8994685000507,631.9149164000992,631.8815719000995,632.4466360000661,632.4466360000661,None,633.8462677000789,None,left,1.0887066000141203,633.8462677000789,None,634.9676656000083,None,right,0.7191125999670476,634.9676656000083,None,,,,,,,,,,,,,,,,,,,,,,,PPT50,001,2022-07-11_16h46.39.902,ABstudy,2022.1.4,59.95484203206868,
AB,Lag1_T1P_T2P,1,P,P,7,8,6,3,11,compass,Did you see the compass?,0.12,0.016,JPG\,brick,plate01b,pen04b,toaster01,screwdriver04b,candle01,magneticcompass,stapler03a,pig,ring01,orange,blankImage,blankImage,blankImage,blankImage,blankImage,blankImage,magneticcompass,,,,,,,,,,,,0,81,81,66,,,,,,,,,,,,,,,,,,,,,,,,,,,,,,,,,,,635.721289100009,636.7361018999945,636.7027352000587,637.296219300013,637.296219300013,None,638.6292673000135,None,right,1.3373695000773296,638.6292673000135,None,639.9893967000535,None,right,1.0500837999861687,639.9893967000535,None,,,,,,,,,,,,,,,,,,,,,,,PPT50,001,2022-07-11_16h46.39.902,ABstudy,2022.1.4,59.95484203206868,
AB,Lag5_T1P_T2P,5,P,P,5,10,4,5,15,rake,Did you see the rake?,0.12,0.016,JPG\,scissors01,grape01,mushroom01,toiletpaper01a,leafrake,pizza,cigarette,ashtray01,carrot01,stapler03b,foosballtable,lipstick02a,teabag,acorn,potato02b,blankImage,blankImage,leafrake,,,,,,,,,,,,0,82,82,92,,,,,,,,,,,,,,,,,,,,,,,,,,,,,,,,,,,641.0592985000694,642.0746875000186,642.0413559000008,642.6429987000301,642.6429987000301,None,644.4812040000688,None,left,0.749435400008224,644.4812040000688,None,645.2611991000595,None,right,0.8177410999778658,645.2611991000595,None,,,,,,,,,,,,,,,,,,,,,,,PPT50,001,2022-07-11_16h46.39.902,ABstudy,2022.1.4,59.95484203206868,
AB,Lag1_T1P_T2A,1,P,A,6,7,5,5,12,foot,Did you see the foot?,0.12,0.016,JPG\,watermelon01,cigarette,weight04a,cymbal,cauliflower01,foot,cherry01,broom01,battery02b,key01,baseball01a,iron01b,blankImage,blankImage,blankImage,blankImage,blankImage,foot,,,,,,,,,,,,0,83,83,188,,,,,,,,,,,,,,,,,,,,,,,,,,,,,,,,,,,646.1062435000204,647.1128432000987,647.096213700017,647.7110072000651,647.7110072000651,None,649.1786465999903,None,left,0.8533560000360012,649.1786465999903,None,650.0491221999982,None,right,2.005212499992922,650.0491221999982,None,,,,,,,,,,,,,,,,,,,,,,,PPT50,001,2022-07-11_16h46.39.902,ABstudy,2022.1.4,59.95484203206868,
AB,Lag1_T1P_T2P,1,P,P,5,6,4,3,9,hockey stick,Did you see the hockey stick?,0.12,0.016,JPG\,violin,pizza,toothbrush03b,pineapple01a,hockeystick,stapler03b,candy,dandelion,clock04,blankImage,blankImage,blankImage,blankImage,blankImage,blankImage,blankImage,blankImage,hockeystick,,,,,,,,,,,,0,84,84,63,,,,,,,,,,,,,,,,,,,,,,,,,,,,,,,,,,,652.0912626000354,653.1026924999896,653.0859964000992,653.6764911999926,653.6764911999926,None,654.8006991000148,None,left,1.4543266000691801,654.8006991000148,None,656.2721888000378,None,right,0.3599425000138581,656.2721888000378,None,,,,,,,,,,,,,,,,,,,,,,,PPT50,001,2022-07-11_16h46.39.902,ABstudy,2022.1.4,59.95484203206868,
AB,Lag1_T1P_T2P,1,P,P,5,6,4,3,9,Pumpkin,Did you see the Pumpkin?,0.12,0.016,JPG\,binoculars01b,speaker04,sandal,envelope03a,pumpkin,stapler03b,battery02b,chain01,measuringcup01,blankImage,blankImage,blankImage,blankImage,blankImage,blankImage,blankImage,blankImage,pumpkin,,,,,,,,,,,,0,85,85,23,,,,,,,,,,,,,,,,,,,,,,,,,,,,,,,,,,,656.6960361000383,657.7071747001028,657.690376500017,658.2824195000576,658.2824195000576,None,659.3149888000917,None,left,1.7249446999048814,659.3149888000917,None,661.0606662000064,None,right,0.4584535000612959,661.0606662000064,None,,,,,,,,,,,,,,,,,,,,,,,PPT50,001,2022-07-11_16h46.39.902,ABstudy,2022.1.4,59.95484203206868,
AB,Lag1_T1P_T2P,1,P,P,7,8,6,4,12,skunk,Did you see the skunk?,0.12,0.016,JPG\,fan,tomato01,candy,screwdriver04b,alligator,cd,skunk,stapler03b,button01,plate01b,brownsugar,lighter01,blankImage,blankImage,blankImage,blankImage,blankImage,skunk,,,,,,,,,,,,0,86,86,48,,,,,,,,,,,,,,,,,,,,,,,,,,,,,,,,,,,661.5480579000432,662.5619124000659,662.5452414000174,663.1963400000241,663.1177126000402,None,664.6644930000184,None,right,1.4788828999735415,664.6644930000184,None,666.1683049000567,None,right,0.5900347999995574,666.1683049000567,None,,,,,,,,,,,,,,,,,,,,,,,PPT50,001,2022-07-11_16h46.39.902,ABstudy,2022.1.4,59.95484203206868,
AB,Lag1_T1A_T2A,1,A,A,8,9,7,4,13,sword fish,Did you see the sword fish?,0.12,0.016,JPG\,pizza,strawberry,potato02b,speaker04,battery02b,iron01b,dice05a,cellphone,globe,banana01,medal02b,baseball01a,toaster01,blankImage,blankImage,blankImage,blankImage,ear,,,,,,,,,,,,0,87,87,295,,,,,,,,,,,,,,,,,,,,,,,,,,,,,,,,,,,666.7969961999916,667.8012978000334,667.7856273000361,668.4063064000802,668.4063064000802,None,669.9695188000333,None,right,1.0937169999815524,669.9695188000333,None,671.0868923000526,None,right,0.36736869998276234,671.0868923000526,None,,,,,,,,,,,,,,,,,,,,,,,PPT50,001,2022-07-11_16h46.39.902,ABstudy,2022.1.4,59.95484203206868,
AB,Lag5_T1P_T2P,5,P,P,6,11,5,5,16,table,Did you see the table?,0.12,0.016,JPG\,birthdaycandle,mushroom01,strawberry,match,cherry01,table01,hammer01,thermometer02b,sock01a,ring01,stapler06,banana01,toiletpaper01a,key01,sponge01,teabag,blankImage,table01,,,,,,,,,,,,0,88,88,144,,,,,,,,,,,,,,,,,,,,,,,,,,,,,,,,,,,671.4730312000029,672.4718973001,672.4554513000185,672.9586922000162,672.9586922000162,None,674.9986681001028,None,right,2.024053500033915,674.9986681001028,None,677.0442277000984,None,right,0.9223160000983626,677.0442277000984,None,,,,,,,,,,,,,,,,,,,,,,,PPT50,001,2022-07-11_16h46.39.902,ABstudy,2022.1.4,59.95484203206868,
AB,Lag1_T1P_T2A,1,P,A,5,6,4,4,10,bird,Did you see the bird?,0.12,0.016,JPG\,toaster01,scarf,toiletpaper01a,calculator01,swallow,sewingmachine01a,fan,teabag,strawberry,balloon01b,blankImage,blankImage,blankImage,blankImage,blankImage,blankImage,blankImage,swallow,,,,,,,,,,,,0,89,89,195,,,,,,,,,,,,,,,,,,,,,,,,,,,,,,,,,,,677.9988135000458,679.0118771000998,678.9972414000658,679.6670421999879,679.5882985000499,None,680.8215027000988,None,left,0.5927676000865176,680.8215027000988,None,681.4333817000734,None,right,0.5258932000724599,681.4333817000734,None,,,,,,,,,,,,,,,,,,,,,,,PPT50,001,2022-07-11_16h46.39.902,ABstudy,2022.1.4,59.95484203206868,
AB,Lag1_T1P_T2P,1,P,P,7,8,6,4,12,cow,Did you see the cow?,0.12,0.016,JPG\,fork03c,plate01b,toiletpaper01a,greenolive,rice,blueberry01,cow,stapler01,envelope03a,orange,book01b,pencil01,blankImage,blankImage,blankImage,blankImage,blankImage,cow,,,,,,,,,,,,0,90,90,59,,,,,,,,,,,,,,,,,,,,,,,,,,,,,,,,,,,681.9924616999924,682.9996951000066,682.9841182000237,683.6157804999966,683.546229800093,None,685.0907329000765,None,left,0.3163640999700874,685.0907329000765,None,685.4356047000038,None,right,0.6352935000322759,685.4356047000038,None,,,,,,,,,,,,,,,,,,,,,,,PPT50,001,2022-07-11_16h46.39.902,ABstudy,2022.1.4,59.95484203206868,
AB,Lag5_T1P_T2P,5,P,P,5,10,4,5,15,Bee,Did you see the Bee?,0.12,0.016,JPG\,fork03c,dandelion,dice05a,belt02a,honeybee,watch02a,key01,globe,eraser,stapler03a,greenolive,shirt02,candle08b,cigarette,garlic01a,blankImage,blankImage,honeybee,,,,,,,,,,,,0,91,91,149,,,,,,,,,,,,,,,,,,,,,,,,,,,,,,,,,,,686.1049866999965,687.1037034000037,687.0879683000967,687.7485914001008,687.6744831000688,None,689.543853500043,None,left,1.5346371999476105,689.543853500043,None,691.107250400004,None,left,0.26810729992575943,691.107250400004,None,,,,,,,,,,,,,,,,,,,,,,,PPT50,001,2022-07-11_16h46.39.902,ABstudy,2022.1.4,59.95484203206868,
AB,Lag1_T1P_T2P,1,P,P,6,7,5,3,10,handcuffs,Did you see the handcuffs?,0.12,0.016,JPG\,sewingmachine01a,scarf,carrot01,book01b,eraser,handcuffs,stapler05,lipstick02a,printer02,garlic01a,blankImage,blankImage,blankImage,blankImage,blankImage,blankImage,blankImage,handcuffs,,,,,,,,,,,,0,92,92,2,,,,,,,,,,,,,,,,,,,,,,,,,,,,,,,,,,,691.4128332000691,692.4246727999998,692.4079695000546,693.0065004000207,693.0065004000207,None,694.256254900014,None,left,0.7023144999984652,694.256254900014,None,694.9777700999985,None,left,0.6365217000711709,694.9777700999985,None,,,,,,,,,,,,,,,,,,,,,,,PPT50,001,2022-07-11_16h46.39.902,ABstudy,2022.1.4,59.95484203206868,
AB,Lag5_T1P_T2P,5,P,P,5,10,4,5,15,Safe,Did you see the Safe?,0.12,0.016,JPG\,candle01,shirt02,brick,orange,safe,toothbrush03b,pizza,thermometer02b,book01b,stapler01,sewingmachine01a,toaster01,candy,cymbal,potato02b,blankImage,blankImage,safe,,,,,,,,,,,,0,93,93,159,,,,,,,,,,,,,,,,,,,,,,,,,,,,,,,,,,,695.6497647000942,696.662611000007,696.6458096000133,697.2354666000465,697.2354666000465,None,699.1073383000912,None,left,1.2831956000300124,699.1073383000912,None,700.4164555000607,None,left,0.19785739993676543,700.4164555000607,None,,,,,,,,,,,,,,,,,,,,,,,PPT50,001,2022-07-11_16h46.39.902,ABstudy,2022.1.4,59.95484203206868,
AB,Lag5_T1P_T2P,5,P,P,6,11,5,4,15,shovel,Did you see the shovel?,0.12,0.016,JPG\,carrot01,watch02a,clock04,microscope,toiletpaper01a,shovel01,alligator,ring01,brick,watermelon01,stapler03b,pencil01,measuringcup01,balloon01b,computerkeyboard02,blankImage,blankImage,shovel01,,,,,,,,,,,,0,94,94,139,,,,,,,,,,,,,,,,,,,,,,,,,,,,,,,,,,,700.6389948000433,701.6507339000236,701.6361722000875,702.2856333000818,702.2116107000038,None,704.0509732000064,None,right,3.003505300031975,704.0509732000064,None,707.0727759000147,None,left,0.5335823999485001,707.0727759000147,None,,,,,,,,,,,,,,,,,,,,,,,PPT50,001,2022-07-11_16h46.39.902,ABstudy,2022.1.4,59.95484203206868,
AB,Lag1_T1P_T2P,1,P,P,7,8,6,3,11,trampoline,Did you see the trampoline?,0.12,0.016,JPG\,dice05a,watch02a,pig,lighter01,button01,strawberry,trampoline,stapler03a,plate01b,pen04b,feather03a,blankImage,blankImage,blankImage,blankImage,blankImage,blankImage,trampoline,,,,,,,,,,,,0,95,95,73,,,,,,,,,,,,,,,,,,,,,,,,,,,,,,,,,,,707.6262006000616,708.6409896000987,708.6076507000253,709.1915174000897,709.1915174000897,None,710.5089995000744,None,left,1.3052884000353515,710.5089995000744,None,711.8442457000492,None,right,0.6907563999993727,711.8442457000492,None,,,,,,,,,,,,,,,,,,,,,,,PPT50,001,2022-07-11_16h46.39.902,ABstudy,2022.1.4,59.95484203206868,
AB,Lag5_T1P_T2A,5,P,A,5,10,4,3,13,cork,Did you see the cork?,0.12,0.016,JPG\,clock01a,grape01,plate01b,key01,cork02,feather03a,pineapple01a,iron01b,toothbrush03b,comb02a,broom01,toaster01,pizza,blankImage,blankImage,blankImage,blankImage,cork02,,,,,,,,,,,,0,96,96,209,,,,,,,,,,,,,,,,,,,,,,,,,,,,,,,,,,,712.6109667000128,713.6127666000975,713.5960445000092,714.2027675000718,714.2027675000718,None,715.7004422000609,None,right,2.106480999966152,715.7004422000609,None,717.8338257001014,None,right,0.24421829998027533,717.8338257001014,None,,,,,,,,,,,,,,,,,,,,,,,PPT50,001,2022-07-11_16h46.39.902,ABstudy,2022.1.4,59.95484203206868,
AB,Lag5_T1P_T2P,5,P,P,5,10,4,5,15,baseball bat,Did you see the baseball bat?,0.12,0.016,JPG\,pizza,printer02,medal02b,spoon01,baseballbat,lighter01,belt02a,watermelon01,celery,stapler04b,screw02,comb02a,cauliflower01,lipstick02a,potato02b,blankImage,blankImage,baseballbat,,,,,,,,,,,,0,97,97,123,,,,,,,,,,,,,,,,,,,,,,,,,,,,,,,,,,,718.1055374999996,719.118635400082,719.1030093000736,719.752591000055,719.752591000055,None,721.5534416000592,None,left,1.1408397000050172,721.5534416000592,None,722.7226673000259,None,right,0.3236218000529334,722.7226673000259,None,,,,,,,,,,,,,,,,,,,,,,,PPT50,001,2022-07-11_16h46.39.902,ABstudy,2022.1.4,59.95484203206868,
AB,Lag5_T1P_T2P,5,P,P,7,12,6,5,17,truck,Did you see the truck?,0.12,0.016,JPG\,binoculars01b,speaker04,sandal,envelope03a,plate01b,comb02a,boxtruck,chain01,measuringcup01,key01,medal02b,stapler05,tennisball01b,pizza,cigarette,sunglasses04,blankImage,boxtruck,,,,,,,,,,,,0,98,98,166,,,,,,,,,,,,,,,,,,,,,,,,,,,,,,,,,,,723.1400777000235,724.1399775000755,724.1249664000934,724.7295800000429,724.7295800000429,None,726.6188837999944,None,right,1.6113876999588683,726.6188837999944,None,728.2607339000097,None,right,0.27344270003959537,728.2607339000097,None,,,,,,,,,,,,,,,,,,,,,,,PPT50,001,2022-07-11_16h46.39.902,ABstudy,2022.1.4,59.95484203206868,
AB,Lag5_T1P_T2P,5,P,P,8,13,7,5,18,spice rack,Did you see the spice rack?,0.12,0.016,JPG\,lamp04a,broccoli01a,alligator,garlic01a,dandelion,brownsugar,avocado01,spicerack,leaf02a,cellphone,medal02b,cd,stapler05,sunglasses04,strawberry,eraser,blankImage,spicerack,,,,,,,,,,,,0,99,99,140,,,,,,,,,,,,,,,,,,,,,,,,,,,,,,,,,,,728.5739389000228,729.578819300048,729.5455750999972,730.1493385999929,730.1493385999929,None,732.0871504000388,None,left,0.8071263999445364,732.0871504000388,None,732.9154935000697,None,left,0.23494120000395924,732.9154935000697,None,,,,,,,,,,,,,,,,,,,,,,,PPT50,001,2022-07-11_16h46.39.902,ABstudy,2022.1.4,59.95484203206868,
AB,Lag1_T1A_T2A,1,A,A,8,9,7,4,13,Recycling bin,Did you see the Recycling bin?,0.12,0.016,JPG\,brick,plate01b,pen04b,toaster01,screwdriver04b,candle01,envelope03a,feather03a,pig,ring01,orange,clock01a,lighter01,blankImage,blankImage,blankImage,blankImage,bumpercar,,,,,,,,,,,,0,100,100,292,,,,,,,,,,,,,,,,,,,,,,,,,,,,,,,,,,,733.1880767000839,734.2000618000748,734.1832963000052,734.7554995000828,734.7554995000828,None,736.3127480000257,None,right,3.0377865000627935,736.3127480000257,None,739.3715924000135,None,right,0.5626953999744728,739.3715924000135,None,,,,,,,,,,,,,,,,,,,,,,,PPT50,001,2022-07-11_16h46.39.902,ABstudy,2022.1.4,59.95484203206868,
AB,Lag1_T1P_T2P,1,P,P,5,6,4,3,9,Escalator,Did you see the Escalator?,0.12,0.016,JPG\,celery,pencil01,fan,foosballtable,escalator,stapler05,potato02b,fork03c,button01,blankImage,blankImage,blankImage,blankImage,blankImage,blankImage,blankImage,blankImage,escalator,,,,,,,,,,,,0,101,101,82,,,,,,,,,,,,,,,,,,,,,,,,,,,,,,,,,,,739.9583682999946,740.9732302000048,740.9398501000833,741.5166348000057,741.5166348000057,None,742.6081179000903,None,left,1.510535000008531,742.6081179000903,None,744.1429630999919,None,right,1.6315634999191388,744.1429630999919,None,,,,,,,,,,,,,,,,,,,,,,,PPT50,001,2022-07-11_16h46.39.902,ABstudy,2022.1.4,59.95484203206868,
AB,Lag1_T1A_T2P,1,A,P,7,8,6,3,11,lion,Did you see the lion?,0.12,0.016,JPG\,sock01a,spoon01,alligator,comb02a,printer02,medal02b,lamp04a,stapler01,greenolive,computerkeyboard02,cauliflower01,blankImage,blankImage,blankImage,blankImage,blankImage,blankImage,bullet,,,,,,,,,,,,0,102,102,229,,,,,,,,,,,,,,,,,,,,,,,,,,,,,,,,,,,745.7968800000381,746.8128697000211,746.7789902000222,747.3778868000954,747.3778868000954,None,748.6933878000127,None,right,1.2730478000594303,748.6933878000127,None,749.9990738000488,None,left,0.44721140002366155,749.9990738000488,None,,,,,,,,,,,,,,,,,,,,,,,PPT50,001,2022-07-11_16h46.39.902,ABstudy,2022.1.4,59.95484203206868,
AB,Lag5_T1P_T2P,5,P,P,6,11,5,5,16,motorcycle,Did you see the motorcycle?,0.12,0.016,JPG\,cucumber,ring01,lipstick02a,microscope,violin,motorcycle,celery,lighter01,cherry01,sewingmachine01a,stapler04b,key01,binoculars01b,medal02b,watermelon01,dice05a,blankImage,motorcycle,,,,,,,,,,,,0,103,103,93,,,,,,,,,,,,,,,,,,,,,,,,,,,,,,,,,,,750.4699008000316,751.4838940000627,751.4672059000004,752.1105165000772,752.0372922000242,None,754.0274833000731,None,left,1.2114475999260321,754.0274833000731,None,755.2709783000173,None,right,0.45541010005399585,755.2709783000173,None,,,,,,,,,,,,,,,,,,,,,,,PPT50,001,2022-07-11_16h46.39.902,ABstudy,2022.1.4,59.95484203206868,
AB,Lag1_T1P_T2P,1,P,P,5,6,4,3,9,dolphin,Did you see the dolphin?,0.12,0.016,JPG\,pig,belt02a,rice,screwdriver04b,dolphin01,stapler05,candle08b,pear01,feather03a,blankImage,blankImage,blankImage,blankImage,blankImage,blankImage,blankImage,blankImage,dolphin01,,,,,,,,,,,,0,104,104,10,,,,,,,,,,,,,,,,,,,,,,,,,,,,,,,,,,,755.7604066000786,756.7724375000689,756.7556860999903,757.2573242000071,757.2573242000071,None,758.4630469999975,None,left,0.8231547001050785,758.4630469999975,None,759.3080305000767,None,right,0.3222139999270439,759.3080305000767,None,,,,,,,,,,,,,,,,,,,,,,,PPT50,001,2022-07-11_16h46.39.902,ABstudy,2022.1.4,59.95484203206868,
AB,Lag1_T1A_T2P,1,A,P,5,6,4,3,9,Spider,Did you see the Spider?,0.12,0.016,JPG\,pen04b,speaker04,lighter01,cherry01,8ball,stapler04b,sock01a,toothbrush03b,broom01,blankImage,blankImage,blankImage,blankImage,blankImage,blankImage,blankImage,blankImage,bridge,,,,,,,,,,,,0,105,105,250,,,,,,,,,,,,,,,,,,,,,,,,,,,,,,,,,,,759.6606998000061,760.6761066000909,760.6427413000492,761.2109993000049,761.2109993000049,None,762.3673493000679,None,right,1.350966600002721,762.3673493000679,None,763.7462152000517,None,right,2.3810146000469103,763.7462152000517,None,,,,,,,,,,,,,,,,,,,,,,,PPT50,001,2022-07-11_16h46.39.902,ABstudy,2022.1.4,59.95484203206868,
AB,Lag5_T1P_T2P,5,P,P,8,13,7,4,17,lamp,Did you see the lamp?,0.12,0.016,JPG\,globe,broccoli01a,binoculars01b,iron01b,avocado01,dandelion,pineapple01a,floorlamp,fan,pizza,celery,blueberry01,stapler01,dice05a,watermelon01,candy,blankImage,floorlamp,,,,,,,,,,,,0,106,106,99,,,,,,,,,,,,,,,,,,,,,,,,,,,,,,,,,,,766.1535143000074,767.166229500086,767.149525100016,767.7520378000336,767.7520378000336,None,769.6989747000625,None,left,0.6914319000206888,769.6989747000625,None,770.4191335000796,None,right,0.46705800003837794,770.4191335000796,None,,,,,,,,,,,,,,,,,,,,,,,PPT50,001,2022-07-11_16h46.39.902,ABstudy,2022.1.4,59.95484203206868,
AB,Lag5_T1A_T2P,5,A,P,5,10,4,3,13,License Plate,Did you see the License Plate?,0.12,0.016,JPG\,tomato01,pen04b,shirt02,carrot01,lamp04a,key01,pizza,avocado01,sewingmachine01a,stapler06,iron01b,book01b,chain01,blankImage,blankImage,blankImage,blankImage,porcupine,,,,,,,,,,,,0,107,107,270,,,,,,,,,,,,,,,,,,,,,,,,,,,,,,,,,,,770.9625017000362,771.9708959000418,771.9374468000606,772.527940900065,772.527940900065,None,774.0277776999865,None,right,1.7627597999526188,774.0277776999865,None,775.8078397000208,None,right,0.3747975999722257,775.8078397000208,None,,,,,,,,,,,,,,,,,,,,,,,PPT50,001,2022-07-11_16h46.39.902,ABstudy,2022.1.4,59.95484203206868,
AB,Lag5_T1P_T2P,5,P,P,5,10,4,3,13,Rabbit,Did you see the Rabbit?,0.12,0.016,JPG\,celery,tennisball01b,calculator01,pear01,jackrabbit,orange,button01,cellphone,onion,stapler06,iron01b,brownsugar,banana01,blankImage,blankImage,blankImage,blankImage,jackrabbit,,,,,,,,,,,,0,108,108,90,,,,,,,,,,,,,,,,,,,,,,,,,,,,,,,,,,,776.2110762000084,777.2259378000163,777.1926046001026,777.7746552000754,777.7746552000754,None,779.4515147000784,None,left,0.9468827999662608,779.4515147000784,None,780.4290991000598,None,right,0.3046535999746993,780.4290991000598,None,,,,,,,,,,,,,,,,,,,,,,,PPT50,001,2022-07-11_16h46.39.902,ABstudy,2022.1.4,59.95484203206868,
AB,Lag5_T1P_T2P,5,P,P,8,13,7,4,17,Accordion,Did you see the Accordion?,0.12,0.016,JPG\,toiletpaper01a,lipstick02a,potato02b,speaker04,globe,strawberry,carrot01,accordion01,sock01a,candle08b,pen04b,calculator01,stapler01,brick,pear01,fork03c,blankImage,accordion01,,,,,,,,,,,,0,109,109,162,,,,,,,,,,,,,,,,,,,,,,,,,,,,,,,,,,,780.7656118000159,781.7808017000789,781.7472200000193,782.3384679000592,782.3384679000592,None,784.2960374000249,None,left,0.9985854000551626,784.2960374000249,None,785.318317300058,None,left,0.160197600023821,785.318317300058,None,,,,,,,,,,,,,,,,,,,,,,,PPT50,001,2022-07-11_16h46.39.902,ABstudy,2022.1.4,59.95484203206868,
AB,Lag1_T1A_T2P,1,A,P,6,7,5,5,12,Piano,Did you see the Piano?,0.12,0.016,JPG\,toiletpaper01a,mushroom01,medal02b,sandal,rice,cd,stapler01,pizza,candle08b,garlic01a,toaster01,belt02a,blankImage,blankImage,blankImage,blankImage,blankImage,moose,,,,,,,,,,,,0,110,110,239,,,,,,,,,,,,,,,,,,,,,,,,,,,,,,,,,,,785.5076694000745,786.5193106000079,786.5036398000084,787.169313200051,787.0859334000852,None,788.5782567000715,None,right,1.515656300005503,788.5782567000715,None,790.1223993999884,None,right,0.17990250000730157,790.1223993999884,None,,,,,,,,,,,,,,,,,,,,,,,PPT50,001,2022-07-11_16h46.39.902,ABstudy,2022.1.4,59.95484203206868,
AB,Lag1_T1P_T2P,1,P,P,8,9,7,3,12,Eiffel tower,Did you see the Eiffel tower?,0.12,0.016,JPG\,celery,tennisball01b,calculator01,pear01,screw02,orange,button01,eiffeltower,stapler03b,apple07,iron01b,brownsugar,blankImage,blankImage,blankImage,blankImage,blankImage,eiffeltower,,,,,,,,,,,,0,111,111,40,,,,,,,,,,,,,,,,,,,,,,,,,,,,,,,,,,,790.3297616000054,791.340171799995,791.3234654000262,791.910101299989,791.910101299989,None,793.2808625000762,None,left,1.1332200999604538,793.2808625000762,None,794.4434353000252,None,right,0.3546642999863252,794.4434353000252,None,,,,,,,,,,,,,,,,,,,,,,,PPT50,001,2022-07-11_16h46.39.902,ABstudy,2022.1.4,59.95484203206868,
AB,Lag5_T1P_T2P,5,P,P,8,13,7,5,18,sock,Did you see the sock?,0.12,0.016,JPG\,thermometer02b,avocado01,scissors01,tennisball01b,medal02b,banana01,strawberry,athleticsock,potato02b,pineapple01a,microscope,cymbal,stapler03b,celery,garlic01a,sunglasses04,blankImage,athleticsock,,,,,,,,,,,,0,112,112,141,,,,,,,,,,,,,,,,,,,,,,,,,,,,,,,,,,,794.8301772000268,795.8445741999894,795.8112515000394,796.3930073000956,796.3930073000956,None,798.3153142000083,None,right,2.3550516000250354,798.3153142000083,None,800.6993147000903,None,right,0.3000861000036821,800.6993147000903,None,,,,,,,,,,,,,,,,,,,,,,,PPT50,001,2022-07-11_16h46.39.902,ABstudy,2022.1.4,59.95484203206868,
AB,Lag5_T1A_T2P,5,A,P,8,13,7,3,16,ladder,Did you see the ladder?,0.12,0.016,JPG\,apple07,toiletpaper01a,pizza,dandelion,greenolive,eraser,microscope,violin,orange,lipstick02a,balloon01b,sandal,stapler01,fan,book01b,sewingmachine01a,blankImage,ostrich,,,,,,,,,,,,0,113,113,269,,,,,,,,,,,,,,,,,,,,,,,,,,,,,,,,,,,801.0185071000597,802.0338773000985,802.0005710000405,802.5889196000062,802.5889196000062,None,804.5257069000509,None,right,1.9847912000259385,804.5257069000509,None,806.5384257000405,None,left,0.3320414999034256,806.5384257000405,None,,,,,,,,,,,,,,,,,,,,,,,PPT50,001,2022-07-11_16h46.39.902,ABstudy,2022.1.4,59.95484203206868,
AB,Lag1_T1P_T2P,1,P,P,7,8,6,5,13,disco ball,Did you see the disco ball?,0.12,0.016,JPG\,candle01,paintbrush01,scissors01,fan,microscope,toothbrush03b,discoball,stapler03b,teabag,pencil01,lemon02,ashtray01,shirt02,blankImage,blankImage,blankImage,blankImage,discoball,,,,,,,,,,,,0,114,114,60,,,,,,,,,,,,,,,,,,,,,,,,,,,,,,,,,,,806.8910231000045,807.9064792999998,807.8731408000458,808.4405617000302,808.4405617000302,None,810.1053989999928,None,left,1.548521300079301,810.1053989999928,None,811.6771335999947,None,left,1.7697811999823898,811.6771335999947,None,,,,,,,,,,,,,,,,,,,,,,,PPT50,001,2022-07-11_16h46.39.902,ABstudy,2022.1.4,59.95484203206868,
AB,Lag5_T1P_T2P,5,P,P,7,12,6,4,16,Wolf,Did you see the Wolf?,0.12,0.016,JPG\,brick,eraser,cucumber,ashtray01,thermometer02b,binoculars01b,greywolf,screwdriver04b,grape01,brownsugar,battery02b,stapler03b,dice05a,avocado01,birthdaycandle,watch02a,blankImage,greywolf,,,,,,,,,,,,0,115,115,89,,,,,,,,,,,,,,,,,,,,,,,,,,,,,,,,,,,813.4880952000385,814.4972237000475,814.4815457999939,815.0739944000961,815.0739944000961,None,817.0400523000862,None,left,1.0536451999796554,817.0400523000862,None,818.1166670999955,None,right,0.34493639995343983,818.1166670999955,None,,,,,,,,,,,,,,,,,,,,,,,PPT50,001,2022-07-11_16h46.39.902,ABstudy,2022.1.4,59.95484203206868,
AB,Lag5_T1P_T2P,5,P,P,7,12,6,3,15,mail box,Did you see the mail box?,0.12,0.016,JPG\,key01,apple07,ring01,leaf02a,hammer01,tableknife02,postalmailbox01,sponge01,baseball01a,thermometer02b,celery,stapler06,grape01,cucumber,tennisball01b,blankImage,blankImage,postalmailbox01,,,,,,,,,,,,0,116,116,113,,,,,,,,,,,,,,,,,,,,,,,,,,,,,,,,,,,818.5244135000976,819.53495380003,819.5182888000272,820.1201422000304,820.1201422000304,None,821.8633886000607,None,right,1.175999499973841,821.8633886000607,None,823.0715882000513,None,left,0.6788489000173286,823.0715882000513,None,,,,,,,,,,,,,,,,,,,,,,,PPT50,001,2022-07-11_16h46.39.902,ABstudy,2022.1.4,59.95484203206868,
AB,Lag5_T1P_T2P,5,P,P,8,13,7,5,18,pipe,Did you see the pipe?,0.12,0.016,JPG\,scissors01,ashtray01,garlic01a,medal02b,cigarette,candle08b,leaf02a,smokingpipe,cucumber,rice,toiletpaper01a,greenolive,stapler01,cellphone,tableknife02,spoon01,blankImage,smokingpipe,,,,,,,,,,,,0,117,117,138,,,,,,,,,,,,,,,,,,,,,,,,,,,,,,,,,,,823.7755548000569,824.789985600044,824.7566235000268,825.3292896000203,825.3292896000203,None,827.3811097000726,None,left,1.0651557999663055,827.3811097000726,None,828.477143600001,None,right,0.3290419999975711,828.477143600001,None,,,,,,,,,,,,,,,,,,,,,,,PPT50,001,2022-07-11_16h46.39.902,ABstudy,2022.1.4,59.95484203206868,
AB,Lag1_T1P_T2P,1,P,P,5,6,4,3,9,mail box,Did you see the mail box?,0.12,0.016,JPG\,watermelon01,banana01,ring01,pencil01,mailbox02,stapler04b,cucumber,thermometer02b,key01,blankImage,blankImage,blankImage,blankImage,blankImage,blankImage,blankImage,blankImage,mailbox02,,,,,,,,,,,,0,118,118,21,,,,,,,,,,,,,,,,,,,,,,,,,,,,,,,,,,,828.8336976000573,829.8451666000765,829.8285627000732,830.409401700017,830.409401700017,None,831.4908060000744,None,left,1.3634296000236645,831.4908060000744,None,832.8812949000858,None,right,0.2696691999444738,832.8812949000858,None,,,,,,,,,,,,,,,,,,,,,,,PPT50,001,2022-07-11_16h46.39.902,ABstudy,2022.1.4,59.95484203206868,
AB,Lag1_T1P_T2A,1,P,A,7,8,6,4,12,bird,Did you see the bird?,0.12,0.016,JPG\,speaker04,sewingmachine01a,eraser,violin,globe,belt02a,tern,cymbal,cd,greenolive,alligator,pear01,blankImage,blankImage,blankImage,blankImage,blankImage,tern,,,,,,,,,,,,0,119,119,177,,,,,,,,,,,,,,,,,,,,,,,,,,,,,,,,,,,833.1839179000817,834.1993534000358,834.1660319000948,834.7603432000615,834.7603432000615,None,836.303158499999,None,left,0.9922877000644803,836.303158499999,None,837.3189730000449,None,right,0.3034855000441894,837.3189730000449,None,,,,,,,,,,,,,,,,,,,,,,,PPT50,001,2022-07-11_16h46.39.902,ABstudy,2022.1.4,59.95484203206868,
AB,Lag1_T1A_T2P,1,A,P,8,9,7,3,12,seal,Did you see the seal?,0.12,0.016,JPG\,dice05a,watch02a,pig,lighter01,button01,strawberry,paintbrush01,microscope,stapler03a,pen04b,feather03a,8ball,blankImage,blankImage,blankImage,blankImage,blankImage,hockeystick,,,,,,,,,,,,0,120,120,235,,,,,,,,,,,,,,,,,,,,,,,,,,,,,,,,,,,837.65501950006,838.6704799000872,838.6370413000695,839.2202352000168,839.2202352000168,None,840.666386500001,None,right,1.7080686000408605,840.666386500001,None,842.3908352000872,None,right,0.3436355000594631,842.3908352000872,None,,,,,,,,,,,,,,,,,,,,,,,PPT50,001,2022-07-11_16h46.39.902,ABstudy,2022.1.4,59.95484203206868,
AB,Lag1_T1P_T2A,1,P,A,5,6,4,5,11,Electric toothbrush,Did you see the Electric toothbrush?,0.12,0.016,JPG\,carrot01,greenolive,fork03c,chain01,electrictoothbrush01c,watermelon01,tableknife02,printer02,comb02a,toaster01,orange,blankImage,blankImage,blankImage,blankImage,blankImage,blankImage,electrictoothbrush01c,,,,,,,,,,,,0,121,121,186,,,,,,,,,,,,,,,,,,,,,,,,,,,,,,,,,,,842.7617421000032,843.7754809000762,843.7587654000381,844.4620479000732,844.3688398000086,None,845.7510087999981,None,left,0.9754537000553682,845.7510087999981,None,846.7455268000485,None,right,0.3887487000320107,846.7455268000485,None,,,,,,,,,,,,,,,,,,,,,,,PPT50,001,2022-07-11_16h46.39.902,ABstudy,2022.1.4,59.95484203206868,
AB,Lag1_T1A_T2A,1,A,A,6,7,5,5,12,Safe,Did you see the Safe?,0.12,0.016,JPG\,hammer01,sponge01,toaster01,cherry01,feather03a,mushroom01,measuringcup01,pencil01,tennisball01b,brick,clock04,medal02b,blankImage,blankImage,blankImage,blankImage,blankImage,downhillski,,,,,,,,,,,,0,122,122,294,,,,,,,,,,,,,,,,,,,,,,,,,,,,,,,,,,,847.1682542000199,848.1800768000539,848.1633605000097,848.7568434000714,848.7568434000714,None,850.237718300079,None,right,2.0479264999739826,850.237718300079,None,852.3173688000534,None,right,0.5529044000431895,852.3173688000534,None,,,,,,,,,,,,,,,,,,,,,,,PPT50,001,2022-07-11_16h46.39.902,ABstudy,2022.1.4,59.95484203206868,
AB,Lag5_T1A_T2P,5,A,P,7,12,6,3,15,hockey puck,Did you see the hockey puck?,0.12,0.016,JPG\,toiletpaper01a,lipstick02a,potato02b,speaker04,globe,strawberry,carrot01,plate01b,sock01a,candle08b,pen04b,stapler04b,foosballtable,brick,pear01,blankImage,blankImage,frisbee,,,,,,,,,,,,0,123,123,260,,,,,,,,,,,,,,,,,,,,,,,,,,,,,,,,,,,852.904426000081,853.9189626000589,853.9022651000414,854.4902919000015,854.4902919000015,None,856.3428545000497,None,right,1.1190495999762788,856.3428545000497,None,857.4896012000972,None,right,0.3485850999131799,857.4896012000972,None,,,,,,,,,,,,,,,,,,,,,,,PPT50,001,2022-07-11_16h46.39.902,ABstudy,2022.1.4,59.95484203206868,
AB,Lag5_T1A_T2P,5,A,P,5,10,4,4,14,mail box,Did you see the mail box?,0.12,0.016,JPG\,button01,celery,birthdaycandle,apple07,avocado01,tennisball01b,dice05a,teabag,clock01a,stapler05,tomato01,scarf,orange,battery02b,blankImage,blankImage,blankImage,jeep,,,,,,,,,,,,0,124,124,263,,,,,,,,,,,,,,,,,,,,,,,,,,,,,,,,,,,857.8628850000678,858.8740521,858.8572738000657,859.4620223999955,859.4620223999955,None,861.1476010000333,None,right,1.7540698000229895,861.1476010000333,None,862.9279098000843,None,right,0.5745233000488952,862.9279098000843,None,,,,,,,,,,,,,,,,,,,,,,,PPT50,001,2022-07-11_16h46.39.902,ABstudy,2022.1.4,59.95484203206868,
AB,Lag1_T1P_T2P,1,P,P,5,6,4,5,11,golf ball,Did you see the golf ball?,0.12,0.016,JPG\,foosballtable,cigarette,pen04b,birthdaycandle,golfball,stapler05,binoculars01b,chain01,potato02b,cauliflower01,paintbrush01,blankImage,blankImage,blankImage,blankImage,blankImage,blankImage,golfball,,,,,,,,,,,,0,125,125,13,,,,,,,,,,,,,,,,,,,,,,,,,,,,,,,,,,,863.5328695999924,864.54622810008,864.5295310000656,865.0302623000462,865.0302623000462,None,866.412150899996,None,left,0.5778809000039473,866.412150899996,None,867.0152297000168,None,right,0.7591352999443188,867.0152297000168,None,,,,,,,,,,,,,,,,,,,,,,,PPT50,001,2022-07-11_16h46.39.902,ABstudy,2022.1.4,59.95484203206868,
AB,Lag5_T1P_T2P,5,P,P,6,11,5,3,14,shower head,Did you see the shower head?,0.12,0.016,JPG\,belt02a,measuringcup01,spoon01,chain01,greenolive,showerhead01,computerkeyboard02,onion,fan,strawberry,stapler01,broom01,binoculars01b,ashtray01,blankImage,blankImage,blankImage,showerhead01,,,,,,,,,,,,0,126,126,98,,,,,,,,,,,,,,,,,,,,,,,,,,,,,,,,,,,867.8041793000884,868.8177562000928,868.8023025000002,869.4091407000087,869.4091407000087,None,871.07991030009,None,left,0.6778565999120474,871.07991030009,None,871.7875051000156,None,left,0.28217909997329116,871.7875051000156,None,,,,,,,,,,,,,,,,,,,,,,,PPT50,001,2022-07-11_16h46.39.902,ABstudy,2022.1.4,59.95484203206868,
AB,Lag1_T1P_T2P,1,P,P,8,9,7,5,14,bullet,Did you see the bullet?,0.12,0.016,JPG\,measuringcup01,dice05a,greenolive,lipstick02a,feather03a,balloon01b,lighter01,bullet,stapler04b,plate01b,microscope,brick,thermometer02b,screw02,blankImage,blankImage,blankImage,bullet,,,,,,,,,,,,0,127,127,57,,,,,,,,,,,,,,,,,,,,,,,,,,,,,,,,,,,872.0912888000021,873.1050023999996,873.0882754999911,873.6790989000583,873.6790989000583,None,875.3564687999897,None,left,0.8494762999471277,875.3564687999897,None,876.2241898000939,None,right,0.9584168000146747,876.2241898000939,None,,,,,,,,,,,,,,,,,,,,,,,PPT50,001,2022-07-11_16h46.39.902,ABstudy,2022.1.4,59.95484203206868,
AB,Lag5_T1P_T2P,5,P,P,7,12,6,3,15,Rollerblade,Did you see the Rollerblade?,0.12,0.016,JPG\,hammer01,sponge01,toaster01,cherry01,feather03a,mushroom01,rollerblade,pencil01,tennisball01b,brick,clock04,stapler06,teabag,garlic01a,envelope03a,blankImage,blankImage,rollerblade,,,,,,,,,,,,0,128,128,116,,,,,,,,,,,,,,,,,,,,,,,,,,,,,,,,,,,877.2113987000193,878.2264884000178,878.1931099999929,878.7612144000595,878.7612144000595,None,880.6080814000452,None,left,0.7656009000493214,880.6080814000452,None,881.3966346000088,None,left,0.17709160002414137,881.3966346000088,None,,,,,,,,,,,,,,,,,,,,,,,PPT50,001,2022-07-11_16h46.39.902,ABstudy,2022.1.4,59.95484203206868,
AB,Lag1_T1P_T2P,1,P,P,5,6,4,5,11,shark,Did you see the shark?,0.12,0.016,JPG\,cucumber,sponge01,alligator,pear01,greatwhiteshark,stapler06,clock04,battery02b,fork03c,binoculars01b,mushroom01,blankImage,blankImage,blankImage,blankImage,blankImage,blankImage,greatwhiteshark,,,,,,,,,,,,0,129,129,84,,,,,,,,,,,,,,,,,,,,,,,,,,,,,,,,,,,881.6006608000025,882.6141604000004,882.5974724000553,883.1736138000851,883.1736138000851,None,884.5257054000394,None,left,1.16820109996479,884.5257054000394,None,885.7182897999883,None,right,0.24744310008827597,885.7182897999883,None,,,,,,,,,,,,,,,,,,,,,,,PPT50,001,2022-07-11_16h46.39.902,ABstudy,2022.1.4,59.95484203206868,
AB,Lag1_T1P_T2P,1,P,P,6,7,5,4,11,bowling pin,Did you see the bowling pin?,0.12,0.016,JPG\,strawberry,leaf02a,clock04,candle01,avocado01,bowlingpin,stapler03a,brownsugar,ring01,lemon02,fork03c,blankImage,blankImage,blankImage,blankImage,blankImage,blankImage,bowlingpin,,,,,,,,,,,,0,130,130,8,,,,,,,,,,,,,,,,,,,,,,,,,,,,,,,,,,,885.9921140000224,887.0020800000057,886.985543900053,887.5611494000768,887.5611494000768,None,888.8917046000715,None,left,1.3940808000043035,888.8917046000715,None,890.3051596001023,None,right,0.34056699997745454,890.3051596001023,None,,,,,,,,,,,,,,,,,,,,,,,PPT50,001,2022-07-11_16h46.39.902,ABstudy,2022.1.4,59.95484203206868,
AB,Lag1_T1P_T2A,1,P,A,7,8,6,5,13,Well,Did you see the Well?,0.12,0.016,JPG\,leaf02a,apple07,cd,pineapple01a,envelope03a,paintbrush01,well,acorn,rice,feather03a,lemon02,balloon01b,avocado01,blankImage,blankImage,blankImage,blankImage,well,,,,,,,,,,,,0,131,131,178,,,,,,,,,,,,,,,,,,,,,,,,,,,,,,,,,,,890.6744361000601,891.689907800057,891.6565546999918,892.2312591000227,892.2312591000227,None,893.8794953000033,None,left,1.6860948000103235,893.8794953000033,None,895.5941383000463,None,right,0.7155199999688193,895.5941383000463,None,,,,,,,,,,,,,,,,,,,,,,,PPT50,001,2022-07-11_16h46.39.902,ABstudy,2022.1.4,59.95484203206868,
AB,Lag1_T1A_T2A,1,A,A,5,6,4,4,10,rose,Did you see the rose?,0.12,0.016,JPG\,sock01a,spoon01,alligator,comb02a,printer02,medal02b,lamp04a,cymbal,greenolive,computerkeyboard02,blankImage,blankImage,blankImage,blankImage,blankImage,blankImage,blankImage,cruiseship,,,,,,,,,,,,0,132,132,293,,,,,,,,,,,,,,,,,,,,,,,,,,,,,,,,,,,896.3317276000744,897.3456887000939,897.3122862000018,897.906123300083,897.906123300083,None,899.1114307000535,None,right,1.5994623999577016,899.1114307000535,None,900.732206500019,None,right,0.9937274999683723,900.732206500019,None,,,,,,,,,,,,,,,,,,,,,,,PPT50,001,2022-07-11_16h46.39.902,ABstudy,2022.1.4,59.95484203206868,
AB,Lag5_T1P_T2P,5,P,P,6,11,5,3,14,ladder,Did you see the ladder?,0.12,0.016,JPG\,celery,orange,scissors01,balloon01b,avocado01,stepladder,mushroom01,sewingmachine01a,lighter01,dice05a,stapler01,fan,cd,sock01a,blankImage,blankImage,blankImage,stepladder,,,,,,,,,,,,0,133,133,119,,,,,,,,,,,,,,,,,,,,,,,,,,,,,,,,,,,901.7520928999875,902.7511630000081,902.73453840008,903.322895099991,903.322895099991,None,905.0360529000172,None,left,0.9375046000350267,905.0360529000172,None,906.0044084000401,None,left,0.22637699998449534,906.0044084000401,None,,,,,,,,,,,,,,,,,,,,,,,PPT50,001,2022-07-11_16h46.39.902,ABstudy,2022.1.4,59.95484203206868,
AB,Lag1_T1A_T2P,1,A,P,8,9,7,4,13,nose,Did you see the nose?,0.12,0.016,JPG\,pizza,strawberry,potato02b,speaker04,battery02b,iron01b,dice05a,cellphone,stapler06,banana01,medal02b,baseball01a,toaster01,blankImage,blankImage,blankImage,blankImage,cow,,,,,,,,,,,,0,134,134,231,,,,,,,,,,,,,,,,,,,,,,,,,,,,,,,,,,,906.2580748000182,907.2723965999903,907.255604700069,907.9169672999997,907.827883400023,None,909.3987457000185,None,right,1.255123500013724,909.3987457000185,None,910.6754174000816,None,right,0.46647320000920445,910.6754174000816,None,,,,,,,,,,,,,,,,,,,,,,,PPT50,001,2022-07-11_16h46.39.902,ABstudy,2022.1.4,59.95484203206868,
AB,Lag1_T1P_T2P,1,P,P,8,9,7,3,12,snow globe,Did you see the Snow globe?,0.12,0.016,JPG\,eraser,measuringcup01,chain01,birthdaycandle,ring01,rice,8ball,stapler04b,stapler01,celery,microscope,sunglasses04,blankImage,blankImage,blankImage,blankImage,blankImage,snowglobe,,,,,,,,,,,,0,135,135,56,,,,,,,,,,,,,,,,,,,,,,,,,,,,,,,,,,,911.1636800999986,912.17695740005,912.1603182000108,912.7446432000725,912.7446432000725,None,914.3015922000632,None,right,1.232203399995342,914.3015922000632,None,915.5637323000701,None,left,0.7542256000451744,915.5637323000701,None,,,,,,,,,,,,,,,,,,,,,,,PPT50,001,2022-07-11_16h46.39.902,ABstudy,2022.1.4,59.95484203206868,
AB,Lag5_T1P_T2P,5,P,P,5,10,4,4,14,Salt shaker,Did you see the Salt shaker?,0.12,0.016,JPG\,fork03c,belt02a,grape01,computerkeyboard02,saltshaker03a,printer02,broom01,toiletpaper01a,toaster01,stapler01,book01b,blueberry01,spoon01,apple07,blankImage,blankImage,blankImage,saltshaker03a,,,,,,,,,,,,0,136,136,96,,,,,,,,,,,,,,,,,,,,,,,,,,,,,,,,,,,916.3523831000784,917.3655059000012,917.3488026000559,917.9311815000838,917.9311815000838,None,919.6500363000669,None,left,0.827728100004606,919.6500363000669,None,920.5162974999985,None,left,0.2495513999601826,920.5162974999985,None,,,,,,,,,,,,,,,,,,,,,,,PPT50,001,2022-07-11_16h46.39.902,ABstudy,2022.1.4,59.95484203206868,
AB,Lag1_T1A_T2P,1,A,P,5,6,4,3,9,microphone,Did you see the microphone?,0.12,0.016,JPG\,hammer01,sponge01,toaster01,cherry01,feather03a,stapler06,measuringcup01,pencil01,tennisball01b,blankImage,blankImage,blankImage,blankImage,blankImage,blankImage,blankImage,blankImage,cactus,,,,,,,,,,,,0,137,137,230,,,,,,,,,,,,,,,,,,,,,,,,,,,,,,,,,,,920.7947093000403,921.8040758999996,921.7885434000054,922.3846783000045,922.3846783000045,None,923.5582941999892,None,right,1.3037337999558076,923.5582941999892,None,924.8895475000609,None,left,1.3082395000383258,924.8895475000609,None,,,,,,,,,,,,,,,,,,,,,,,PPT50,001,2022-07-11_16h46.39.902,ABstudy,2022.1.4,59.95484203206868,
