TrialType,CondType,Lag,T1_PA,T2_PA,T1Loc,T2Loc,PreDistractor,PostDistractor,TotalImg,cueWord,T1cue,StimLength,isi,PicFolder,Img1,Img2,Img3,Img4,Img5,Img6,Img7,Img8,Img9,Img10,Img11,Img12,Img13,Img14,Img15,Img16,Img17,T1_Identity,ImageType,T1PA,T2PA,Picture,Image,FullPathName,FilePath,Practice_Trials.thisRepN,Practice_Trials.thisTrialN,Practice_Trials.thisN,Practice_Trials.thisIndex,trials.thisRepN,trials.thisTrialN,trials.thisN,trials.thisIndex,trials_2.thisRepN,trials_2.thisTrialN,trials_2.thisN,trials_2.thisIndex,Practice_Ins.started,Practice_Ins.stopped,End_Prac_Ins.keys,End_Prac_Ins.rt,End_Prac_Ins.started,End_Prac_Ins.stopped,text_2.started,text_2.stopped,Fixation_Cross_2.started,Fixation_Cross_2.stopped,Rapid_Image_Present_2.started,Rapid_Image_Present_2.stopped,key_resp.keys,key_resp.rt,key_resp.started,key_resp.stopped,T1Response_2.started,T1Response_2.stopped,T2Response_2.started,T2Response_2.stopped,key_resp_4.keys,key_resp_4.rt,key_resp_4.started,key_resp_4.stopped,text.started,text.stopped,End_Instructions.keys,End_Instructions.rt,End_Instructions.started,End_Instructions.stopped,text_5.started,text_5.stopped,FC.started,FC.stopped,Rapid_Image_Present.started,Rapid_Image_Present.stopped,T1Response.started,T1Response.stopped,key_resp_2.keys,key_resp_2.rt,key_resp_2.started,key_resp_2.stopped,T2Response.started,T2Response.stopped,key_resp_3.keys,key_resp_3.rt,key_resp_3.started,key_resp_3.stopped,text_6.started,text_6.stopped,Fin_ins.keys,Fin_ins.rt,Fin_ins.started,Fin_ins.stopped,MemTest.started,MemTest.stopped,MemResponse.keys,MemResponse.rt,MemResponse.started,MemResponse.stopped,Display.started,Display.stopped,text_7.started,text_7.stopped,endOfExperiment.started,endOfExperiment.stopped,key_resp_5.keys,key_resp_5.rt,key_resp_5.started,key_resp_5.stopped,participant,session,date,expName,psychopyVersion,frameRate,
,,,,,,,,,,,,,,,,,,,,,,,,,,,,,,,,,,,,,,,,,,,,,,,,,,,,11.180371400001604,None,space,3.774422099997537,11.180371400001604,None,,,,,,,,,,,,,,,,,,,,,,,,,,,,,,,,,,,,,,,,,,,,,,,,,,,,,,,,,,,,,,,,,PPT58,001,2022-07-15_17h02.04.569,ABstudy,2022.1.4,59.938922238059725,
AB_Prac,Lag1_T1A_T2A,1,A,A,8,9,7,3,12,Moose,Did you see the Moose?,0.5,0.016,JPG\,clothespin03b,corkscrew03a,drillbit03a,fusilli03a,needlenosepliers01,perfume01a,pistachio,scrubbingbrush05b,spatula03,toothpastetube,hinge,toydinosaur,blankImage,blankImage,blankImage,blankImage,blankImage,None,,,,,,,,0,0,0,10,,,,,,,,,,,,,,,15.018109900000127,16.01917610000055,16.002506700000595,16.586941900000966,16.586941900000966,None,right,2.302106899998762,22.653018500001053,None,22.653018500001053,None,24.978150700000697,None,right,1.2007860999983677,24.978150700000697,None,,,,,,,,,,,,,,,,,,,,,,,,,,,,,,,,,,,,,,,,,,,,,,,PPT58,001,2022-07-15_17h02.04.569,ABstudy,2022.1.4,59.938922238059725,
AB_Prac,Lag5_T1P_T2A,5,P,A,6,11,5,5,16,Wheat,Did you see the Wheat?,0.5,0.016,JPG\,bottleopener01,dentalfloss03b,cooler01,icecreamcone01a,paperclip01b,wheat,pencilsharpener02a,plasticbasket01a,toycar04,apricot,hairclip02,rock01a,honeydewmelon,antenna,blackberry,cardboardbox,blankImage,wheat,,,,,,,,0,1,1,7,,,,,,,,,,,,,,,26.25226350000048,27.263618700000734,27.247093200001473,27.804773200001364,27.804773200001364,None,left,1.501072799997928,35.85358450000058,None,35.85358450000058,None,37.37371920000078,None,right,0.6051712999997108,37.37371920000078,None,,,,,,,,,,,,,,,,,,,,,,,,,,,,,,,,,,,,,,,,,,,,,,,PPT58,001,2022-07-15_17h02.04.569,ABstudy,2022.1.4,59.938922238059725,
AB_Prac,Lag5_T1A_T2A,5,A,A,6,11,5,5,16,castle,Did you see the castle?,0.5,0.016,JPG\,tape02a,englishmuffin,flask,ladle02a,monitor,peach01,keychain,squeegee01b,telephone01b,whisk,walkman,syringe02,baguette01,coaster,box01a,coffeepot03a,blankImage,None,,,,,,,,0,2,2,11,,,,,,,,,,,,,,,38.00800630000049,39.008640000000014,38.99218520000068,39.55924310000046,39.55924310000046,None,right,1.3555640999984462,47.639717900001415,None,47.639717900001415,None,49.018441500000336,None,right,1.2807142999990901,49.018441500000336,None,,,,,,,,,,,,,,,,,,,,,,,,,,,,,,,,,,,,,,,,,,,,,,,PPT58,001,2022-07-15_17h02.04.569,ABstudy,2022.1.4,59.938922238059725,
AB_Prac,Lag5_T1P_T2P,5,P,P,5,10,4,5,15,washing machine,Did you see the washing machine?,0.5,0.016,JPG\,waterbottle03,wheel01,flashlight02b,zucchini01,washingmachine,headphones02b,nutcracker01,paintroller01,paperclip03,stapler06,ribbon04,electricrazor,bottleofredwine01,pitabread,pot02a,blankImage,blankImage,washingmachine,,,,,,,,0,3,3,4,,,,,,,,,,,,,,,50.322457700000086,51.33770200000072,51.30422440000075,51.86658940000052,51.86658940000052,None,left,0.7620975999980146,59.40063810000174,None,59.40063810000174,None,60.17975970000043,None,left,0.6074771999974473,60.17975970000043,None,,,,,,,,,,,,,,,,,,,,,,,,,,,,,,,,,,,,,,,,,,,,,,,PPT58,001,2022-07-15_17h02.04.569,ABstudy,2022.1.4,59.938922238059725,
AB_Prac,Lag5_T1A_T2P,5,A,P,6,11,5,3,14,dog,Did you see the dog?,0.5,0.016,JPG\,bucket01a,doorlock,cookiecutter,fireextinguisher01,gluestick,highlighter02b,sportbag,spraybottle01,suitcase,thread02,stapler05,walnut01c,icecubetray01a,vikingmask01b,blankImage,blankImage,blankImage,None,,,,,,,,0,4,4,9,,,,,,,,,,,,,,,60.915089800000715,61.91471690000071,61.89823340000112,62.46420390000094,62.46420390000094,None,right,0.8865597999974852,69.49998130000131,None,69.49998130000131,None,70.40657920000012,None,left,0.4995312999981252,70.40657920000012,None,,,,,,,,,,,,,,,,,,,,,,,,,,,,,,,,,,,,,,,,,,,,,,,PPT58,001,2022-07-15_17h02.04.569,ABstudy,2022.1.4,59.938922238059725,
AB_Prac,Lag1_T1P_T2P,1,P,P,6,7,5,5,12,triangle,Did you see the triangle?,0.5,0.016,JPG\,ginger,mousetrap,plum01,slipper01b,dropper01,triangle,stapler04b,pants,raspberry01,rope03,scale01a,vase01,blankImage,blankImage,blankImage,blankImage,blankImage,triangle,,,,,,,,0,5,5,1,,,,,,,,,,,,,,,70.92476640000132,71.92475670000022,71.90815780000048,72.47400570000173,72.47400570000173,None,left,1.3491956999969261,78.49332270000014,None,78.49332270000014,None,79.86620850000145,None,right,0.7525803999997152,79.86620850000145,None,,,,,,,,,,,,,,,,,,,,,,,,,,,,,,,,,,,,,,,,,,,,,,,PPT58,001,2022-07-15_17h02.04.569,ABstudy,2022.1.4,59.938922238059725,
AB_Prac,Lag1_T1P_T2A,1,P,A,8,9,7,5,14,flower,Did you see the flower?,0.5,0.016,JPG\,razor01,axe01,binder03b,bowl01,kettle01,lettuce,lime,plasticflower01b,mitten04,pencilcase01,plunger02,strawbasket01,toothpick02,wallet02a,blankImage,blankImage,blankImage,plasticflower01b,,,,,,,,0,6,6,5,,,,,,,,,,,,,,,80.65028680000069,81.65131480000127,81.63468290000128,82.18660140000065,82.18660140000065,None,left,1.3084356999988813,89.27072990000124,None,89.27072990000124,None,90.6101690000014,None,right,0.4806236999993416,90.6101690000014,None,,,,,,,,,,,,,,,,,,,,,,,,,,,,,,,,,,,,,,,,,,,,,,,PPT58,001,2022-07-15_17h02.04.569,ABstudy,2022.1.4,59.938922238059725,
AB_Prac,Lag5_T1P_T2P,5,P,P,7,12,6,3,15,vacuum,Did you see the vacuum?,0.5,0.016,JPG\,fork07b,lightbulb01,manshoe,saw02b,shoelace,soap03a,vacuumcleaner01,floortile01,necklace,doll,cabbage,stapler03a,hanger02a,laptop01a,nailpolish03b,blankImage,blankImage,vacuumcleaner01,,,,,,,,0,7,7,2,,,,,,,,,,,,,,,91.11122120000073,92.11163550000128,92.09471900000062,92.65215700000044,92.65215700000044,None,left,0.5788406999981817,100.27156860000105,None,100.27156860000105,None,100.87030590000177,None,left,0.43598589999783144,100.87030590000177,None,,,,,,,,,,,,,,,,,,,,,,,,,,,,,,,,,,,,,,,,,,,,,,,PPT58,001,2022-07-15_17h02.04.569,ABstudy,2022.1.4,59.938922238059725,
AB_Prac,Lag1_T1P_T2A,1,P,A,5,6,4,5,11,Webcam,Did you see the Webcam?,0.5,0.016,JPG\,pictureframe04,binder03b,straw,adjustablewrench01b,webcam,cane,hairdryer02a,icepack,kitchenscale01a,lifejacket,piggybank,blankImage,blankImage,blankImage,blankImage,blankImage,blankImage,webcam,,,,,,,,0,8,8,6,,,,,,,,,,,,,,,101.33815500000128,102.33835360000012,102.32188230000065,102.8876659000016,102.8876659000016,None,left,0.6991569999991043,108.5117388000017,None,108.5117388000017,None,109.2287737000006,None,right,0.37400199999683537,109.2287737000006,None,,,,,,,,,,,,,,,,,,,,,,,,,,,,,,,,,,,,,,,,,,,,,,,PPT58,001,2022-07-15_17h02.04.569,ABstudy,2022.1.4,59.938922238059725,
AB_Prac,Lag1_T1P_T2P,1,P,P,8,9,7,5,14,Tennis racket,Did you see the Tennis racket?,0.5,0.016,JPG\,coconut,computermouse06,croissant01,deodorant02a,pillow01a,peanut01,boot02b,tennisracket,stapler03b,crayon,eggplant,marker01a,plant01,radish01,blankImage,blankImage,blankImage,tennisracket,,,,,,,,0,9,9,0,,,,,,,,,,,,,,,109.63156460000027,110.64681470000141,110.61347620000015,111.18348360000164,111.18348360000164,None,left,0.5502656999979081,118.26047800000015,None,118.26047800000015,None,118.83820680000099,None,left,0.4525820999988355,118.83820680000099,None,,,,,,,,,,,,,,,,,,,,,,,,,,,,,,,,,,,,,,,,,,,,,,,PPT58,001,2022-07-15_17h02.04.569,ABstudy,2022.1.4,59.938922238059725,
AB_Prac,Lag5_T1P_T2A,5,P,A,6,11,5,5,16,bread,Did you see the bread?,0.5,0.016,JPG\,cleaver01,clipboard,dustpan,hikingshoe01,notebook03a,baguette01,playingcard,pliers02b,styrofoamcup,rollingpin01a,swimgoggles,wineglass01,fryingpan02a,safetypin,syringe01,thimble,blankImage,baguette01,,,,,,,,0,10,10,8,,,,,,,,,,,,,,,119.32195010000032,120.32303100000172,120.306387300001,120.85915490000116,120.85915490000116,None,left,0.7732387999985804,128.93323920000148,None,128.93323920000148,None,129.73245680000036,None,right,0.3984223999996175,129.73245680000036,None,,,,,,,,,,,,,,,,,,,,,,,,,,,,,,,,,,,,,,,,,,,,,,,PPT58,001,2022-07-15_17h02.04.569,ABstudy,2022.1.4,59.938922238059725,
AB_Prac,Lag5_T1P_T2P,5,P,P,5,10,4,5,15,Vulture,Did you see the Vulture?,0.5,0.016,JPG\,shorts01,toast,ramekin01,bib,vulture,cracker02,date,glasses01a,hat03b,stapler01,measuringtape01,nail,pill,drum01,starfish01,blankImage,blankImage,vulture,,,,,,,,0,11,11,3,,,,,,,,,,,,,,,130.23950990000048,131.25050550000014,131.23388180000074,131.79883900000095,131.79883900000095,None,left,1.0819932999984303,139.2318434000008,None,139.2318434000008,None,140.3429410000008,None,left,0.675331799997366,140.3429410000008,None,,,,,,,,,,,,,,,,,,,,,,,,,,,,,,,,,,,,,,,,,,,,,,,PPT58,001,2022-07-15_17h02.04.569,ABstudy,2022.1.4,59.938922238059725,
,,,,,,,,,,,,,,,,,,,,,,,,,,,,,,,,,,,,,,,,,,,,,,,,,,,,,,,,,,,,,,,,,,,,,,,,,,,,141.04362050000054,None,space,12.287198199997874,141.04362050000054,None,,,,,,,,,,,,,,,,,,,,,,,,,,,,,,,,,,,,,,,,,PPT58,001,2022-07-15_17h02.04.569,ABstudy,2022.1.4,59.938922238059725,
AB,Lag1_T1A_T2A,1,A,A,7,8,6,5,13,Poker chips,Did you see the Poker chips?,0.12,0.016,JPG\,violin,pizza,toothbrush03b,pineapple01a,banana01,ashtray01,candy,dandelion,clock04,sock01a,microscope,speaker04,calculator01,blankImage,blankImage,blankImage,blankImage,cigar,,,,,,,,,,,,0,0,0,289,,,,,,,,,,,,,,,,,,,,,,,,,,,,,,,,,,,153.95998710000094,154.9740496000013,154.95743930000026,155.54049660000055,155.54049660000055,None,157.14877850000084,None,right,1.4610255999978108,157.14877850000084,None,158.62789590000102,None,right,0.9185917999984667,158.62789590000102,None,,,,,,,,,,,,,,,,,,,,,,,PPT58,001,2022-07-15_17h02.04.569,ABstudy,2022.1.4,59.938922238059725,
AB,Lag1_T1P_T2P,1,P,P,7,8,6,3,11,trampoline,Did you see the trampoline?,0.12,0.016,JPG\,dice05a,watch02a,pig,lighter01,button01,strawberry,trampoline,stapler03a,plate01b,pen04b,feather03a,blankImage,blankImage,blankImage,blankImage,blankImage,blankImage,trampoline,,,,,,,,,,,,0,1,1,73,,,,,,,,,,,,,,,,,,,,,,,,,,,,,,,,,,,159.57928119999997,160.57970750000095,160.56318590000046,161.12287520000064,161.12287520000064,None,162.53027850000035,None,left,1.176098699997965,162.53027850000035,None,163.73269280000022,None,left,0.43758489999709127,163.73269280000022,None,,,,,,,,,,,,,,,,,,,,,,,PPT58,001,2022-07-15_17h02.04.569,ABstudy,2022.1.4,59.938922238059725,
AB,Lag1_T1P_T2P,1,P,P,8,9,7,4,13,crab,Did you see the crab?,0.12,0.016,JPG\,candle01,fork03c,plate01b,violin,computerkeyboard02,candy,calculator01,crab01,stapler04b,sock01a,teabag,banana01,cd,blankImage,blankImage,blankImage,blankImage,crab01,,,,,,,,,,,,0,2,2,37,,,,,,,,,,,,,,,,,,,,,,,,,,,,,,,,,,,164.20015469999998,165.20105670000157,165.1844482000015,165.74148510000123,165.74148510000123,None,167.3820674000017,None,left,1.1244877999979508,167.3820674000017,None,168.53767730000072,None,right,0.36039899999923364,168.53767730000072,None,,,,,,,,,,,,,,,,,,,,,,,PPT58,001,2022-07-15_17h02.04.569,ABstudy,2022.1.4,59.938922238059725,
AB,Lag1_T1P_T2A,1,P,A,7,8,6,3,11,Armadillo,Did you see the Armadillo?,0.12,0.016,JPG\,clock01a,cellphone,toaster01,toothbrush03b,cauliflower01,microscope,armadillo,paintbrush01,scarf,clock04,sponge01,blankImage,blankImage,blankImage,blankImage,blankImage,blankImage,armadillo,,,,,,,,,,,,0,3,3,180,,,,,,,,,,,,,,,,,,,,,,,,,,,,,,,,,,,168.92277170000125,169.92216990000088,169.90569340000002,170.4737047000017,170.4737047000017,None,171.85440570000173,None,left,1.9233076999989862,171.85440570000173,None,173.80971600000157,None,right,0.41619249999894237,173.80971600000157,None,,,,,,,,,,,,,,,,,,,,,,,PPT58,001,2022-07-15_17h02.04.569,ABstudy,2022.1.4,59.938922238059725,
AB,Lag5_T1A_T2P,5,A,P,5,10,4,5,15,Eye patch,Did you see the Eye patch?,0.12,0.016,JPG\,scissors01,balloon01b,eraser,feather03a,banana01,candle01,measuringcup01,calculator01,thermometer02b,stapler03b,pear01,carrot01,globe,baseball01a,leaf02a,blankImage,blankImage,cross01,,,,,,,,,,,,0,4,4,258,,,,,,,,,,,,,,,,,,,,,,,,,,,,,,,,,,,174.27869090000058,175.27772210000148,175.27772210000148,175.83054200000151,175.83054200000151,None,177.6323719000011,None,right,1.4175993999979255,177.6323719000011,None,179.0812762000005,None,right,0.6884176999992633,179.0812762000005,None,,,,,,,,,,,,,,,,,,,,,,,PPT58,001,2022-07-15_17h02.04.569,ABstudy,2022.1.4,59.938922238059725,
AB,Lag5_T1P_T2P,5,P,P,6,11,5,3,14,ladder,Did you see the ladder?,0.12,0.016,JPG\,celery,orange,scissors01,balloon01b,avocado01,stepladder,mushroom01,sewingmachine01a,lighter01,dice05a,stapler01,fan,cd,sock01a,blankImage,blankImage,blankImage,stepladder,,,,,,,,,,,,0,5,5,119,,,,,,,,,,,,,,,,,,,,,,,,,,,,,,,,,,,179.79886060000172,180.79992960000163,180.78326750000087,181.33966070000133,181.33966070000133,None,183.10721360000025,None,left,2.0234873999979754,183.10721360000025,None,185.1544470000008,None,right,1.216234199997416,185.1544470000008,None,,,,,,,,,,,,,,,,,,,,,,,PPT58,001,2022-07-15_17h02.04.569,ABstudy,2022.1.4,59.938922238059725,
AB,Lag5_T1A_T2P,5,A,P,7,12,6,5,17,funnel,Did you see the funnel?,0.12,0.016,JPG\,iron01b,orange,birthdaycandle,potato02b,cauliflower01,pencil01,key01,candle08b,celery,tableknife02,pen04b,stapler04b,ring01,rice,lemon02,tomato01,blankImage,englishcucumber,,,,,,,,,,,,0,6,6,259,,,,,,,,,,,,,,,,,,,,,,,,,,,,,,,,,,,186.45560120000118,187.45676510000158,187.44022750000113,188.02966580000066,188.02966580000066,None,189.88427930000034,None,right,1.4700690999998187,189.88427930000034,None,191.37719060000018,None,left,0.4647627999984252,191.37719060000018,None,,,,,,,,,,,,,,,,,,,,,,,PPT58,001,2022-07-15_17h02.04.569,ABstudy,2022.1.4,59.938922238059725,
AB,Lag1_T1A_T2A,1,A,A,5,6,4,4,10,rose,Did you see the rose?,0.12,0.016,JPG\,sock01a,spoon01,alligator,comb02a,printer02,medal02b,lamp04a,cymbal,greenolive,computerkeyboard02,blankImage,blankImage,blankImage,blankImage,blankImage,blankImage,blankImage,cruiseship,,,,,,,,,,,,0,7,7,293,,,,,,,,,,,,,,,,,,,,,,,,,,,,,,,,,,,191.8608572000012,192.86201950000032,192.8450969000005,193.4074184000001,193.4074184000001,None,194.7316451000006,None,right,1.34293439999783,194.7316451000006,None,196.0986077000016,None,right,0.39922419999857084,196.0986077000016,None,,,,,,,,,,,,,,,,,,,,,,,PPT58,001,2022-07-15_17h02.04.569,ABstudy,2022.1.4,59.938922238059725,
AB,Lag5_T1P_T2P,5,P,P,7,12,6,5,17,American football helmet,Did you see the American football helmet?,0.12,0.016,JPG\,alligator,banana01,apple07,tomato01,button01,spoon01,footballhelmet,fork03c,slipper03b,potato02b,grape01,stapler03b,teabag,screwdriver04b,hammer01,tennisball01b,blankImage,footballhelmet,,,,,,,,,,,,0,8,8,148,,,,,,,,,,,,,,,,,,,,,,,,,,,,,,,,,,,196.51672130000043,197.5165130000005,197.49988740000117,198.00044890000026,198.00044890000026,None,200.01411010000083,None,left,0.9802399999971385,200.01411010000083,None,201.02015210000172,None,right,0.3268359999983659,201.02015210000172,None,,,,,,,,,,,,,,,,,,,,,,,PPT58,001,2022-07-15_17h02.04.569,ABstudy,2022.1.4,59.938922238059725,
AB,Lag5_T1A_T2P,5,A,P,6,11,5,5,16,bed,Did you see the bed?,0.12,0.016,JPG\,cellphone,tomato01,comb02a,candy,celery,cucumber,toaster01,fan,feather03a,pen04b,stapler03b,blueberry01,plate01b,cherry01,baseball01a,candle08b,blankImage,toolbox02,,,,,,,,,,,,0,9,9,274,,,,,,,,,,,,,,,,,,,,,,,,,,,,,,,,,,,201.48520730000018,202.48837430000094,202.47140780000154,203.0323823000017,203.0323823000017,None,204.88308060000054,None,right,1.1592577999981586,204.88308060000054,None,206.07506390000162,None,left,0.31129739999778394,206.07506390000162,None,,,,,,,,,,,,,,,,,,,,,,,PPT58,001,2022-07-15_17h02.04.569,ABstudy,2022.1.4,59.938922238059725,
AB,Lag5_T1A_T2P,5,A,P,7,12,6,3,15,hockey puck,Did you see the hockey puck?,0.12,0.016,JPG\,toiletpaper01a,lipstick02a,potato02b,speaker04,globe,strawberry,carrot01,plate01b,sock01a,candle08b,pen04b,stapler04b,foosballtable,brick,pear01,blankImage,blankImage,frisbee,,,,,,,,,,,,0,10,10,260,,,,,,,,,,,,,,,,,,,,,,,,,,,,,,,,,,,206.40885610000078,207.4097309000008,207.39298730000155,207.95892400000048,207.95892400000048,None,209.82164230000126,None,left,1.660349399999177,209.82164230000126,None,211.51392269999997,None,right,0.41628359999776876,211.51392269999997,None,,,,,,,,,,,,,,,,,,,,,,,PPT58,001,2022-07-15_17h02.04.569,ABstudy,2022.1.4,59.938922238059725,
AB,Lag5_T1A_T2P,5,A,P,6,11,5,3,14,saxophone,Did you see the saxophone?,0.12,0.016,JPG\,globe,belt02a,sponge01,violin,fork03c,tomato01,clock01a,microscope,balloon01b,scarf,stapler03b,pen04b,brick,brownsugar,blankImage,blankImage,blankImage,microphone01,,,,,,,,,,,,0,11,11,267,,,,,,,,,,,,,,,,,,,,,,,,,,,,,,,,,,,211.94909690000168,212.9486648000002,212.9319370000012,213.50003340000148,213.50003340000148,None,215.1651367000013,None,right,1.517215199997736,215.1651367000013,None,216.7025717000015,None,left,0.3633483999983582,216.7025717000015,None,,,,,,,,,,,,,,,,,,,,,,,PPT58,001,2022-07-15_17h02.04.569,ABstudy,2022.1.4,59.938922238059725,
AB,Lag1_T1A_T2P,1,A,P,8,9,7,4,13,Fireplace,Did you see the Fireplace?,0.12,0.016,JPG\,scissors01,ashtray01,garlic01a,medal02b,cigarette,candle08b,leaf02a,envelope03a,stapler06,rice,toiletpaper01a,greenolive,cymbal,blankImage,blankImage,blankImage,blankImage,dartboard,,,,,,,,,,,,0,12,12,252,,,,,,,,,,,,,,,,,,,,,,,,,,,,,,,,,,,217.08807830000114,218.1037976000007,218.07032330000038,218.6263082000005,218.6263082000005,None,220.15750610000032,None,right,1.2441330999990896,220.15750610000032,None,221.42375640000137,None,left,0.34597020000001066,221.42375640000137,None,,,,,,,,,,,,,,,,,,,,,,,PPT58,001,2022-07-15_17h02.04.569,ABstudy,2022.1.4,59.938922238059725,
AB,Lag5_T1A_T2P,5,A,P,7,12,6,5,17,Rollerblade,Did you see the Rollerblade?,0.12,0.016,JPG\,binoculars01b,cymbal,pizza,candy,paintbrush01,sponge01,grape01,thermometer02b,speaker04,lemon02,lipstick02a,stapler03b,candle01,8ball,plate01b,pen04b,blankImage,lion,,,,,,,,,,,,0,13,13,266,,,,,,,,,,,,,,,,,,,,,,,,,,,,,,,,,,,221.79211580000083,222.7919634000009,222.77498000000014,223.33875960000114,223.33875960000114,None,225.2865348000014,None,right,1.1879461999978957,225.2865348000014,None,226.49544250000145,None,left,0.34638149999955203,226.49544250000145,None,,,,,,,,,,,,,,,,,,,,,,,PPT58,001,2022-07-15_17h02.04.569,ABstudy,2022.1.4,59.938922238059725,
AB,Lag1_T1P_T2P,1,P,P,6,7,5,4,11,Bow,Did you see the Bow?,0.12,0.016,JPG\,broom01,plate01b,scissors01,garlic01a,paintbrush01,bow,stapler03a,shirt02,speaker04,celery,sandal,blankImage,blankImage,blankImage,blankImage,blankImage,blankImage,bow,,,,,,,,,,,,0,14,14,53,,,,,,,,,,,,,,,,,,,,,,,,,,,,,,,,,,,226.86370930000157,227.86336030000166,227.84674740000082,228.39885960000174,228.39885960000174,None,229.8026125000015,None,left,1.91148499999872,229.8026125000015,None,231.73398570000063,None,right,0.3721637999988161,231.73398570000063,None,,,,,,,,,,,,,,,,,,,,,,,PPT58,001,2022-07-15_17h02.04.569,ABstudy,2022.1.4,59.938922238059725,
AB,Lag5_T1A_T2P,5,A,P,5,10,4,4,14,duck,Did you see the duck?,0.12,0.016,JPG\,brick,eraser,cucumber,ashtray01,thermometer02b,binoculars01b,lipstick02a,screwdriver04b,grape01,stapler04b,battery02b,iron01b,dice05a,avocado01,blankImage,blankImage,blankImage,barrel01,,,,,,,,,,,,0,15,15,280,,,,,,,,,,,,,,,,,,,,,,,,,,,,,,,,,,,232.1344011000001,233.13529170000038,233.11864950000017,233.6805860000004,233.6805860000004,None,235.46323290000146,None,right,1.0030994999979157,235.46323290000146,None,236.48852540000007,None,left,0.3536971999983507,236.48852540000007,None,,,,,,,,,,,,,,,,,,,,,,,PPT58,001,2022-07-15_17h02.04.569,ABstudy,2022.1.4,59.938922238059725,
AB,Lag5_T1P_T2A,5,P,A,5,10,4,3,13,pin,Did you see the pin?,0.12,0.016,JPG\,candle01,fork03c,plate01b,violin,pin,candy,calculator01,paintbrush01,cherry01,sock01a,teabag,banana01,cd,blankImage,blankImage,blankImage,blankImage,pin,,,,,,,,,,,,0,16,16,215,,,,,,,,,,,,,,,,,,,,,,,,,,,,,,,,,,,236.87237560000176,237.873207300001,237.85675450000053,238.40949770000043,238.40949770000043,None,240.04232310000043,None,right,1.8402112999992823,240.04232310000043,None,241.91076670000075,None,right,0.627540699999372,241.91076670000075,None,,,,,,,,,,,,,,,,,,,,,,,PPT58,001,2022-07-15_17h02.04.569,ABstudy,2022.1.4,59.938922238059725,
AB,Lag5_T1P_T2P,5,P,P,7,12,6,5,17,elbow,Did you see the elbow?,0.12,0.016,JPG\,candle01,fork03c,plate01b,violin,computerkeyboard02,candy,elbow,paintbrush01,cherry01,sock01a,teabag,stapler01,cd,lighter01,book01b,tennisball01b,blankImage,elbow,,,,,,,,,,,,0,17,17,87,,,,,,,,,,,,,,,,,,,,,,,,,,,,,,,,,,,242.56135750000067,243.56237290000172,243.54562560000159,244.09665100000166,244.09665100000166,None,246.12486050000007,None,left,0.5966708999985713,246.12486050000007,None,246.74890980000055,None,left,0.35749569999825326,246.74890980000055,None,,,,,,,,,,,,,,,,,,,,,,,PPT58,001,2022-07-15_17h02.04.569,ABstudy,2022.1.4,59.938922238059725,
AB,Lag1_T1A_T2A,1,A,A,5,6,4,3,9,Pigeon,Did you see the Pigeon?,0.12,0.016,JPG\,candle01,paintbrush01,scissors01,fan,microscope,toothbrush03b,candle08b,watermelon01,teabag,blankImage,blankImage,blankImage,blankImage,blankImage,blankImage,blankImage,blankImage,floorlamp,,,,,,,,,,,,0,18,18,286,,,,,,,,,,,,,,,,,,,,,,,,,,,,,,,,,,,247.1326065000012,248.1335994000001,248.11702210000112,248.67012390000127,248.67012390000127,None,249.80318440000156,None,right,1.2150993999985076,249.80318440000156,None,251.03632330000073,None,left,0.37426509999750124,251.03632330000073,None,,,,,,,,,,,,,,,,,,,,,,,PPT58,001,2022-07-15_17h02.04.569,ABstudy,2022.1.4,59.938922238059725,
AB,Lag1_T1P_T2P,1,P,P,7,8,6,3,11,swing,Did you see the swing?,0.12,0.016,JPG\,sewingmachine01a,thermometer02b,sponge01,eraser,broccoli01a,fork03c,swing,stapler03b,belt02a,medal02b,pineapple01a,blankImage,blankImage,blankImage,blankImage,blankImage,blankImage,swing,,,,,,,,,,,,0,19,19,30,,,,,,,,,,,,,,,,,,,,,,,,,,,,,,,,,,,251.43701240000155,252.43805880000036,252.42110420000063,252.99235810000027,252.99235810000027,None,254.32412720000139,None,right,1.2454882999991241,254.32412720000139,None,255.5911152000008,None,left,0.37046989999907964,255.5911152000008,None,,,,,,,,,,,,,,,,,,,,,,,PPT58,001,2022-07-15_17h02.04.569,ABstudy,2022.1.4,59.938922238059725,
AB,Lag5_T1P_T2A,5,P,A,7,12,6,3,15,Toy soldier,Did you see the Toy soldier?,0.12,0.016,JPG\,binoculars01b,cymbal,pizza,candy,paintbrush01,sponge01,toysoldier01b,thermometer02b,speaker04,lemon02,lipstick02a,strawberry,candle01,acorn,plate01b,blankImage,blankImage,toysoldier01b,,,,,,,,,,,,0,20,20,203,,,,,,,,,,,,,,,,,,,,,,,,,,,,,,,,,,,255.9915026000017,256.9925312000014,256.9756275,257.5411565000013,257.5411565000013,None,259.3760869000016,None,left,1.4104605999982596,259.3760869000016,None,260.81291710000005,None,right,0.3495999999995547,260.81291710000005,None,,,,,,,,,,,,,,,,,,,,,,,PPT58,001,2022-07-15_17h02.04.569,ABstudy,2022.1.4,59.938922238059725,
AB,Lag5_T1P_T2P,5,P,P,5,10,4,5,15,hockey puck,Did you see the hockey puck?,0.12,0.016,JPG\,chain01,pen04b,birthdaycandle,watermelon01,hockeypuck,scissors01,measuringcup01,candle01,hammer01,stapler06,ashtray01,feather03a,sewingmachine01a,thermometer02b,alligator,blankImage,blankImage,hockeypuck,,,,,,,,,,,,0,21,21,110,,,,,,,,,,,,,,,,,,,,,,,,,,,,,,,,,,,261.21498800000154,262.21414970000114,262.21414970000114,262.76745200000005,262.76745200000005,None,264.48437690000173,None,right,1.3421054999998887,264.48437690000173,None,265.8514092000005,None,left,0.33502559999942605,265.8514092000005,None,,,,,,,,,,,,,,,,,,,,,,,PPT58,001,2022-07-15_17h02.04.569,ABstudy,2022.1.4,59.938922238059725,
AB,Lag5_T1A_T2P,5,A,P,7,12,6,3,15,Car,Did you see the Car?,0.12,0.016,JPG\,lighter01,hammer01,spoon01,chain01,cymbal,sponge01,lipstick02a,alligator,pig,watermelon01,cauliflower01,stapler03b,broccoli01a,tableknife02,tennisball01b,blankImage,blankImage,wallclock,,,,,,,,,,,,0,22,22,277,,,,,,,,,,,,,,,,,,,,,,,,,,,,,,,,,,,266.2191507000007,267.2191879000002,267.20267370000147,267.76334490000045,267.76334490000045,None,269.61405920000107,None,right,1.2521335999990697,269.61405920000107,None,270.8892942000002,None,left,0.3288864999976795,270.8892942000002,None,,,,,,,,,,,,,,,,,,,,,,,PPT58,001,2022-07-15_17h02.04.569,ABstudy,2022.1.4,59.938922238059725,
AB,Lag5_T1P_T2A,5,P,A,8,13,7,5,18,Nunchuks,Did you see the Nunchuks?,0.12,0.016,JPG\,celery,tennisball01b,calculator01,pear01,screw02,orange,button01,nunchuk,onion,apple07,iron01b,brownsugar,banana01,paintbrush01,dandelion,toothbrush03b,blankImage,nunchuk,,,,,,,,,,,,0,23,23,218,,,,,,,,,,,,,,,,,,,,,,,,,,,,,,,,,,,271.2412133000016,272.2409217000004,272.22427830000015,272.7837849000007,272.7837849000007,None,274.7809623000012,None,right,0.8925370999986626,274.7809623000012,None,275.6944975000006,None,right,7.8355772999984765,275.6944975000006,None,,,,,,,,,,,,,,,,,,,,,,,PPT58,001,2022-07-15_17h02.04.569,ABstudy,2022.1.4,59.938922238059725,
AB,Lag5_T1P_T2P,5,P,P,5,10,4,3,13,Rabbit,Did you see the Rabbit?,0.12,0.016,JPG\,celery,tennisball01b,calculator01,pear01,jackrabbit,orange,button01,cellphone,onion,stapler06,iron01b,brownsugar,banana01,blankImage,blankImage,blankImage,blankImage,jackrabbit,,,,,,,,,,,,0,24,24,90,,,,,,,,,,,,,,,,,,,,,,,,,,,,,,,,,,,283.55233060000137,284.55311410000104,284.5365795000016,285.09697060000144,285.09697060000144,None,286.7231593000015,None,left,0.7191845999986981,286.7231593000015,None,287.472622700001,None,left,0.30545949999941513,287.472622700001,None,,,,,,,,,,,,,,,,,,,,,,,PPT58,001,2022-07-15_17h02.04.569,ABstudy,2022.1.4,59.938922238059725,
AB,Lag5_T1P_T2A,5,P,A,6,11,5,5,16,World map,Did you see the World map?,0.12,0.016,JPG\,cigarette,pig,banana01,strawberry,clock01a,worldmap,spoon01,blueberry01,battery02b,pineapple01a,chain01,paintbrush01,candy,pen04b,teabag,birthdaycandle,blankImage,worldmap,,,,,,,,,,,,0,25,25,205,,,,,,,,,,,,,,,,,,,,,,,,,,,,,,,,,,,287.80680480000046,288.8074822000017,288.79065880000053,289.3469415000018,289.3469415000018,None,291.2472706000008,None,left,1.2508846999971865,291.2472706000008,None,292.5278599000012,None,right,0.3054606999976386,292.5278599000012,None,,,,,,,,,,,,,,,,,,,,,,,PPT58,001,2022-07-15_17h02.04.569,ABstudy,2022.1.4,59.938922238059725,
AB,Lag1_T1P_T2P,1,P,P,6,7,5,4,11,bowling pin,Did you see the bowling pin?,0.12,0.016,JPG\,strawberry,leaf02a,clock04,candle01,avocado01,bowlingpin,stapler03a,brownsugar,ring01,lemon02,fork03c,blankImage,blankImage,blankImage,blankImage,blankImage,blankImage,bowlingpin,,,,,,,,,,,,0,26,26,8,,,,,,,,,,,,,,,,,,,,,,,,,,,,,,,,,,,292.86213860000134,293.8624770000006,293.8457618000011,294.41270070000064,294.41270070000064,None,295.80897600000026,None,right,2.993706799998108,295.80897600000026,None,298.8339306000016,None,left,0.8317145999972126,298.8339306000016,None,,,,,,,,,,,,,,,,,,,,,,,PPT58,001,2022-07-15_17h02.04.569,ABstudy,2022.1.4,59.938922238059725,
AB,Lag1_T1P_T2P,1,P,P,7,8,6,5,13,arrow,Did you see the arrow?,0.12,0.016,JPG\,pencil01,broccoli01a,button01,sponge01,watermelon01,lipstick02a,arrow02,stapler04b,lighter01,sock01a,spoon01,blueberry01,belt02a,blankImage,blankImage,blankImage,blankImage,arrow02,,,,,,,,,,,,0,27,27,76,,,,,,,,,,,,,,,,,,,,,,,,,,,,,,,,,,,299.6849157000015,300.68602790000114,300.66905640000004,301.223621000001,301.223621000001,None,302.87586290000036,None,left,1.1022034999969037,302.87586290000036,None,304.0059850000016,None,right,0.40439709999918705,304.0059850000016,None,,,,,,,,,,,,,,,,,,,,,,,PPT58,001,2022-07-15_17h02.04.569,ABstudy,2022.1.4,59.938922238059725,
AB,Lag5_T1P_T2P,5,P,P,5,10,4,4,14,Christmas lights,Did you see the Christmas lights?,0.12,0.016,JPG\,binoculars01b,cymbal,pizza,candy,christmaslights,sponge01,grape01,thermometer02b,speaker04,stapler03a,lipstick02a,strawberry,candle01,tambourine02,blankImage,blankImage,blankImage,christmaslights,,,,,,,,,,,,0,28,28,168,,,,,,,,,,,,,,,,,,,,,,,,,,,,,,,,,,,304.4402391000003,305.4405617000011,305.4240488000014,305.98796310000034,305.98796310000034,None,307.7048010000017,None,left,1.8324477999976807,307.7048010000017,None,309.5614019000004,None,left,0.26385949999894365,309.5614019000004,None,,,,,,,,,,,,,,,,,,,,,,,PPT58,001,2022-07-15_17h02.04.569,ABstudy,2022.1.4,59.938922238059725,
AB,Lag5_T1P_T2P,5,P,P,7,12,6,5,17,Pigeon,Did you see the Pigeon?,0.12,0.016,JPG\,strawberry,leaf02a,clock04,candle01,avocado01,paintbrush01,pigeon,brownsugar,ring01,lemon02,fork03c,stapler01,cauliflower01,tableknife02,tennisball01b,thermometer02b,blankImage,pigeon,,,,,,,,,,,,0,29,29,151,,,,,,,,,,,,,,,,,,,,,,,,,,,,,,,,,,,309.84525210000174,310.8460827000017,310.82943440000054,311.39213500000005,311.39213500000005,None,313.3795265000008,None,left,0.6942321999977139,313.3795265000008,None,314.0994451000006,None,left,0.319158399999651,314.0994451000006,None,,,,,,,,,,,,,,,,,,,,,,,PPT58,001,2022-07-15_17h02.04.569,ABstudy,2022.1.4,59.938922238059725,
AB,Lag1_T1A_T2P,1,A,P,8,9,7,4,13,nose,Did you see the nose?,0.12,0.016,JPG\,pizza,strawberry,potato02b,speaker04,battery02b,iron01b,dice05a,cellphone,stapler06,banana01,medal02b,baseball01a,toaster01,blankImage,blankImage,blankImage,blankImage,cow,,,,,,,,,,,,0,30,30,231,,,,,,,,,,,,,,,,,,,,,,,,,,,,,,,,,,,314.44962170000144,315.45057780000025,315.43382100000053,316.0026848000016,316.0026848000016,None,317.64059930000076,None,right,1.209691299998667,317.64059930000076,None,318.87056810000104,None,right,0.7153133999981947,318.87056810000104,None,,,,,,,,,,,,,,,,,,,,,,,PPT58,001,2022-07-15_17h02.04.569,ABstudy,2022.1.4,59.938922238059725,
AB,Lag1_T1A_T2P,1,A,P,8,9,7,4,13,Rabbit,Did you see the Rabbit?,0.12,0.016,JPG\,lamp04a,broccoli01a,alligator,garlic01a,dandelion,brownsugar,avocado01,ring01,stapler06,cellphone,medal02b,cd,calculator01,blankImage,blankImage,blankImage,blankImage,escalator,,,,,,,,,,,,0,31,31,254,,,,,,,,,,,,,,,,,,,,,,,,,,,,,,,,,,,319.6048920000012,320.6057115000003,320.5890719000017,321.145410000001,321.145410000001,None,322.8047167000004,None,right,1.3015890999977273,322.8047167000004,None,324.12607840000055,None,left,0.32498199999827193,324.12607840000055,None,,,,,,,,,,,,,,,,,,,,,,,PPT58,001,2022-07-15_17h02.04.569,ABstudy,2022.1.4,59.938922238059725,
AB,Lag1_T1P_T2P,1,P,P,7,8,6,4,12,skunk,Did you see the skunk?,0.12,0.016,JPG\,fan,tomato01,candy,screwdriver04b,alligator,cd,skunk,stapler03b,button01,plate01b,brownsugar,lighter01,blankImage,blankImage,blankImage,blankImage,blankImage,skunk,,,,,,,,,,,,0,32,32,48,,,,,,,,,,,,,,,,,,,,,,,,,,,,,,,,,,,324.51194980000037,325.527318800001,325.4939056000003,326.0601804000016,326.0601804000016,None,327.5224287000001,None,right,1.1031444000000192,327.5224287000001,None,328.6470524000015,None,left,0.38668479999978445,328.6470524000015,None,,,,,,,,,,,,,,,,,,,,,,,PPT58,001,2022-07-15_17h02.04.569,ABstudy,2022.1.4,59.938922238059725,
AB,Lag5_T1A_T2P,5,A,P,6,11,5,4,15,butterfly,Did you see the butterfly?,0.12,0.016,JPG\,comb02a,key01,medal02b,battery02b,lighter01,microscope,watermelon01,sandal,pig,cellphone,stapler06,calculator01,cymbal,clock04,cucumber,blankImage,blankImage,uprightpiano01,,,,,,,,,,,,0,33,33,276,,,,,,,,,,,,,,,,,,,,,,,,,,,,,,,,,,,329.06408420000116,330.0653076000017,330.048445800001,330.6078709000012,330.6078709000012,None,332.4950998000004,None,right,0.8264774999970541,332.4950998000004,None,333.35167340000044,None,left,0.2742997999994259,333.35167340000044,None,,,,,,,,,,,,,,,,,,,,,,,PPT58,001,2022-07-15_17h02.04.569,ABstudy,2022.1.4,59.938922238059725,
AB,Lag1_T1P_T2P,1,P,P,8,9,7,4,13,ladder,Did you see the ladder?,0.12,0.016,JPG\,cigarette,fork03c,greenolive,broccoli01a,avocado01,tennisball01b,balloon01b,ladder,stapler03b,fan,clock01a,strawberry,envelope03a,blankImage,blankImage,blankImage,blankImage,ladder,,,,,,,,,,,,0,34,34,45,,,,,,,,,,,,,,,,,,,,,,,,,,,,,,,,,,,333.65210970000044,334.6532294000008,334.6363557000004,335.19190340000023,335.19190340000023,None,336.83411360000173,None,left,0.8791032999979507,336.83411360000173,None,337.7393849,None,left,0.2546634999980597,337.7393849,None,,,,,,,,,,,,,,,,,,,,,,,PPT58,001,2022-07-15_17h02.04.569,ABstudy,2022.1.4,59.938922238059725,
AB,Lag5_T1P_T2P,5,P,P,6,11,5,4,15,shower,Did you see the shower?,0.12,0.016,JPG\,dice05a,watch02a,pig,lighter01,button01,shower,paintbrush01,microscope,plate01b,pen04b,stapler05,weight04a,carrot01,shirt02,globe,blankImage,blankImage,shower,,,,,,,,,,,,0,35,35,121,,,,,,,,,,,,,,,,,,,,,,,,,,,,,,,,,,,338.0231704000016,339.02421780000077,339.0073486000001,339.5666815000004,339.5666815000004,None,341.49249390000114,None,right,1.2451018999981898,341.49249390000114,None,342.7612818000016,None,right,0.35312539999722503,342.7612818000016,None,,,,,,,,,,,,,,,,,,,,,,,PPT58,001,2022-07-15_17h02.04.569,ABstudy,2022.1.4,59.938922238059725,
AB,Lag5_T1P_T2P,5,P,P,8,13,7,5,18,popcorn,Did you see the popcorn?,0.12,0.016,JPG\,toaster01,garlic01a,hairclip03,fan,comb02a,apple07,orange,popcorn,onion,blueberry01,toiletpaper01a,fork03c,stapler06,pineapple01a,scarf,eraser,blankImage,popcorn,,,,,,,,,,,,0,36,36,155,,,,,,,,,,,,,,,,,,,,,,,,,,,,,,,,,,,343.1454663000004,344.14581350000117,344.12918100000024,344.6995059000001,344.6995059000001,None,346.64567480000005,None,left,0.6280165999978635,346.64567480000005,None,347.2988374000015,None,left,0.2712052999995649,347.2988374000015,None,,,,,,,,,,,,,,,,,,,,,,,PPT58,001,2022-07-15_17h02.04.569,ABstudy,2022.1.4,59.938922238059725,
AB,Lag5_T1P_T2P,5,P,P,6,11,5,5,16,motorcycle,Did you see the motorcycle?,0.12,0.016,JPG\,cucumber,ring01,lipstick02a,microscope,violin,motorcycle,celery,lighter01,cherry01,sewingmachine01a,stapler04b,key01,binoculars01b,medal02b,watermelon01,dice05a,blankImage,motorcycle,,,,,,,,,,,,0,37,37,93,,,,,,,,,,,,,,,,,,,,,,,,,,,,,,,,,,,347.59929660000125,348.6004490000014,348.58365890000096,349.13898700000027,349.13898700000027,None,351.1501446000002,None,left,0.5391209999979765,351.1501446000002,None,351.71954520000145,None,left,0.2820616999979393,351.71954520000145,None,,,,,,,,,,,,,,,,,,,,,,,PPT58,001,2022-07-15_17h02.04.569,ABstudy,2022.1.4,59.938922238059725,
AB,Lag1_T1P_T2P,1,P,P,6,7,5,3,10,jelly beans,Did you see the jelly beans?,0.12,0.016,JPG\,lipstick02a,cucumber,candle08b,printer02,grape01,jellybean,stapler01,lighter01,belt02a,balloon01b,blankImage,blankImage,blankImage,blankImage,blankImage,blankImage,blankImage,jellybean,,,,,,,,,,,,0,38,38,15,,,,,,,,,,,,,,,,,,,,,,,,,,,,,,,,,,,352.0225018000001,353.0381498000006,353.00467000000026,353.5556398000008,353.5556398000008,None,354.80999000000156,None,left,1.1200859999989916,354.80999000000156,None,355.9578603000009,None,left,0.25226829999883194,355.9578603000009,None,,,,,,,,,,,,,,,,,,,,,,,PPT58,001,2022-07-15_17h02.04.569,ABstudy,2022.1.4,59.938922238059725,
AB,Lag1_T1P_T2P,1,P,P,7,8,6,5,13,dream catcher,Did you see the dream catcher?,0.12,0.016,JPG\,clock01a,cellphone,toaster01,toothbrush03b,cauliflower01,microscope,dreamcatcher,stapler05,scarf,clock04,sponge01,iron01b,watch02a,blankImage,blankImage,blankImage,blankImage,dreamcatcher,,,,,,,,,,,,0,39,39,81,,,,,,,,,,,,,,,,,,,,,,,,,,,,,,,,,,,356.2412170000007,357.2422198000004,357.2256537000012,357.79143060000024,357.79143060000024,None,359.3952573000006,None,left,1.1910364999985177,359.3952573000006,None,360.6122944000017,None,right,0.27701149999847985,360.6122944000017,None,,,,,,,,,,,,,,,,,,,,,,,PPT58,001,2022-07-15_17h02.04.569,ABstudy,2022.1.4,59.938922238059725,
AB,Lag1_T1A_T2P,1,A,P,8,9,7,5,14,calendar,Did you see the calendar?,0.12,0.016,JPG\,foosballtable,candy,envelope03a,microscope,pencil01,leaf02a,scissors01,watermelon01,stapler04b,dandelion,pineapple01a,hammer01,celery,thermometer02b,blankImage,blankImage,blankImage,trampoline,,,,,,,,,,,,0,40,40,245,,,,,,,,,,,,,,,,,,,,,,,,,,,,,,,,,,,360.91258950000156,361.91361620000134,361.89698470000076,362.39739160000136,362.39739160000136,None,364.16652840000097,None,right,1.0831707999986975,364.16652840000097,None,365.2667741000005,None,right,0.49445149999701243,365.2667741000005,None,,,,,,,,,,,,,,,,,,,,,,,PPT58,001,2022-07-15_17h02.04.569,ABstudy,2022.1.4,59.938922238059725,
AB,Lag1_T1P_T2P,1,P,P,7,8,6,3,11,compass,Did you see the compass?,0.12,0.016,JPG\,brick,plate01b,pen04b,toaster01,screwdriver04b,candle01,magneticcompass,stapler03a,pig,ring01,orange,blankImage,blankImage,blankImage,blankImage,blankImage,blankImage,magneticcompass,,,,,,,,,,,,0,41,41,66,,,,,,,,,,,,,,,,,,,,,,,,,,,,,,,,,,,365.8179316000005,366.8185779000014,366.80124290000094,367.3670165000003,367.3670165000003,None,368.7657401000015,None,right,1.8598559999991267,368.7657401000015,None,370.6557313000012,None,right,0.4014889999980369,370.6557313000012,None,,,,,,,,,,,,,,,,,,,,,,,PPT58,001,2022-07-15_17h02.04.569,ABstudy,2022.1.4,59.938922238059725,
AB,Lag1_T1P_T2P,1,P,P,6,7,5,3,10,drum sticks,Did you see the drum sticks?,0.12,0.016,JPG\,pineapple01a,tennisball01b,computerkeyboard02,feather03a,belt02a,drumstick,stapler03b,blueberry01,medal02b,alligator,blankImage,blankImage,blankImage,blankImage,blankImage,blankImage,blankImage,drumstick,,,,,,,,,,,,0,42,42,61,,,,,,,,,,,,,,,,,,,,,,,,,,,,,,,,,,,371.08962840000095,372.0902990000013,372.0734854000002,372.63491740000063,372.63491740000063,None,373.8416079000017,None,left,1.6083661999982724,373.8416079000017,None,375.4769601000007,None,right,0.3886561999988771,375.4769601000007,None,,,,,,,,,,,,,,,,,,,,,,,PPT58,001,2022-07-15_17h02.04.569,ABstudy,2022.1.4,59.938922238059725,
AB,Lag5_T1P_T2P,5,P,P,8,13,7,5,18,pipe,Did you see the pipe?,0.12,0.016,JPG\,scissors01,ashtray01,garlic01a,medal02b,cigarette,candle08b,leaf02a,smokingpipe,cucumber,rice,toiletpaper01a,greenolive,stapler01,cellphone,tableknife02,spoon01,blankImage,smokingpipe,,,,,,,,,,,,0,43,43,138,,,,,,,,,,,,,,,,,,,,,,,,,,,,,,,,,,,375.8940218000007,376.89521270000114,376.8785174000004,377.43506590000106,377.43506590000106,None,379.40898170000037,None,left,0.6008964999982709,379.40898170000037,None,380.0315483000013,None,left,0.27458369999840215,380.0315483000013,None,,,,,,,,,,,,,,,,,,,,,,,PPT58,001,2022-07-15_17h02.04.569,ABstudy,2022.1.4,59.938922238059725,
AB,Lag5_T1A_T2A,5,A,A,7,12,6,4,16,boxing glove,Did you see the boxing glove?,0.12,0.016,JPG\,cherry01,cymbal,envelope03a,foosballtable,shirt02,cellphone,sewingmachine01a,candle08b,battery02b,apple07,pencil01,screwdriver04b,strawberry,sunglasses04,feather03a,rice,blankImage,lollipop04,,,,,,,,,,,,0,44,44,296,,,,,,,,,,,,,,,,,,,,,,,,,,,,,,,,,,,380.33212900000035,381.333017500001,381.31638490000114,381.8733544000006,381.8733544000006,None,383.8299216000014,None,right,1.052024499998879,383.8299216000014,None,384.9031293000007,None,right,0.2985774999979185,384.9031293000007,None,,,,,,,,,,,,,,,,,,,,,,,PPT58,001,2022-07-15_17h02.04.569,ABstudy,2022.1.4,59.938922238059725,
AB,Lag1_T1P_T2P,1,P,P,5,6,4,5,11,Guitar case,Did you see the Guitar case?,0.12,0.016,JPG\,broccoli01a,scissors01,toothbrush03b,foosballtable,guitarcase,stapler05,hammer01,toiletpaper01a,cd,garlic01a,carrot01,blankImage,blankImage,blankImage,blankImage,blankImage,blankImage,guitarcase,,,,,,,,,,,,0,45,45,14,,,,,,,,,,,,,,,,,,,,,,,,,,,,,,,,,,,385.2225255000012,386.2376337000005,386.2044883000017,386.76506250000057,386.76506250000057,None,388.15436370000134,None,left,1.2875340999980835,388.15436370000134,None,389.4743653000005,None,right,1.159128299997974,389.4743653000005,None,,,,,,,,,,,,,,,,,,,,,,,PPT58,001,2022-07-15_17h02.04.569,ABstudy,2022.1.4,59.938922238059725,
AB,Lag5_T1P_T2P,5,P,P,5,10,4,3,13,lollipop,Did you see the lollipop?,0.12,0.016,JPG\,brownsugar,candle01,match,printer02,lollipop04,balloon01b,belt02a,potato02b,computerkeyboard02,stapler03a,rice,mushroom01,pencil01,blankImage,blankImage,blankImage,blankImage,lollipop04,,,,,,,,,,,,0,46,46,112,,,,,,,,,,,,,,,,,,,,,,,,,,,,,,,,,,,390.65927640000154,391.6598984000011,391.64325870000175,392.1435401000017,392.1435401000017,None,393.7779864000004,None,left,0.7355444999975589,393.7779864000004,None,394.5460453000014,None,left,0.31136809999770776,394.5460453000014,None,,,,,,,,,,,,,,,,,,,,,,,PPT58,001,2022-07-15_17h02.04.569,ABstudy,2022.1.4,59.938922238059725,
AB,Lag1_T1P_T2A,1,P,A,5,6,4,5,11,Sailboat,Did you see the Sailboat?,0.12,0.016,JPG\,chain01,speaker04,avocado01,watermelon01,sailboat,comb02a,lamp04a,fork03c,toaster01,slipper03b,scissors01,blankImage,blankImage,blankImage,blankImage,blankImage,blankImage,sailboat,,,,,,,,,,,,0,47,47,193,,,,,,,,,,,,,,,,,,,,,,,,,,,,,,,,,,,394.8811074000005,395.8807252000006,395.8641565000016,396.42209560000083,396.42209560000083,None,397.80283260000033,None,left,0.9824347999983729,397.80283260000033,None,398.8167678000009,None,left,0.2645280999986426,398.8167678000009,None,,,,,,,,,,,,,,,,,,,,,,,PPT58,001,2022-07-15_17h02.04.569,ABstudy,2022.1.4,59.938922238059725,
AB,Lag1_T1A_T2P,1,A,P,5,6,4,3,9,Spider,Did you see the Spider?,0.12,0.016,JPG\,pen04b,speaker04,lighter01,cherry01,8ball,stapler04b,sock01a,toothbrush03b,broom01,blankImage,blankImage,blankImage,blankImage,blankImage,blankImage,blankImage,blankImage,bridge,,,,,,,,,,,,0,48,48,250,,,,,,,,,,,,,,,,,,,,,,,,,,,,,,,,,,,399.10057530000086,400.1018118000011,400.08467330000167,400.63744990000123,400.63744990000123,None,401.77330690000053,None,right,1.484528399998453,401.77330690000053,None,403.2880959000013,None,left,0.3054660999987391,403.2880959000013,None,,,,,,,,,,,,,,,,,,,,,,,PPT58,001,2022-07-15_17h02.04.569,ABstudy,2022.1.4,59.938922238059725,
AB,Lag1_T1P_T2A,1,P,A,7,8,6,4,12,gate,Did you see the gate?,0.12,0.016,JPG\,pen04b,speaker04,lighter01,cherry01,pintofbeer,onion,entrancegate,toothbrush03b,broom01,sewingmachine01a,book01b,iron01b,blankImage,blankImage,blankImage,blankImage,blankImage,entrancegate,,,,,,,,,,,,0,49,49,187,,,,,,,,,,,,,,,,,,,,,,,,,,,,,,,,,,,403.62173630000143,404.62275000000045,404.60600160000104,405.1615676000001,405.1615676000001,None,406.6831335000006,None,left,1.182608799997979,406.6831335000006,None,407.8927070000009,None,right,0.32476149999820336,407.8927070000009,None,,,,,,,,,,,,,,,,,,,,,,,PPT58,001,2022-07-15_17h02.04.569,ABstudy,2022.1.4,59.938922238059725,
AB,Lag1_T1P_T2P,1,P,P,8,9,7,3,12,bridge,Did you see the bridge?,0.12,0.016,JPG\,speaker04,sewingmachine01a,eraser,violin,globe,belt02a,sunglasses04,bridge,stapler01,greenolive,alligator,pear01,blankImage,blankImage,blankImage,blankImage,blankImage,bridge,,,,,,,,,,,,0,50,50,78,,,,,,,,,,,,,,,,,,,,,,,,,,,,,,,,,,,408.24319190000097,409.2439344000013,409.2273980000009,409.79646950000097,409.79646950000097,None,411.2929178000013,None,right,1.7087831999979244,411.2929178000013,None,413.0311963000004,None,left,0.25877089999812597,413.0311963000004,None,,,,,,,,,,,,,,,,,,,,,,,PPT58,001,2022-07-15_17h02.04.569,ABstudy,2022.1.4,59.938922238059725,
AB,Lag1_T1P_T2A,1,P,A,5,6,4,4,10,flower,Did you see the flower?,0.12,0.016,JPG\,broom01,globe,cellphone,tableknife02,daffodil,scissors01,ring01,alligator,rice,toaster01,blankImage,blankImage,blankImage,blankImage,blankImage,blankImage,blankImage,daffodil,,,,,,,,,,,,0,51,51,184,,,,,,,,,,,,,,,,,,,,,,,,,,,,,,,,,,,413.31485370000155,414.31582100000014,414.29909540000153,414.85329750000164,414.85329750000164,None,416.1716625000008,None,left,1.149852499998815,416.1716625000008,None,417.3525228000017,None,right,0.27236509999784175,417.3525228000017,None,,,,,,,,,,,,,,,,,,,,,,,PPT58,001,2022-07-15_17h02.04.569,ABstudy,2022.1.4,59.938922238059725,
AB,Lag1_T1A_T2A,1,A,A,8,9,7,4,13,Recycling bin,Did you see the Recycling bin?,0.12,0.016,JPG\,brick,plate01b,pen04b,toaster01,screwdriver04b,candle01,envelope03a,feather03a,pig,ring01,orange,clock01a,lighter01,blankImage,blankImage,blankImage,blankImage,bumpercar,,,,,,,,,,,,0,52,52,292,,,,,,,,,,,,,,,,,,,,,,,,,,,,,,,,,,,417.6527061000015,418.6533108000003,418.63684680000006,419.2028360000004,419.2028360000004,None,420.8374569000007,None,right,1.507598499998494,420.8374569000007,None,422.3738880000001,None,right,0.25165669999842066,422.3738880000001,None,,,,,,,,,,,,,,,,,,,,,,,PPT58,001,2022-07-15_17h02.04.569,ABstudy,2022.1.4,59.938922238059725,
AB,Lag5_T1A_T2P,5,A,P,7,12,6,4,16,hand,Did you see the hand?,0.12,0.016,JPG\,celery,tennisball01b,calculator01,pear01,screw02,orange,button01,cellphone,onion,apple07,iron01b,stapler05,banana01,paintbrush01,dandelion,toothbrush03b,blankImage,bull,,,,,,,,,,,,0,53,53,281,,,,,,,,,,,,,,,,,,,,,,,,,,,,,,,,,,,422.65753290000066,423.6584221000012,423.6419377000002,424.20260970000163,424.20260970000163,None,426.1561221000011,None,right,1.2296509999978298,426.1561221000011,None,427.4122212000002,None,left,0.3100468999982695,427.4122212000002,None,,,,,,,,,,,,,,,,,,,,,,,PPT58,001,2022-07-15_17h02.04.569,ABstudy,2022.1.4,59.938922238059725,
AB,Lag1_T1P_T2P,1,P,P,8,9,7,5,14,Waterfall,Did you see the Waterfall?,0.12,0.016,JPG\,pizza,watch02a,greenolive,cucumber,match,violin,scissors01,waterfall,stapler03a,cherry01,ring01,cigarette,microscope,cellphone,blankImage,blankImage,blankImage,waterfall,,,,,,,,,,,,0,54,54,52,,,,,,,,,,,,,,,,,,,,,,,,,,,,,,,,,,,427.74598610000066,428.74666030000117,428.73012930000004,429.2980467000016,429.2980467000016,None,431.03587289999996,None,left,1.2534207999979117,431.03587289999996,None,432.31704810000156,None,left,0.4044336999995721,432.31704810000156,None,,,,,,,,,,,,,,,,,,,,,,,PPT58,001,2022-07-15_17h02.04.569,ABstudy,2022.1.4,59.938922238059725,
AB,Lag5_T1P_T2A,5,P,A,6,11,5,5,16,hat,Did you see the hat?,0.12,0.016,JPG\,apple07,toiletpaper01a,pizza,dandelion,greenolive,pilgrimhat,microscope,violin,orange,lipstick02a,balloon01b,sandal,lighter01,fan,book01b,sewingmachine01a,blankImage,pilgrimhat,,,,,,,,,,,,0,55,55,206,,,,,,,,,,,,,,,,,,,,,,,,,,,,,,,,,,,432.7506932000015,433.75188790000175,433.7349806000002,434.3045720000009,434.3045720000009,None,436.3856574000001,None,left,1.7120964999976422,436.3856574000001,None,438.1228503000002,None,right,0.3104842999982793,438.1228503000002,None,,,,,,,,,,,,,,,,,,,,,,,PPT58,001,2022-07-15_17h02.04.569,ABstudy,2022.1.4,59.938922238059725,
AB,Lag1_T1P_T2A,1,P,A,8,9,7,4,13,boat,Did you see the boat?,0.12,0.016,JPG\,fork03c,dandelion,dice05a,belt02a,onion,watch02a,key01,boat,eraser,medal02b,greenolive,shirt02,candle08b,blankImage,blankImage,blankImage,blankImage,boat,,,,,,,,,,,,0,56,56,199,,,,,,,,,,,,,,,,,,,,,,,,,,,,,,,,,,,438.4565188000015,439.45754660000057,439.44077880000077,439.9911925000015,439.9911925000015,None,441.62504700000136,None,right,1.1122661999979755,441.62504700000136,None,442.76069870000174,None,right,0.4323549999971874,442.76069870000174,None,,,,,,,,,,,,,,,,,,,,,,,PPT58,001,2022-07-15_17h02.04.569,ABstudy,2022.1.4,59.938922238059725,
AB,Lag5_T1P_T2P,5,P,P,5,10,4,3,13,rose,Did you see the rose?,0.12,0.016,JPG\,lipstick02a,cucumber,candle08b,printer02,rose,violin,paintbrush01,lighter01,belt02a,stapler03b,thermometer02b,microscope,cigarette,blankImage,blankImage,blankImage,blankImage,rose,,,,,,,,,,,,0,57,57,158,,,,,,,,,,,,,,,,,,,,,,,,,,,,,,,,,,,443.2111724000006,444.2120911000002,444.1955015000003,444.7488058000017,444.7488058000017,None,446.37196810000023,None,left,1.1731073999981163,446.37196810000023,None,447.56550380000044,None,right,0.2594106999986252,447.56550380000044,None,,,,,,,,,,,,,,,,,,,,,,,PPT58,001,2022-07-15_17h02.04.569,ABstudy,2022.1.4,59.938922238059725,
AB,Lag1_T1P_T2P,1,P,P,6,7,5,4,11,American football,Did you see the American football?,0.12,0.016,JPG\,toaster01,garlic01a,faucet,fan,comb02a,football,stapler06,watch02a,onion,blueberry01,toiletpaper01a,blankImage,blankImage,blankImage,blankImage,blankImage,blankImage,football,,,,,,,,,,,,0,58,58,12,,,,,,,,,,,,,,,,,,,,,,,,,,,,,,,,,,,447.84927250000146,448.8501791000017,448.83355850000044,449.39803910000046,449.39803910000046,None,450.80977450000137,None,left,1.2949712999979965,450.80977450000137,None,452.1367596,None,right,0.2725341999994271,452.1367596,None,,,,,,,,,,,,,,,,,,,,,,,PPT58,001,2022-07-15_17h02.04.569,ABstudy,2022.1.4,59.938922238059725,
AB,Lag5_T1P_T2P,5,P,P,7,12,6,3,15,marble,Did you see the marble?,0.12,0.016,JPG\,cigarette,ashtray01,envelope03a,sandal,chain01,cucumber,marble,tomato01,dandelion,candle01,lemon02,stapler03b,potato02b,cymbal,clock01a,blankImage,blankImage,marble,,,,,,,,,,,,0,59,59,146,,,,,,,,,,,,,,,,,,,,,,,,,,,,,,,,,,,452.4370794000006,453.4381065000016,453.4211971000004,453.9742971000014,453.9742971000014,None,455.8493257000009,None,right,1.3118144999989454,455.8493257000009,None,457.1918258000005,None,left,0.5856349999976374,457.1918258000005,None,,,,,,,,,,,,,,,,,,,,,,,PPT58,001,2022-07-15_17h02.04.569,ABstudy,2022.1.4,59.938922238059725,
AB,Lag5_T1P_T2A,5,P,A,8,13,7,4,17,knife,Did you see the knife?,0.12,0.016,JPG\,lighter01,hammer01,spoon01,chain01,cymbal,sponge01,lipstick02a,knife03,pig,watermelon01,cauliflower01,lemon02,broccoli01a,tableknife02,tennisball01b,toothbrush03b,blankImage,knife03,,,,,,,,,,,,0,60,60,214,,,,,,,,,,,,,,,,,,,,,,,,,,,,,,,,,,,457.8089944000003,458.8098740000005,458.79331960000127,459.35118970000076,459.35118970000076,None,461.39793530000134,None,left,2.187080199997581,461.39793530000134,None,463.61487840000154,None,right,0.6908533999994688,463.61487840000154,None,,,,,,,,,,,,,,,,,,,,,,,PPT58,001,2022-07-15_17h02.04.569,ABstudy,2022.1.4,59.938922238059725,
AB,Lag1_T1P_T2A,1,P,A,6,7,5,4,11,bird,Did you see the bird?,0.12,0.016,JPG\,foosballtable,candy,envelope03a,microscope,pencil01,cedarwaxwing,scissors01,watermelon01,grape01,dandelion,pineapple01a,blankImage,blankImage,blankImage,blankImage,blankImage,blankImage,cedarwaxwing,,,,,,,,,,,,0,61,61,182,,,,,,,,,,,,,,,,,,,,,,,,,,,,,,,,,,,464.3323108000004,465.33326490000036,465.31651950000014,465.81685319999997,465.81685319999997,None,467.253326,None,left,0.9876214999985677,467.253326,None,468.26944080000067,None,right,0.2679742999971495,468.26944080000067,None,,,,,,,,,,,,,,,,,,,,,,,PPT58,001,2022-07-15_17h02.04.569,ABstudy,2022.1.4,59.938922238059725,
AB,Lag5_T1A_T2A,5,A,A,7,12,6,3,15,Christmas lights,Did you see the Christmas lights?,0.12,0.016,JPG\,toiletpaper01a,mushroom01,medal02b,sandal,rice,cd,feather03a,pizza,candle08b,garlic01a,toaster01,belt02a,cigarette,violin,lemon02,blankImage,blankImage,rockbass,,,,,,,,,,,,0,62,62,299,,,,,,,,,,,,,,,,,,,,,,,,,,,,,,,,,,,468.5698942000017,469.5708016000008,469.5541522000003,470.11859450000156,470.11859450000156,None,472.0247921000009,None,right,1.4961073999984364,472.0247921000009,None,473.5412371000002,None,right,0.8201451999975689,473.5412371000002,None,,,,,,,,,,,,,,,,,,,,,,,PPT58,001,2022-07-15_17h02.04.569,ABstudy,2022.1.4,59.938922238059725,
AB,Lag1_T1P_T2P,1,P,P,5,6,4,5,11,Basketball,Did you see the Basketball?,0.12,0.016,JPG\,pencil01,microscope,banana01,computerkeyboard02,basketball01,stapler04b,scissors01,sock01a,book01b,onion,dice05a,blankImage,blankImage,blankImage,blankImage,blankImage,blankImage,basketball01,,,,,,,,,,,,0,63,63,34,,,,,,,,,,,,,,,,,,,,,,,,,,,,,,,,,,,474.39242900000136,475.3929637000001,475.37655090000044,475.9315308000005,475.9315308000005,None,477.3115873000006,None,left,1.0097816999987117,477.3115873000006,None,478.34591210000144,None,right,0.2794384999979229,478.34591210000144,None,,,,,,,,,,,,,,,,,,,,,,,PPT58,001,2022-07-15_17h02.04.569,ABstudy,2022.1.4,59.938922238059725,
AB,Lag1_T1P_T2P,1,P,P,8,9,7,3,12,Fire hydrant,Did you see the Fire hydrant?,0.12,0.016,JPG\,foosballtable,candy,envelope03a,microscope,pencil01,leaf02a,scissors01,firehydrant,stapler01,dandelion,pineapple01a,hammer01,blankImage,blankImage,blankImage,blankImage,blankImage,firehydrant,,,,,,,,,,,,0,64,64,83,,,,,,,,,,,,,,,,,,,,,,,,,,,,,,,,,,,478.6488033000005,479.6640623000003,479.63078620000124,480.13116790000095,480.13116790000095,None,481.6786344000011,None,left,3.067265599996972,481.6786344000011,None,484.76925850000043,None,right,0.360131099998398,484.76925850000043,None,,,,,,,,,,,,,,,,,,,,,,,PPT58,001,2022-07-15_17h02.04.569,ABstudy,2022.1.4,59.938922238059725,
AB,Lag5_T1A_T2P,5,A,P,5,10,4,5,15,shower,Did you see the shower?,0.12,0.016,JPG\,sewingmachine01a,thermometer02b,sponge01,eraser,broccoli01a,fork03c,pizza,violin,belt02a,stapler04b,pineapple01a,tennisball01b,dandelion,cauliflower01,lemon02,blankImage,blankImage,redfox,,,,,,,,,,,,0,65,65,271,,,,,,,,,,,,,,,,,,,,,,,,,,,,,,,,,,,485.1530941000001,486.1540552000006,486.1371771000013,486.70451780000076,486.70451780000076,None,488.54107900000054,None,right,2.444179799997073,488.54107900000054,None,491.00890320000144,None,left,0.3127013999983319,491.00890320000144,None,,,,,,,,,,,,,,,,,,,,,,,PPT58,001,2022-07-15_17h02.04.569,ABstudy,2022.1.4,59.938922238059725,
AB,Lag1_T1P_T2P,1,P,P,8,9,7,3,12,Wheelchair,Did you see the Wheelchair?,0.12,0.016,JPG\,cigarette,pig,banana01,strawberry,clock01a,plate01b,spoon01,wheelchair,stapler03b,pineapple01a,chain01,paintbrush01,blankImage,blankImage,blankImage,blankImage,blankImage,wheelchair,,,,,,,,,,,,0,66,66,27,,,,,,,,,,,,,,,,,,,,,,,,,,,,,,,,,,,491.3426190000009,492.34350070000073,492.3266585000001,492.8800736000012,492.8800736000012,None,494.3798540000007,None,left,1.0849921999979415,494.3798540000007,None,495.4964353000014,None,right,0.29713129999800003,495.4964353000014,None,,,,,,,,,,,,,,,,,,,,,,,PPT58,001,2022-07-15_17h02.04.569,ABstudy,2022.1.4,59.938922238059725,
AB,Lag5_T1P_T2P,5,P,P,5,10,4,5,15,funnel,Did you see the funnel?,0.12,0.016,JPG\,pineapple01a,tennisball01b,computerkeyboard02,feather03a,funnel,acorn,violin,blueberry01,medal02b,stapler01,greenolive,screwdriver04b,potato02b,fork03c,cymbal,blankImage,blankImage,funnel,,,,,,,,,,,,0,67,67,109,,,,,,,,,,,,,,,,,,,,,,,,,,,,,,,,,,,495.81372400000146,496.81437220000043,496.7978772000006,497.3585623000017,497.3585623000017,None,499.1170802000015,None,right,1.3805411999983335,499.1170802000015,None,500.5182667000008,None,right,0.3623723999971844,500.5182667000008,None,,,,,,,,,,,,,,,,,,,,,,,PPT58,001,2022-07-15_17h02.04.569,ABstudy,2022.1.4,59.938922238059725,
AB,Lag5_T1A_T2A,5,A,A,7,12,6,4,16,Eye,Did you see the Eye?,0.12,0.016,JPG\,rice,watermelon01,tableknife02,scarf,computerkeyboard02,cauliflower01,battery02b,binoculars01b,book01b,sandal,sponge01,microscope,tomato01,fork03c,thermometer02b,apple07,blankImage,scooter,,,,,,,,,,,,0,68,68,302,,,,,,,,,,,,,,,,,,,,,,,,,,,,,,,,,,,500.9328006000014,501.93638440000177,501.91962710000007,502.48102270000163,502.48102270000163,None,504.4650652,None,right,1.1676126999991538,504.4650652,None,505.65673790000073,None,right,0.3123113999972702,505.65673790000073,None,,,,,,,,,,,,,,,,,,,,,,,PPT58,001,2022-07-15_17h02.04.569,ABstudy,2022.1.4,59.938922238059725,
AB,Lag5_T1P_T2A,5,P,A,7,12,6,3,15,helmet,Did you see the helmet?,0.12,0.016,JPG\,fork03c,belt02a,grape01,computerkeyboard02,lemon02,printer02,skihelmet01,toiletpaper01a,toaster01,lipstick02a,book01b,blueberry01,spoon01,apple07,avocado01,blankImage,blankImage,skihelmet01,,,,,,,,,,,,0,69,69,225,,,,,,,,,,,,,,,,,,,,,,,,,,,,,,,,,,,505.99035170000025,506.99124550000124,506.97462710000036,507.5254263000006,507.5254263000006,None,509.4926340000002,None,left,1.012147499999628,509.4926340000002,None,510.5280012000003,None,right,0.25686729999870295,510.5280012000003,None,,,,,,,,,,,,,,,,,,,,,,,PPT58,001,2022-07-15_17h02.04.569,ABstudy,2022.1.4,59.938922238059725,
AB,Lag5_T1P_T2A,5,P,A,5,10,4,4,14,Ship in a bottle,Did you see the Ship in a bottle?,0.12,0.016,JPG\,sewingmachine01a,thermometer02b,sponge01,eraser,shipinabottle,fork03c,pizza,violin,belt02a,medal02b,pineapple01a,tennisball01b,dandelion,cauliflower01,blankImage,blankImage,blankImage,shipinabottle,,,,,,,,,,,,0,70,70,208,,,,,,,,,,,,,,,,,,,,,,,,,,,,,,,,,,,510.81189280000035,511.8128908000017,511.79602610000074,512.3634888000015,512.3634888000015,None,514.0975395000005,None,right,1.1918840999987879,514.0975395000005,None,515.3164182,None,right,0.42872129999705066,515.3164182,None,,,,,,,,,,,,,,,,,,,,,,,PPT58,001,2022-07-15_17h02.04.569,ABstudy,2022.1.4,59.938922238059725,
AB,Lag1_T1P_T2P,1,P,P,5,6,4,3,9,elephant,Did you see the elephant?,0.12,0.016,JPG\,celery,brownsugar,key01,sunglasses04,arugula,stapler04b,dice05a,tennisball01b,scarf,blankImage,blankImage,blankImage,blankImage,blankImage,blankImage,blankImage,blankImage,arugula,,,,,,,,,,,,0,71,71,54,,,,,,,,,,,,,,,,,,,,,,,,,,,,,,,,,,,515.7669006000015,516.7677805000003,516.7511245000005,517.3083915000007,517.3083915000007,None,518.4870595000011,None,right,1.6254851999983657,518.4870595000011,None,520.1377498000002,None,left,0.3109707999974489,520.1377498000002,None,,,,,,,,,,,,,,,,,,,,,,,PPT58,001,2022-07-15_17h02.04.569,ABstudy,2022.1.4,59.938922238059725,
AB,Lag1_T1P_T2P,1,P,P,8,9,7,3,12,cactus,Did you see the cactus?,0.12,0.016,JPG\,tennisball01b,paintbrush01,medal02b,apple07,speaker04,iron01b,avocado01,cactus,stapler03b,toiletpaper01a,watermelon01,candle01,blankImage,blankImage,blankImage,blankImage,blankImage,cactus,,,,,,,,,,,,0,72,72,58,,,,,,,,,,,,,,,,,,,,,,,,,,,,,,,,,,,520.4717547,521.4724059,521.4557668000016,522.0231707000003,522.0231707000003,None,523.527158500001,None,left,1.1701929999981076,523.527158500001,None,524.7256959000006,None,right,0.2668435999985377,524.7256959000006,None,,,,,,,,,,,,,,,,,,,,,,,PPT58,001,2022-07-15_17h02.04.569,ABstudy,2022.1.4,59.938922238059725,
AB,Lag5_T1A_T2P,5,A,P,6,11,5,4,15,fish,Did you see the fish?,0.12,0.016,JPG\,pingpongpaddle01c,banana01,scissors01,pig,shirt02,leaf02a,pear01,sponge01,fork03c,tableknife02,stapler03a,match,toothbrush03b,birthdaycandle,candle01,blankImage,blankImage,lighthouse,,,,,,,,,,,,0,73,73,265,,,,,,,,,,,,,,,,,,,,,,,,,,,,,,,,,,,525.0093817000015,526.0104022000014,525.9937436,526.5543042000008,526.5543042000008,None,528.3837264000013,None,right,1.6576432999991084,528.3837264000013,None,530.0643710000004,None,right,0.3370099999992817,530.0643710000004,None,,,,,,,,,,,,,,,,,,,,,,,PPT58,001,2022-07-15_17h02.04.569,ABstudy,2022.1.4,59.938922238059725,
AB,Lag5_T1P_T2P,5,P,P,8,13,7,4,17,surf board,Did you see the surf board?,0.12,0.016,JPG\,candy,brownsugar,dice05a,cd,sock01a,blueberry01,button01,surfboard,feather03a,grape01,dandelion,scissors01,stapler03b,candle08b,book01b,globe,blankImage,surfboard,,,,,,,,,,,,0,74,74,142,,,,,,,,,,,,,,,,,,,,,,,,,,,,,,,,,,,530.4312031000009,531.4323893000001,531.4155004000004,531.9720582000009,531.9720582000009,None,533.9477283000015,None,left,0.7090287999981228,533.9477283000015,None,534.6857975000003,None,left,0.2598041999972338,534.6857975000003,None,,,,,,,,,,,,,,,,,,,,,,,PPT58,001,2022-07-15_17h02.04.569,ABstudy,2022.1.4,59.938922238059725,
AB,Lag5_T1P_T2P,5,P,P,8,13,7,4,17,lamp,Did you see the lamp?,0.12,0.016,JPG\,globe,broccoli01a,binoculars01b,iron01b,avocado01,dandelion,pineapple01a,floorlamp,fan,pizza,celery,blueberry01,stapler01,dice05a,watermelon01,candy,blankImage,floorlamp,,,,,,,,,,,,0,75,75,99,,,,,,,,,,,,,,,,,,,,,,,,,,,,,,,,,,,534.9981403000002,536.0029874000011,535.9863689000013,536.5594702000017,536.5594702000017,None,538.5098925000002,None,left,1.2993681999996625,538.5098925000002,None,539.8405728000016,None,right,0.4808290999990277,539.8405728000016,None,,,,,,,,,,,,,,,,,,,,,,,PPT58,001,2022-07-15_17h02.04.569,ABstudy,2022.1.4,59.938922238059725,
AB,Lag5_T1P_T2P,5,P,P,8,13,7,5,18,skis,Did you see the skis?,0.12,0.016,JPG\,tennisball01b,paintbrush01,medal02b,apple07,speaker04,iron01b,avocado01,downhillski,belt02a,toiletpaper01a,watermelon01,candle01,stapler01,cymbal,ashtray01,screwdriver04b,blankImage,downhillski,,,,,,,,,,,,0,76,76,106,,,,,,,,,,,,,,,,,,,,,,,,,,,,,,,,,,,540.3413373000003,541.3420111000014,541.3255241000006,541.8931825,541.8931825,None,543.8845045000016,None,right,1.4045621999975992,543.8845045000016,None,545.3128321000004,None,left,0.4084581999995862,545.3128321000004,None,,,,,,,,,,,,,,,,,,,,,,,PPT58,001,2022-07-15_17h02.04.569,ABstudy,2022.1.4,59.938922238059725,
AB,Lag1_T1P_T2A,1,P,A,5,6,4,4,10,paper airplane,Did you see the paper airplane?,0.12,0.016,JPG\,thermometer02b,avocado01,scissors01,tennisball01b,paperairplane,banana01,strawberry,cigarette,potato02b,pineapple01a,blankImage,blankImage,blankImage,blankImage,blankImage,blankImage,blankImage,paperairplane,,,,,,,,,,,,0,77,77,191,,,,,,,,,,,,,,,,,,,,,,,,,,,,,,,,,,,545.7474380000003,546.747492800001,546.7310196000017,547.2884484000006,547.2884484000006,None,548.547023000001,None,left,1.1195008999984566,548.547023000001,None,549.6839812000017,None,right,0.5325443999990966,549.6839812000017,None,,,,,,,,,,,,,,,,,,,,,,,PPT58,001,2022-07-15_17h02.04.569,ABstudy,2022.1.4,59.938922238059725,
AB,Lag1_T1A_T2P,1,A,P,6,7,5,5,12,Treadmill,Did you see the Treadmill?,0.12,0.016,JPG\,pencil01,broccoli01a,button01,sponge01,watermelon01,lipstick02a,stapler04b,fan,lighter01,sock01a,spoon01,blueberry01,blankImage,blankImage,blankImage,blankImage,blankImage,magneticcompass,,,,,,,,,,,,0,78,78,238,,,,,,,,,,,,,,,,,,,,,,,,,,,,,,,,,,,550.2344474000001,551.2354564000016,551.2184928000006,551.7716053000004,551.7716053000004,None,553.3098404000011,None,right,1.1952945999983058,553.3098404000011,None,554.5220809000002,None,left,0.38333809999676305,554.5220809000002,None,,,,,,,,,,,,,,,,,,,,,,,PPT58,001,2022-07-15_17h02.04.569,ABstudy,2022.1.4,59.938922238059725,
AB,Lag5_T1P_T2P,5,P,P,6,11,5,5,16,Car,Did you see the Car?,0.12,0.016,JPG\,leaf02a,apple07,cd,pineapple01a,envelope03a,car,pig,canoftennisballs,rice,feather03a,stapler03a,balloon01b,avocado01,calculator01,watermelon01,teabag,blankImage,car,,,,,,,,,,,,0,79,79,127,,,,,,,,,,,,,,,,,,,,,,,,,,,,,,,,,,,554.9223718000012,555.9232460000003,555.9066402000008,556.4649033000005,556.4649033000005,None,558.4416984000018,None,left,0.9832595999978366,558.4416984000018,None,559.4437317000011,None,left,0.2607871999989584,559.4437317000011,None,,,,,,,,,,,,,,,,,,,,,,,PPT58,001,2022-07-15_17h02.04.569,ABstudy,2022.1.4,59.938922238059725,
AB,Lag1_T1P_T2P,1,P,P,5,6,4,3,9,kangaroo,Did you see the kangaroo?,0.12,0.016,JPG\,candle01,shirt02,brick,orange,kangaroo,stapler03a,pizza,thermometer02b,book01b,blankImage,blankImage,blankImage,blankImage,blankImage,blankImage,blankImage,blankImage,kangaroo,,,,,,,,,,,,0,80,80,16,,,,,,,,,,,,,,,,,,,,,,,,,,,,,,,,,,,559.7273728,560.7281095000017,560.7113727000014,561.2650264000004,561.2650264000004,None,562.4334382000015,None,left,1.023912399998153,562.4334382000015,None,563.4808897000003,None,left,0.2649872999991203,563.4808897000003,None,,,,,,,,,,,,,,,,,,,,,,,PPT58,001,2022-07-15_17h02.04.569,ABstudy,2022.1.4,59.938922238059725,
AB,Lag5_T1P_T2A,5,P,A,5,10,4,3,13,Totem Pole,Did you see the Totem Pole?,0.12,0.016,JPG\,canoftennisballs,banana01,scissors01,pig,totempole,leaf02a,pear01,sponge01,fork03c,tableknife02,balloon01b,match,toothbrush03b,blankImage,blankImage,blankImage,blankImage,totempole,,,,,,,,,,,,0,81,81,202,,,,,,,,,,,,,,,,,,,,,,,,,,,,,,,,,,,563.7647626000016,564.7655394000012,564.7488830000002,565.3074394000014,565.3074394000014,None,566.9152440000016,None,left,1.2136673999993945,566.9152440000016,None,568.1521774000012,None,right,0.5843199999981152,568.1521774000012,None,,,,,,,,,,,,,,,,,,,,,,,PPT58,001,2022-07-15_17h02.04.569,ABstudy,2022.1.4,59.938922238059725,
AB,Lag5_T1P_T2A,5,P,A,6,11,5,4,15,Spear,Did you see the Spear?,0.12,0.016,JPG\,belt02a,measuringcup01,spoon01,chain01,greenolive,spear02,computerkeyboard02,onion,fan,strawberry,candle01,broom01,binoculars01b,ashtray01,pingpongpaddle01c,blankImage,blankImage,spear02,,,,,,,,,,,,0,82,82,227,,,,,,,,,,,,,,,,,,,,,,,,,,,,,,,,,,,568.7695294000005,569.7705210000004,569.7538201000007,570.3125613000011,570.3125613000011,None,572.2031576000008,None,left,1.1896704999981011,572.2031576000008,None,573.4239854000007,None,right,0.352598699999362,573.4239854000007,None,,,,,,,,,,,,,,,,,,,,,,,PPT58,001,2022-07-15_17h02.04.569,ABstudy,2022.1.4,59.938922238059725,
AB,Lag5_T1P_T2P,5,P,P,8,13,7,4,17,butterfly,Did you see the butterfly?,0.12,0.016,JPG\,speaker04,sewingmachine01a,eraser,violin,globe,belt02a,sunglasses04,butterfly,cd,greenolive,alligator,pear01,stapler01,screwdriver04b,banana01,cigarette,blankImage,butterfly,,,,,,,,,,,,0,83,83,126,,,,,,,,,,,,,,,,,,,,,,,,,,,,,,,,,,,573.8078638000006,574.8088101000012,574.7922165,575.3570990000007,575.3570990000007,None,577.3733138000007,None,left,0.9155401999978494,577.3733138000007,None,578.3118077000017,None,left,0.265146999998251,578.3118077000017,None,,,,,,,,,,,,,,,,,,,,,,,PPT58,001,2022-07-15_17h02.04.569,ABstudy,2022.1.4,59.938922238059725,
AB,Lag1_T1A_T2P,1,A,P,6,7,5,3,10,curtain,Did you see the curtain?,0.12,0.016,JPG\,carrot01,greenolive,fork03c,chain01,ashtray01,watermelon01,stapler06,printer02,comb02a,toaster01,blankImage,blankImage,blankImage,blankImage,blankImage,blankImage,blankImage,birdhouse,,,,,,,,,,,,0,84,84,249,,,,,,,,,,,,,,,,,,,,,,,,,,,,,,,,,,,578.5959162000017,579.596934000001,579.5803753,580.1395671000009,580.1395671000009,None,581.4036136000013,None,right,1.6930990999971982,581.4036136000013,None,583.1171279000009,None,left,0.3882214999975986,583.1171279000009,None,,,,,,,,,,,,,,,,,,,,,,,PPT58,001,2022-07-15_17h02.04.569,ABstudy,2022.1.4,59.938922238059725,
AB,Lag5_T1P_T2P,5,P,P,8,13,7,3,16,shrimp,Did you see the shrimp?,0.12,0.016,JPG\,globe,belt02a,sponge01,violin,fork03c,tomato01,clock01a,cocktailshrimp02,balloon01b,scarf,teabag,pen04b,stapler03a,brownsugar,speaker04,screwdriver04b,blankImage,cocktailshrimp02,,,,,,,,,,,,0,85,85,169,,,,,,,,,,,,,,,,,,,,,,,,,,,,,,,,,,,583.5343389000009,584.5352489000015,584.5185298000015,585.0895728000014,585.0895728000014,None,587.0601403000001,None,left,1.100530499998058,587.0601403000001,None,588.1887975000009,None,left,0.2604961999986699,588.1887975000009,None,,,,,,,,,,,,,,,,,,,,,,,PPT58,001,2022-07-15_17h02.04.569,ABstudy,2022.1.4,59.938922238059725,
AB,Lag5_T1P_T2P,5,P,P,8,13,7,5,18,bed,Did you see the bed?,0.12,0.016,JPG\,pencil01,broccoli01a,button01,sponge01,watermelon01,lipstick02a,comb02a,bed,lighter01,sock01a,spoon01,blueberry01,stapler04b,onion,grape01,avocado01,blankImage,bed,,,,,,,,,,,,0,86,86,124,,,,,,,,,,,,,,,,,,,,,,,,,,,,,,,,,,,588.472535500001,589.4735502000003,589.4569767000012,590.0084976000016,590.0084976000016,None,592.0401113000007,None,left,0.8569766999989952,592.0401113000007,None,592.9270338000006,None,left,0.23333509999793023,592.9270338000006,None,,,,,,,,,,,,,,,,,,,,,,,PPT58,001,2022-07-15_17h02.04.569,ABstudy,2022.1.4,59.938922238059725,
AB,Lag5_T1P_T2A,5,P,A,8,13,7,3,16,Shelves,Did you see the Shelves?,0.12,0.016,JPG\,pineapple01a,leaf02a,grape01,toiletpaper01a,match,tennisball01b,spoon01,shelves,pig,measuringcup01,ring01,lemon02,dice05a,pizza,potato02b,eraser,blankImage,shelves,,,,,,,,,,,,0,87,87,222,,,,,,,,,,,,,,,,,,,,,,,,,,,,,,,,,,,593.1773371000018,594.1779305,594.1615044000009,594.7229191000006,594.7229191000006,None,596.7093898000003,None,right,1.2670226999998704,596.7093898000003,None,597.9986358000006,None,right,0.5623531999990519,597.9986358000006,None,,,,,,,,,,,,,,,,,,,,,,,PPT58,001,2022-07-15_17h02.04.569,ABstudy,2022.1.4,59.938922238059725,
AB,Lag5_T1A_T2A,5,A,A,6,11,5,5,16,shrimp,Did you see the shrimp?,0.12,0.016,JPG\,speaker04,sewingmachine01a,eraser,violin,globe,belt02a,sunglasses04,cymbal,cd,greenolive,alligator,pear01,watch02a,screwdriver04b,banana01,cigarette,blankImage,rollerblade,,,,,,,,,,,,0,88,88,300,,,,,,,,,,,,,,,,,,,,,,,,,,,,,,,,,,,598.5827653000015,599.583291500001,599.5669077000002,600.1335072000002,600.1335072000002,None,602.0701149000015,None,right,1.258873799997673,602.0701149000015,None,603.3540629000017,None,right,0.2550577999991219,603.3540629000017,None,,,,,,,,,,,,,,,,,,,,,,,PPT58,001,2022-07-15_17h02.04.569,ABstudy,2022.1.4,59.938922238059725,
AB,Lag1_T1P_T2P,1,P,P,8,9,7,4,13,peacock,Did you see the peacock?,0.12,0.016,JPG\,hammer01,sponge01,toaster01,cherry01,feather03a,mushroom01,measuringcup01,peacock,stapler03a,brick,clock04,medal02b,teabag,blankImage,blankImage,blankImage,blankImage,peacock,,,,,,,,,,,,0,89,89,68,,,,,,,,,,,,,,,,,,,,,,,,,,,,,,,,,,,603.6688986000008,604.6720202000015,604.6553010000007,605.2116712000006,605.2116712000006,None,606.8143774,None,left,0.834439399997791,606.8143774,None,607.6749053000003,None,left,0.19798879999871133,607.6749053000003,None,,,,,,,,,,,,,,,,,,,,,,,PPT58,001,2022-07-15_17h02.04.569,ABstudy,2022.1.4,59.938922238059725,
AB,Lag5_T1P_T2P,5,P,P,8,13,7,5,18,spice rack,Did you see the spice rack?,0.12,0.016,JPG\,lamp04a,broccoli01a,alligator,garlic01a,dandelion,brownsugar,avocado01,spicerack,leaf02a,cellphone,medal02b,cd,stapler05,sunglasses04,strawberry,eraser,blankImage,spicerack,,,,,,,,,,,,0,90,90,140,,,,,,,,,,,,,,,,,,,,,,,,,,,,,,,,,,,607.8920707000016,608.8928414000002,608.876094700001,609.4297438000012,609.4297438000012,None,611.4312758000015,None,left,1.2018567999984953,611.4312758000015,None,612.6634336000006,None,right,0.44175089999771444,612.6634336000006,None,,,,,,,,,,,,,,,,,,,,,,,PPT58,001,2022-07-15_17h02.04.569,ABstudy,2022.1.4,59.938922238059725,
AB,Lag5_T1P_T2P,5,P,P,6,11,5,3,14,Poker chips,Did you see the Poker chips?,0.12,0.016,JPG\,iron01b,brick,broccoli01a,balloon01b,tomato01,pokerchips,sandal,teabag,scissors01,pineapple01a,stapler04b,measuringcup01,sock01a,book01b,blankImage,blankImage,blankImage,pokerchips,,,,,,,,,,,,0,91,91,154,,,,,,,,,,,,,,,,,,,,,,,,,,,,,,,,,,,613.1309806000008,614.1314696000009,614.114620100001,614.6724744000003,614.6724744000003,None,616.4626918000013,None,left,0.8182966999993369,616.4626918000013,None,617.3010754000006,None,left,0.31574259999797505,617.3010754000006,None,,,,,,,,,,,,,,,,,,,,,,,PPT58,001,2022-07-15_17h02.04.569,ABstudy,2022.1.4,59.938922238059725,
AB,Lag1_T1P_T2P,1,P,P,6,7,5,3,10,elephant,Did you see the elephant?,0.12,0.016,JPG\,clock01a,grape01,plate01b,key01,screwdriver04b,africanelephant,stapler03b,iron01b,toothbrush03b,comb02a,blankImage,blankImage,blankImage,blankImage,blankImage,blankImage,blankImage,africanelephant,,,,,,,,,,,,0,92,92,31,,,,,,,,,,,,,,,,,,,,,,,,,,,,,,,,,,,617.6725582000017,618.6859894000008,618.669289200001,619.2336948000011,619.2336948000011,None,620.4484452000015,None,left,1.0723440999990999,620.4484452000015,None,621.5387578000009,None,left,0.19787589999759803,621.5387578000009,None,,,,,,,,,,,,,,,,,,,,,,,PPT58,001,2022-07-15_17h02.04.569,ABstudy,2022.1.4,59.938922238059725,
AB,Lag1_T1A_T2P,1,A,P,5,6,4,3,9,microphone,Did you see the microphone?,0.12,0.016,JPG\,hammer01,sponge01,toaster01,cherry01,feather03a,stapler06,measuringcup01,pencil01,tennisball01b,blankImage,blankImage,blankImage,blankImage,blankImage,blankImage,blankImage,blankImage,cactus,,,,,,,,,,,,0,93,93,230,,,,,,,,,,,,,,,,,,,,,,,,,,,,,,,,,,,621.7557207000009,622.7566840000018,622.7399817000005,623.2941357,623.2941357,None,624.5124663000006,None,right,1.128215499998987,624.5124663000006,None,625.6596431000016,None,left,0.4128902999982529,625.6596431000016,None,,,,,,,,,,,,,,,,,,,,,,,PPT58,001,2022-07-15_17h02.04.569,ABstudy,2022.1.4,59.938922238059725,
AB,Lag5_T1P_T2P,5,P,P,6,11,5,3,14,fish,Did you see the fish?,0.12,0.016,JPG\,broom01,globe,cellphone,tableknife02,cauliflower01,holdfast,ring01,alligator,rice,toaster01,stapler03b,grape01,microscope,cucumber,blankImage,blankImage,blankImage,holdfast,,,,,,,,,,,,0,94,94,133,,,,,,,,,,,,,,,,,,,,,,,,,,,,,,,,,,,626.1274044000002,627.1276756000007,627.1110851000012,627.6641898000016,627.6641898000016,None,629.3716067000005,None,left,0.9415594999973109,629.3716067000005,None,630.3308981000009,None,left,0.4538297999988572,630.3308981000009,None,,,,,,,,,,,,,,,,,,,,,,,PPT58,001,2022-07-15_17h02.04.569,ABstudy,2022.1.4,59.938922238059725,
AB,Lag1_T1P_T2P,1,P,P,6,7,5,3,10,windmill,Did you see the windmill?,0.12,0.016,JPG\,pizza,printer02,medal02b,spoon01,grape01,windmill,stapler04b,watermelon01,celery,battery02b,blankImage,blankImage,blankImage,blankImage,blankImage,blankImage,blankImage,windmill,,,,,,,,,,,,0,95,95,75,,,,,,,,,,,,,,,,,,,,,,,,,,,,,,,,,,,630.8147250000002,631.8156491000009,631.7989711000009,632.3690829000006,632.3690829000006,None,633.6721694000007,None,left,1.1287499999998545,633.6721694000007,None,634.8187259000006,None,left,0.26203739999800746,634.8187259000006,None,,,,,,,,,,,,,,,,,,,,,,,PPT58,001,2022-07-15_17h02.04.569,ABstudy,2022.1.4,59.938922238059725,
AB,Lag5_T1P_T2P,5,P,P,7,12,6,4,16,Fireplace,Did you see the Fireplace?,0.12,0.016,JPG\,printer02,leaf02a,cauliflower01,sock01a,brownsugar,paintbrush01,fireplace,orange,belt02a,shirt02,key01,stapler01,cigarette,scissors01,envelope03a,blueberry01,blankImage,fireplace,,,,,,,,,,,,0,96,96,88,,,,,,,,,,,,,,,,,,,,,,,,,,,,,,,,,,,635.1026094000008,636.1033282000008,636.0863933,636.6532148000006,636.6532148000006,None,638.6286074,None,left,0.8763560999977926,638.6286074,None,639.5231368000004,None,left,0.24551119999887305,639.5231368000004,None,,,,,,,,,,,,,,,,,,,,,,,PPT58,001,2022-07-15_17h02.04.569,ABstudy,2022.1.4,59.938922238059725,
AB,Lag5_T1P_T2P,5,P,P,7,12,6,5,17,flamingo,Did you see the flamingo?,0.12,0.016,JPG\,pig,belt02a,rice,screwdriver04b,candle01,apple07,flamingo,pear01,feather03a,match,thermometer02b,stapler06,lemon02,violin,medal02b,pineapple01a,blankImage,flamingo,,,,,,,,,,,,0,97,97,153,,,,,,,,,,,,,,,,,,,,,,,,,,,,,,,,,,,639.7904345000006,640.7911081000002,640.7746419000014,641.2751751000014,641.2751751000014,None,643.2959568000006,None,left,0.9374804999988555,643.2959568000006,None,644.2613933000011,None,left,0.20372609999685665,644.2613933000011,None,,,,,,,,,,,,,,,,,,,,,,,PPT58,001,2022-07-15_17h02.04.569,ABstudy,2022.1.4,59.938922238059725,
AB,Lag5_T1A_T2P,5,A,P,7,12,6,4,16,scooter,Did you see the scooter?,0.12,0.016,JPG\,cigarette,pig,banana01,strawberry,clock01a,plate01b,spoon01,blueberry01,battery02b,pineapple01a,chain01,stapler05,candy,pen04b,teabag,birthdaycandle,blankImage,1nose,,,,,,,,,,,,0,98,98,268,,,,,,,,,,,,,,,,,,,,,,,,,,,,,,,,,,,644.4950433000013,645.4961426000009,645.4791186000002,646.0323040000003,646.0323040000003,None,647.9784213000003,None,right,1.3036834999984421,647.9784213000003,None,649.2998315000004,None,left,0.3489516999998159,649.2998315000004,None,,,,,,,,,,,,,,,,,,,,,,,PPT58,001,2022-07-15_17h02.04.569,ABstudy,2022.1.4,59.938922238059725,
AB,Lag5_T1A_T2P,5,A,P,7,12,6,4,16,flower,Did you see the flower?,0.12,0.016,JPG\,printer02,envelope03a,potato02b,calculator01,tableknife02,cigarette,ashtray01,pig,broom01,greenolive,candle08b,stapler03a,strawberry,candle01,foosballtable,tennisball01b,blankImage,calendar,,,,,,,,,,,,0,99,99,282,,,,,,,,,,,,,,,,,,,,,,,,,,,,,,,,,,,649.6668832000014,650.6678367000004,650.6508946000013,651.2190808000014,651.2190808000014,None,653.2030485000014,None,right,1.1190494999991643,653.2030485000014,None,654.3545814000008,None,left,0.43806579999727546,654.3545814000008,None,,,,,,,,,,,,,,,,,,,,,,,PPT58,001,2022-07-15_17h02.04.569,ABstudy,2022.1.4,59.938922238059725,
AB,Lag1_T1P_T2A,1,P,A,5,6,4,5,11,Electric toothbrush,Did you see the Electric toothbrush?,0.12,0.016,JPG\,carrot01,greenolive,fork03c,chain01,electrictoothbrush01c,watermelon01,tableknife02,printer02,comb02a,toaster01,orange,blankImage,blankImage,blankImage,blankImage,blankImage,blankImage,electrictoothbrush01c,,,,,,,,,,,,0,100,100,186,,,,,,,,,,,,,,,,,,,,,,,,,,,,,,,,,,,654.822742100001,655.8229766000004,655.8061646000006,656.367881600001,656.367881600001,None,657.7945781000017,None,left,1.3342411999983597,657.7945781000017,None,659.159652100001,None,right,0.3931269999975484,659.159652100001,None,,,,,,,,,,,,,,,,,,,,,,,PPT58,001,2022-07-15_17h02.04.569,ABstudy,2022.1.4,59.938922238059725,
AB,Lag1_T1P_T2A,1,P,A,5,6,4,5,11,Moon,Did you see the Moon?,0.12,0.016,JPG\,lamp04a,broccoli01a,alligator,garlic01a,moon,brownsugar,avocado01,ring01,leaf02a,cellphone,medal02b,blankImage,blankImage,blankImage,blankImage,blankImage,blankImage,moon,,,,,,,,,,,,0,101,101,190,,,,,,,,,,,,,,,,,,,,,,,,,,,,,,,,,,,659.5767113000002,660.5777125000004,660.5607352000006,661.1158853000015,661.1158853000015,None,662.4907988000014,None,right,1.125613299998804,662.4907988000014,None,663.6478689000014,None,right,0.2253255999985413,663.6478689000014,None,,,,,,,,,,,,,,,,,,,,,,,PPT58,001,2022-07-15_17h02.04.569,ABstudy,2022.1.4,59.938922238059725,
AB,Lag5_T1A_T2P,5,A,P,5,10,4,3,13,flower,Did you see the flower?,0.12,0.016,JPG\,cucumber,ring01,lipstick02a,microscope,violin,garlic01a,celery,lighter01,cherry01,stapler03a,belt02a,key01,binoculars01b,blankImage,blankImage,blankImage,blankImage,christmastree,,,,,,,,,,,,0,102,102,284,,,,,,,,,,,,,,,,,,,,,,,,,,,,,,,,,,,663.8975681000011,664.8985753000015,664.8818816000003,665.4400907000017,665.4400907000017,None,667.0506161000012,None,right,1.2140498999979172,667.0506161000012,None,668.2854725000016,None,right,0.5387332999980572,668.2854725000016,None,,,,,,,,,,,,,,,,,,,,,,,PPT58,001,2022-07-15_17h02.04.569,ABstudy,2022.1.4,59.938922238059725,
AB,Lag5_T1P_T2P,5,P,P,6,11,5,4,15,boxing glove,Did you see the boxing glove?,0.12,0.016,JPG\,button01,celery,birthdaycandle,apple07,avocado01,boxingglove01,dice05a,teabag,clock01a,feather03a,stapler06,scarf,orange,battery02b,thermometer02b,blankImage,blankImage,boxingglove01,,,,,,,,,,,,0,103,103,165,,,,,,,,,,,,,,,,,,,,,,,,,,,,,,,,,,,668.8527178000004,669.8536028000017,669.836706,670.3981257000014,670.3981257000014,None,672.2369027000004,None,left,0.7961368999986007,672.2369027000004,None,673.0567985000016,None,left,0.21645299999909184,673.0567985000016,None,,,,,,,,,,,,,,,,,,,,,,,PPT58,001,2022-07-15_17h02.04.569,ABstudy,2022.1.4,59.938922238059725,
AB,Lag1_T1P_T2P,1,P,P,6,7,5,5,12,snowman,Did you see the snowman?,0.12,0.016,JPG\,comb02a,watch02a,scissors01,dice05a,tableknife02,snowman,stapler03a,printer02,dandelion,spoon01,ashtray01,battery02b,blankImage,blankImage,blankImage,blankImage,blankImage,snowman,,,,,,,,,,,,0,104,104,4,,,,,,,,,,,,,,,,,,,,,,,,,,,,,,,,,,,673.2903551000018,674.2913018000017,674.2748071000005,674.830020200001,674.830020200001,None,676.3121751000017,None,left,1.1766543999983696,676.3121751000017,None,677.5110305000017,None,right,5.121330799998759,677.5110305000017,None,,,,,,,,,,,,,,,,,,,,,,,PPT58,001,2022-07-15_17h02.04.569,ABstudy,2022.1.4,59.938922238059725,
AB,Lag1_T1A_T2P,1,A,P,5,6,4,3,9,barrel,Did you see the barrel?,0.12,0.016,JPG\,clock01a,cellphone,toaster01,toothbrush03b,cauliflower01,stapler01,comb02a,paintbrush01,scarf,blankImage,blankImage,blankImage,blankImage,blankImage,blankImage,blankImage,blankImage,sheep,,,,,,,,,,,,0,105,105,243,,,,,,,,,,,,,,,,,,,,,,,,,,,,,,,,,,,682.6496288000017,683.6506757000006,683.6336654000006,684.1978686000002,684.1978686000002,None,685.3526649000014,None,right,1.1601773999973375,685.3526649000014,None,686.5369338,None,left,0.29560209999908693,686.5369338,None,,,,,,,,,,,,,,,,,,,,,,,PPT58,001,2022-07-15_17h02.04.569,ABstudy,2022.1.4,59.938922238059725,
AB,Lag5_T1P_T2P,5,P,P,5,10,4,5,15,baseball bat,Did you see the baseball bat?,0.12,0.016,JPG\,pizza,printer02,medal02b,spoon01,baseballbat,lighter01,belt02a,watermelon01,celery,stapler04b,screw02,comb02a,cauliflower01,lipstick02a,potato02b,blankImage,blankImage,baseballbat,,,,,,,,,,,,0,106,106,123,,,,,,,,,,,,,,,,,,,,,,,,,,,,,,,,,,,686.8539635000016,687.8548530000007,687.8379792000014,688.4089685000017,688.4089685000017,None,690.299492600001,None,left,0.7891621999988274,690.299492600001,None,691.1079749,None,left,0.3167900999997073,691.1079749,None,,,,,,,,,,,,,,,,,,,,,,,PPT58,001,2022-07-15_17h02.04.569,ABstudy,2022.1.4,59.938922238059725,
AB,Lag1_T1P_T2A,1,P,A,7,8,6,4,12,Steering wheel,Did you see the Steering wheel?,0.12,0.016,JPG\,alligator,banana01,apple07,tomato01,button01,spoon01,steeringwheel,fork03c,canoftennisballs,potato02b,grape01,leaf02a,blankImage,blankImage,blankImage,blankImage,blankImage,steeringwheel,,,,,,,,,,,,0,107,107,198,,,,,,,,,,,,,,,,,,,,,,,,,,,,,,,,,,,691.4425026000008,692.4431686000007,692.4260203000013,692.9264022000007,692.9264022000007,None,694.4716601,None,left,1.4488978999997926,694.4716601,None,695.9461872000011,None,right,0.3507711999991443,695.9461872000011,None,,,,,,,,,,,,,,,,,,,,,,,PPT58,001,2022-07-15_17h02.04.569,ABstudy,2022.1.4,59.938922238059725,
AB,Lag5_T1P_T2P,5,P,P,6,11,5,5,16,scooter,Did you see the scooter?,0.12,0.016,JPG\,thermometer02b,candle08b,comb02a,toothbrush03b,brick,scooter,key01,pineapple01a,candy,birthdaycandle,stapler04b,canoftennisballs,teabag,medal02b,balloon01b,banana01,blankImage,scooter,,,,,,,,,,,,0,108,108,118,,,,,,,,,,,,,,,,,,,,,,,,,,,,,,,,,,,696.3299094000013,697.3308672000003,697.3144303000008,697.8722440000001,697.8722440000001,None,699.8723241000007,None,left,1.223774099998991,699.8723241000007,None,701.1181004000009,None,left,0.29019399999924644,701.1181004000009,None,,,,,,,,,,,,,,,,,,,,,,,PPT58,001,2022-07-15_17h02.04.569,ABstudy,2022.1.4,59.938922238059725,
AB,Lag1_T1P_T2P,1,P,P,8,9,7,4,13,Bird House,Did you see the Bird House?,0.12,0.016,JPG\,toiletpaper01a,mushroom01,medal02b,sandal,rice,cd,feather03a,birdhouse,stapler01,garlic01a,toaster01,belt02a,cigarette,blankImage,blankImage,blankImage,blankImage,birdhouse,,,,,,,,,,,,0,109,109,77,,,,,,,,,,,,,,,,,,,,,,,,,,,,,,,,,,,701.4369664000005,702.4359418000004,702.4192877000005,702.9834256000013,702.9834256000013,None,704.6210756,None,left,1.3553962999976648,704.6210756,None,706.0062916000006,None,right,0.3304062999995949,706.0062916000006,None,,,,,,,,,,,,,,,,,,,,,,,PPT58,001,2022-07-15_17h02.04.569,ABstudy,2022.1.4,59.938922238059725,
AB,Lag5_T1A_T2A,5,A,A,5,10,4,5,15,flower,Did you see the flower?,0.12,0.016,JPG\,clock01a,cellphone,toaster01,toothbrush03b,cauliflower01,microscope,comb02a,paintbrush01,scarf,clock04,sponge01,iron01b,watch02a,celery,ring01,blankImage,blankImage,stepladder,,,,,,,,,,,,0,110,110,303,,,,,,,,,,,,,,,,,,,,,,,,,,,,,,,,,,,706.3565379000011,707.3576873000002,707.3407585000004,707.9071226000015,707.9071226000015,None,709.7541208000002,None,right,1.342116999998325,709.7541208000002,None,711.1279599000009,None,right,0.26429129999814904,711.1279599000009,None,,,,,,,,,,,,,,,,,,,,,,,PPT58,001,2022-07-15_17h02.04.569,ABstudy,2022.1.4,59.938922238059725,
AB,Lag1_T1P_T2P,1,P,P,6,7,5,5,12,exit sign,Did you see the exit sign?,0.12,0.016,JPG\,printer02,envelope03a,potato02b,calculator01,tableknife02,exitsign,stapler01,pig,broom01,greenolive,candle08b,battery02b,blankImage,blankImage,blankImage,blankImage,blankImage,exitsign,,,,,,,,,,,,0,111,111,41,,,,,,,,,,,,,,,,,,,,,,,,,,,,,,,,,,,711.4115565000011,712.4127154000016,712.3957562000014,712.9596533000004,712.9596533000004,None,714.5405712000011,None,left,1.1877198999973189,714.5405712000011,None,715.7492797000014,None,right,0.8833893999999418,715.7492797000014,None,,,,,,,,,,,,,,,,,,,,,,,PPT58,001,2022-07-15_17h02.04.569,ABstudy,2022.1.4,59.938922238059725,
AB,Lag1_T1P_T2P,1,P,P,6,7,5,3,10,handcuffs,Did you see the handcuffs?,0.12,0.016,JPG\,sewingmachine01a,scarf,carrot01,book01b,eraser,handcuffs,stapler05,lipstick02a,printer02,garlic01a,blankImage,blankImage,blankImage,blankImage,blankImage,blankImage,blankImage,handcuffs,,,,,,,,,,,,0,112,112,2,,,,,,,,,,,,,,,,,,,,,,,,,,,,,,,,,,,716.6502850000015,717.6511507000014,717.6345260000016,718.2010492000009,718.2010492000009,None,719.4242918,None,left,1.1205868999986706,719.4242918,None,720.5707389000017,None,left,0.2221713999988424,720.5707389000017,None,,,,,,,,,,,,,,,,,,,,,,,PPT58,001,2022-07-15_17h02.04.569,ABstudy,2022.1.4,59.938922238059725,
AB,Lag1_T1P_T2P,1,P,P,6,7,5,3,10,spider web,Did you see the spider web?,0.12,0.016,JPG\,toaster01,chain01,sponge01,baseball01a,carrot01,spiderweb,stapler03b,iron01b,grape01,brick,blankImage,blankImage,blankImage,blankImage,blankImage,blankImage,blankImage,spiderweb,,,,,,,,,,,,0,113,113,72,,,,,,,,,,,,,,,,,,,,,,,,,,,,,,,,,,,720.8211125000016,721.8219549000005,721.8053522000009,722.3701304000006,722.3701304000006,None,723.7003983000013,None,left,0.9954371999992873,723.7003983000013,None,724.7249638000012,None,left,0.2359372999981133,724.7249638000012,None,,,,,,,,,,,,,,,,,,,,,,,PPT58,001,2022-07-15_17h02.04.569,ABstudy,2022.1.4,59.938922238059725,
AB,Lag5_T1A_T2A,5,A,A,5,10,4,5,15,window,Did you see the window?,0.12,0.016,JPG\,leaf02a,apple07,cd,pineapple01a,envelope03a,paintbrush01,pig,canoftennisballs,rice,feather03a,lemon02,balloon01b,avocado01,calculator01,watermelon01,blankImage,blankImage,saxophone,,,,,,,,,,,,0,114,114,301,,,,,,,,,,,,,,,,,,,,,,,,,,,,,,,,,,,724.9922816000017,725.9928236000014,725.9758596000011,726.5361186000009,726.5361186000009,None,728.3778977000002,None,right,1.5985203999971418,728.3778977000002,None,729.9966198000002,None,right,0.30773449999833247,729.9966198000002,None,,,,,,,,,,,,,,,,,,,,,,,PPT58,001,2022-07-15_17h02.04.569,ABstudy,2022.1.4,59.938922238059725,
AB,Lag5_T1P_T2A,5,P,A,6,11,5,3,14,Balcony,Did you see the Balcony?,0.12,0.016,JPG\,tomato01,pen04b,shirt02,carrot01,lamp04a,balcony02,pizza,avocado01,sewingmachine01a,apple07,iron01b,book01b,chain01,sock01a,blankImage,blankImage,blankImage,balcony02,,,,,,,,,,,,0,115,115,207,,,,,,,,,,,,,,,,,,,,,,,,,,,,,,,,,,,730.3305210000017,731.3314069000007,731.3147592000005,731.8779210000012,731.8779210000012,None,733.6767401000016,None,left,1.1873623999981646,733.6767401000016,None,734.8849969000003,None,right,0.2598091999989265,734.8849969000003,None,,,,,,,,,,,,,,,,,,,,,,,PPT58,001,2022-07-15_17h02.04.569,ABstudy,2022.1.4,59.938922238059725,
AB,Lag5_T1A_T2P,5,A,P,5,10,4,4,14,Chefs hat,Did you see the Chefs hat?,0.12,0.016,JPG\,candle01,fork03c,plate01b,violin,computerkeyboard02,candy,calculator01,paintbrush01,cherry01,stapler06,teabag,banana01,cd,lighter01,blankImage,blankImage,blankImage,horseshoe,,,,,,,,,,,,0,116,116,278,,,,,,,,,,,,,,,,,,,,,,,,,,,,,,,,,,,735.1693749000005,736.1696388,736.1527814000001,736.7038605000016,736.7038605000016,None,738.4428683000006,None,right,1.7973124999989523,738.4428683000006,None,740.2570806000003,None,left,0.2550712999982352,740.2570806000003,None,,,,,,,,,,,,,,,,,,,,,,,PPT58,001,2022-07-15_17h02.04.569,ABstudy,2022.1.4,59.938922238059725,
AB,Lag1_T1P_T2A,1,P,A,7,8,6,4,12,gorilla,Did you see the gorilla?,0.12,0.016,JPG\,scissors01,ashtray01,garlic01a,medal02b,cigarette,candle08b,gorilla,envelope03a,cucumber,rice,toiletpaper01a,greenolive,blankImage,blankImage,blankImage,blankImage,blankImage,gorilla,,,,,,,,,,,,0,117,117,189,,,,,,,,,,,,,,,,,,,,,,,,,,,,,,,,,,,740.540606300001,741.5413241000006,741.5248662000013,742.082934600001,742.082934600001,None,743.6294284000014,None,left,0.858989999996993,743.6294284000014,None,744.5113112000017,None,right,0.5129404999988765,744.5113112000017,None,,,,,,,,,,,,,,,,,,,,,,,PPT58,001,2022-07-15_17h02.04.569,ABstudy,2022.1.4,59.938922238059725,
AB,Lag1_T1P_T2P,1,P,P,5,6,4,4,10,Ladybug,Did you see the Ladybug?,0.12,0.016,JPG\,key01,apple07,ring01,leaf02a,ladybug03,stapler04b,violin,sponge01,baseball01a,thermometer02b,blankImage,blankImage,blankImage,blankImage,blankImage,blankImage,blankImage,ladybug03,,,,,,,,,,,,0,118,118,65,,,,,,,,,,,,,,,,,,,,,,,,,,,,,,,,,,,745.0467471000011,746.0459765000014,746.0294728000008,746.5851232000005,746.5851232000005,None,747.8346548000009,None,left,0.7092648999987432,747.8346548000009,None,748.5651201000001,None,left,0.2676694999991014,748.5651201000001,None,,,,,,,,,,,,,,,,,,,,,,,PPT58,001,2022-07-15_17h02.04.569,ABstudy,2022.1.4,59.938922238059725,
AB,Lag1_T1P_T2A,1,P,A,6,7,5,5,12,Barn,Did you see the Barn?,0.12,0.016,JPG\,celery,pencil01,fan,foosballtable,iron01b,barn,potato02b,fork03c,button01,pineapple01a,baseball01a,printer02,blankImage,blankImage,blankImage,blankImage,blankImage,barn,,,,,,,,,,,,0,119,119,181,,,,,,,,,,,,,,,,,,,,,,,,,,,,,,,,,,,748.865643000001,749.8666518000009,749.8498585000016,750.4074050000017,750.4074050000017,None,751.9468496000009,None,left,0.9895280999971874,751.9468496000009,None,752.9528165000011,None,right,0.2239378999984183,752.9528165000011,None,,,,,,,,,,,,,,,,,,,,,,,PPT58,001,2022-07-15_17h02.04.569,ABstudy,2022.1.4,59.938922238059725,
AB,Lag1_T1P_T2P,1,P,P,8,9,7,5,14,bullet,Did you see the bullet?,0.12,0.016,JPG\,measuringcup01,dice05a,greenolive,lipstick02a,feather03a,balloon01b,lighter01,bullet,stapler04b,plate01b,microscope,brick,thermometer02b,screw02,blankImage,blankImage,blankImage,bullet,,,,,,,,,,,,0,120,120,57,,,,,,,,,,,,,,,,,,,,,,,,,,,,,,,,,,,753.2032961000004,754.2042565000011,754.1873614000015,754.7524582000005,754.7524582000005,None,756.5020410000016,None,left,0.490014599998176,756.5020410000016,None,757.0235439000007,None,left,0.19324539999979606,757.0235439000007,None,,,,,,,,,,,,,,,,,,,,,,,PPT58,001,2022-07-15_17h02.04.569,ABstudy,2022.1.4,59.938922238059725,
AB,Lag5_T1P_T2A,5,P,A,6,11,5,5,16,fish,Did you see the fish?,0.12,0.016,JPG\,cucumber,ring01,lipstick02a,microscope,violin,redlionfish,celery,lighter01,cherry01,sewingmachine01a,belt02a,key01,binoculars01b,medal02b,watermelon01,dice05a,blankImage,redlionfish,,,,,,,,,,,,0,121,121,221,,,,,,,,,,,,,,,,,,,,,,,,,,,,,,,,,,,757.2406432000007,758.2415106000008,758.224817100001,758.7820416000013,758.7820416000013,None,760.8218839000001,None,right,0.506239899998036,760.8218839000001,None,761.3463701000001,None,left,0.22196359999907145,761.3463701000001,None,,,,,,,,,,,,,,,,,,,,,,,PPT58,001,2022-07-15_17h02.04.569,ABstudy,2022.1.4,59.938922238059725,
AB,Lag1_T1P_T2P,1,P,P,8,9,7,4,13,dart board,Did you see the dart board?,0.12,0.016,JPG\,rice,watermelon01,tableknife02,scarf,computerkeyboard02,cauliflower01,battery02b,dartboard,stapler01,sandal,sponge01,microscope,tomato01,blankImage,blankImage,blankImage,blankImage,dartboard,,,,,,,,,,,,0,122,122,80,,,,,,,,,,,,,,,,,,,,,,,,,,,,,,,,,,,761.5948844000013,762.5956316000011,762.5789614000005,763.1391752000018,763.1391752000018,None,764.7832866000008,None,left,0.5454416999982641,764.7832866000008,None,765.348642500001,None,left,0.17986329999803274,765.348642500001,None,,,,,,,,,,,,,,,,,,,,,,,PPT58,001,2022-07-15_17h02.04.569,ABstudy,2022.1.4,59.938922238059725,
AB,Lag1_T1P_T2A,1,P,A,8,9,7,5,14,Parrot,Did you see the Parrot?,0.12,0.016,JPG\,candy,brownsugar,dice05a,cd,sock01a,blueberry01,button01,parrot01,feather03a,grape01,dandelion,scissors01,watch02a,candle08b,blankImage,blankImage,blankImage,parrot01,,,,,,,,,,,,0,123,123,192,,,,,,,,,,,,,,,,,,,,,,,,,,,,,,,,,,,765.5488869000001,766.5498787000015,766.5330268000016,767.0881026000006,767.0881026000006,None,768.7937482000016,None,left,1.1267903999996634,768.7937482000016,None,769.9529945000013,None,right,0.2148546999997052,769.9529945000013,None,,,,,,,,,,,,,,,,,,,,,,,PPT58,001,2022-07-15_17h02.04.569,ABstudy,2022.1.4,59.938922238059725,
AB,Lag1_T1A_T2A,1,A,A,8,9,7,5,14,Ping pong Table,Did you see the Ping pong Table?,0.12,0.016,JPG\,pineapple01a,tennisball01b,computerkeyboard02,feather03a,belt02a,acorn,violin,blueberry01,medal02b,alligator,greenolive,screwdriver04b,potato02b,fork03c,blankImage,blankImage,blankImage,statue,,,,,,,,,,,,0,124,124,287,,,,,,,,,,,,,,,,,,,,,,,,,,,,,,,,,,,770.1870667000003,771.1876976000003,771.1711455000004,771.7312125000008,771.7312125000008,None,773.5085792000009,None,right,1.0752949999987322,773.5085792000009,None,774.6078215000016,None,right,0.239987499997369,774.6078215000016,None,,,,,,,,,,,,,,,,,,,,,,,PPT58,001,2022-07-15_17h02.04.569,ABstudy,2022.1.4,59.938922238059725,
AB,Lag5_T1P_T2P,5,P,P,8,13,7,3,16,banjo,Did you see the banjo?,0.12,0.016,JPG\,celery,brownsugar,key01,sunglasses04,leaf02a,toothbrush03b,dice05a,banjo,scarf,globe,paintbrush01,scissors01,stapler03a,battery02b,feather03a,cymbal,blankImage,banjo,,,,,,,,,,,,0,125,125,102,,,,,,,,,,,,,,,,,,,,,,,,,,,,,,,,,,,774.8748681000015,775.8758093000015,775.8589015000016,776.419933000001,776.419933000001,None,778.2998222000006,None,right,1.0204442999984167,778.2998222000006,None,779.3457662000001,None,left,1.142534099997647,779.3457662000001,None,,,,,,,,,,,,,,,,,,,,,,,PPT58,001,2022-07-15_17h02.04.569,ABstudy,2022.1.4,59.938922238059725,
AB,Lag1_T1A_T2P,1,A,P,8,9,7,4,13,Christmas tree,Did you see the Christmas tree?,0.12,0.016,JPG\,broom01,globe,cellphone,tableknife02,cauliflower01,scissors01,ring01,alligator,stapler03a,toaster01,cigarette,grape01,microscope,blankImage,blankImage,blankImage,blankImage,windmill,,,,,,,,,,,,0,126,126,247,,,,,,,,,,,,,,,,,,,,,,,,,,,,,,,,,,,780.513707600001,781.5147789000002,781.4979446000016,782.0516606000001,782.0516606000001,None,783.6935849000001,None,right,1.1631393999978172,783.6935849000001,None,784.8847963000007,None,left,0.24329279999801656,784.8847963000007,None,,,,,,,,,,,,,,,,,,,,,,,PPT58,001,2022-07-15_17h02.04.569,ABstudy,2022.1.4,59.938922238059725,
AB,Lag5_T1A_T2P,5,A,P,5,10,4,3,13,License Plate,Did you see the License Plate?,0.12,0.016,JPG\,tomato01,pen04b,shirt02,carrot01,lamp04a,key01,pizza,avocado01,sewingmachine01a,stapler06,iron01b,book01b,chain01,blankImage,blankImage,blankImage,blankImage,porcupine,,,,,,,,,,,,0,127,127,270,,,,,,,,,,,,,,,,,,,,,,,,,,,,,,,,,,,785.1519343,786.1525680000013,786.1357802000002,786.6993179000001,786.6993179000001,None,788.3306658000001,None,right,1.1180325999976048,788.3306658000001,None,789.4726192000016,None,left,0.23244039999917732,789.4726192000016,None,,,,,,,,,,,,,,,,,,,,,,,PPT58,001,2022-07-15_17h02.04.569,ABstudy,2022.1.4,59.938922238059725,
AB,Lag1_T1P_T2A,1,P,A,5,6,4,5,11,Toaster oven,Did you see the Toaster oven?,0.12,0.016,JPG\,fork03c,toothbrush03b,cellphone,fan,toasteroven,clock01a,ring01,eraser,sunglasses04,thermometer02b,violin,blankImage,blankImage,blankImage,blankImage,blankImage,blankImage,toasteroven,,,,,,,,,,,,0,128,128,200,,,,,,,,,,,,,,,,,,,,,,,,,,,,,,,,,,,789.7231172000011,790.7239341000004,790.7070052000017,791.2582048000004,791.2582048000004,None,792.6437211000011,None,left,1.0603480999998283,792.6437211000011,None,793.726692100001,None,right,0.19384319999880972,793.726692100001,None,,,,,,,,,,,,,,,,,,,,,,,PPT58,001,2022-07-15_17h02.04.569,ABstudy,2022.1.4,59.938922238059725,
AB,Lag1_T1P_T2P,1,P,P,6,7,5,3,10,cupcake,Did you see the cupcake?,0.12,0.016,JPG\,printer02,leaf02a,cauliflower01,sock01a,brownsugar,cupcake,stapler01,orange,belt02a,shirt02,blankImage,blankImage,blankImage,blankImage,blankImage,blankImage,blankImage,cupcake,,,,,,,,,,,,0,129,129,38,,,,,,,,,,,,,,,,,,,,,,,,,,,,,,,,,,,793.9438451000005,794.9448108000015,794.9281467000001,795.4910814000013,795.4910814000013,None,796.7297903000017,None,left,1.3271886999991693,796.7297903000017,None,798.0811064000009,None,right,0.5105646999982127,798.0811064000009,None,,,,,,,,,,,,,,,,,,,,,,,PPT58,001,2022-07-15_17h02.04.569,ABstudy,2022.1.4,59.938922238059725,
AB,Lag5_T1P_T2P,5,P,P,5,10,4,5,15,ear,Did you see the ear?,0.12,0.016,JPG\,fork03c,plate01b,toiletpaper01a,greenolive,ear,blueberry01,onion,calculator01,envelope03a,stapler06,book01b,pencil01,sewingmachine01a,brick,watermelon01,blankImage,blankImage,ear,,,,,,,,,,,,0,130,130,107,,,,,,,,,,,,,,,,,,,,,,,,,,,,,,,,,,,798.6149166000014,799.6160797000011,799.5993096000002,800.1552101000016,800.1552101000016,None,802.0463743,None,left,0.47334009999758564,802.0463743,None,802.5524515000016,None,left,0.21620339999935823,802.5524515000016,None,,,,,,,,,,,,,,,,,,,,,,,PPT58,001,2022-07-15_17h02.04.569,ABstudy,2022.1.4,59.938922238059725,
AB,Lag5_T1P_T2P,5,P,P,5,10,4,5,15,Bee,Did you see the Bee?,0.12,0.016,JPG\,fork03c,dandelion,dice05a,belt02a,honeybee,watch02a,key01,globe,eraser,stapler03a,greenolive,shirt02,candle08b,cigarette,garlic01a,blankImage,blankImage,honeybee,,,,,,,,,,,,0,131,131,149,,,,,,,,,,,,,,,,,,,,,,,,,,,,,,,,,,,802.7858876000009,803.7866341000008,803.770203,804.3233475000015,804.3233475000015,None,806.1807899000014,None,left,1.203022299998338,806.1807899000014,None,807.4069490000002,None,right,0.3534533999991254,807.4069490000002,None,,,,,,,,,,,,,,,,,,,,,,,PPT58,001,2022-07-15_17h02.04.569,ABstudy,2022.1.4,59.938922238059725,
AB,Lag1_T1A_T2P,1,A,P,8,9,7,3,12,seal,Did you see the seal?,0.12,0.016,JPG\,dice05a,watch02a,pig,lighter01,button01,strawberry,paintbrush01,microscope,stapler03a,pen04b,feather03a,8ball,blankImage,blankImage,blankImage,blankImage,blankImage,hockeystick,,,,,,,,,,,,0,132,132,235,,,,,,,,,,,,,,,,,,,,,,,,,,,,,,,,,,,807.8326394000014,808.8420017000008,808.8086698000006,809.3701980000005,809.3701980000005,None,810.8683944000004,None,right,1.0032205999996222,810.8683944000004,None,811.8948507000005,None,left,0.2262427999994543,811.8948507000005,None,,,,,,,,,,,,,,,,,,,,,,,PPT58,001,2022-07-15_17h02.04.569,ABstudy,2022.1.4,59.938922238059725,
AB,Lag5_T1P_T2A,5,P,A,8,13,7,3,16,leaf blower,Did you see the leaf blower?,0.12,0.016,JPG\,printer02,leaf02a,cauliflower01,sock01a,brownsugar,paintbrush01,pig,leafblower01,belt02a,shirt02,key01,match,cigarette,scissors01,envelope03a,blueberry01,blankImage,leafblower01,,,,,,,,,,,,0,133,133,216,,,,,,,,,,,,,,,,,,,,,,,,,,,,,,,,,,,812.1451277000015,813.1462208000012,813.1295549000006,813.6925790000005,813.6925790000005,None,815.7377657000015,None,right,1.7503898999984813,815.7377657000015,None,817.5171134000011,None,left,0.2109558999982255,817.5171134000011,None,,,,,,,,,,,,,,,,,,,,,,,PPT58,001,2022-07-15_17h02.04.569,ABstudy,2022.1.4,59.938922238059725,
AB,Lag1_T1P_T2P,1,P,P,5,6,4,5,11,shark,Did you see the shark?,0.12,0.016,JPG\,cucumber,sponge01,alligator,pear01,greatwhiteshark,stapler06,clock04,battery02b,fork03c,binoculars01b,mushroom01,blankImage,blankImage,blankImage,blankImage,blankImage,blankImage,greatwhiteshark,,,,,,,,,,,,0,134,134,84,,,,,,,,,,,,,,,,,,,,,,,,,,,,,,,,,,,817.7507571000006,818.7517587000002,818.7351002000014,819.2943675000006,819.2943675000006,None,820.7080325000006,None,left,0.596075399998881,820.7080325000006,None,821.3214579000014,None,left,12.718523099998492,821.3214579000014,None,,,,,,,,,,,,,,,,,,,,,,,PPT58,001,2022-07-15_17h02.04.569,ABstudy,2022.1.4,59.938922238059725,
AB,Lag1_T1P_T2P,1,P,P,8,9,7,3,12,Sheep,Did you see the Sheep?,0.12,0.016,JPG\,celery,orange,scissors01,balloon01b,avocado01,printer02,mushroom01,sheep,stapler03b,dice05a,ashtray01,fan,blankImage,blankImage,blankImage,blankImage,blankImage,sheep,,,,,,,,,,,,0,135,135,71,,,,,,,,,,,,,,,,,,,,,,,,,,,,,,,,,,,834.0669991000013,835.0680631000014,835.0513905000007,835.6076645000012,835.6076645000012,None,837.1500467000005,None,left,0.5703628999981447,837.1500467000005,None,837.7367925000017,None,left,0.21470539999791072,837.7367925000017,None,,,,,,,,,,,,,,,,,,,,,,,PPT58,001,2022-07-15_17h02.04.569,ABstudy,2022.1.4,59.938922238059725,
AB,Lag5_T1P_T2P,5,P,P,8,13,7,3,16,church,Did you see the church?,0.12,0.016,JPG\,clock01a,cellphone,toaster01,toothbrush03b,cauliflower01,microscope,comb02a,church,scarf,clock04,sponge01,iron01b,stapler06,celery,ring01,ashtray01,blankImage,church,,,,,,,,,,,,0,136,136,129,,,,,,,,,,,,,,,,,,,,,,,,,,,,,,,,,,,837.9707361000001,838.9717392000002,838.9552033,839.5180365000015,839.5180365000015,None,841.460919000001,None,left,0.5869511999990209,841.460919000001,None,842.0749983000005,None,left,0.2373435999998037,842.0749983000005,None,,,,,,,,,,,,,,,,,,,,,,,PPT58,001,2022-07-15_17h02.04.569,ABstudy,2022.1.4,59.938922238059725,
AB,Lag1_T1A_T2P,1,A,P,7,8,6,3,11,Fox,Did you see the Fox?,0.12,0.016,JPG\,toaster01,chain01,sponge01,baseball01a,carrot01,belt02a,book01b,stapler03b,grape01,brick,celery,blankImage,blankImage,blankImage,blankImage,blankImage,blankImage,fingerprint,,,,,,,,,,,,0,137,137,234,,,,,,,,,,,,,,,,,,,,,,,,,,,,,,,,,,,842.3420991000003,843.3429192000003,843.326074300001,843.8901071,843.8901071,None,845.2818106000013,None,right,1.246448899997631,845.2818106000013,None,846.5461015000001,None,left,0.1582087999995565,846.5461015000001,None,,,,,,,,,,,,,,,,,,,,,,,PPT58,001,2022-07-15_17h02.04.569,ABstudy,2022.1.4,59.938922238059725,
