TrialType,CondType,Lag,T1_PA,T2_PA,T1Loc,T2Loc,PreDistractor,PostDistractor,TotalImg,cueWord,T1cue,StimLength,isi,PicFolder,Img1,Img2,Img3,Img4,Img5,Img6,Img7,Img8,Img9,Img10,Img11,Img12,Img13,Img14,Img15,Img16,Img17,T1_Identity,ImageType,T1PA,T2PA,Picture,Image,FullPathName,FilePath,Practice_Trials.thisRepN,Practice_Trials.thisTrialN,Practice_Trials.thisN,Practice_Trials.thisIndex,trials.thisRepN,trials.thisTrialN,trials.thisN,trials.thisIndex,trials_2.thisRepN,trials_2.thisTrialN,trials_2.thisN,trials_2.thisIndex,Practice_Ins.started,Practice_Ins.stopped,End_Prac_Ins.keys,End_Prac_Ins.rt,End_Prac_Ins.started,End_Prac_Ins.stopped,text_2.started,text_2.stopped,Fixation_Cross_2.started,Fixation_Cross_2.stopped,Rapid_Image_Present_2.started,Rapid_Image_Present_2.stopped,key_resp.keys,key_resp.rt,key_resp.started,key_resp.stopped,T1Response_2.started,T1Response_2.stopped,T2Response_2.started,T2Response_2.stopped,key_resp_4.keys,key_resp_4.rt,key_resp_4.started,key_resp_4.stopped,text.started,text.stopped,End_Instructions.keys,End_Instructions.rt,End_Instructions.started,End_Instructions.stopped,text_5.started,text_5.stopped,FC.started,FC.stopped,Rapid_Image_Present.started,Rapid_Image_Present.stopped,T1Response.started,T1Response.stopped,key_resp_2.keys,key_resp_2.rt,key_resp_2.started,key_resp_2.stopped,T2Response.started,T2Response.stopped,key_resp_3.keys,key_resp_3.rt,key_resp_3.started,key_resp_3.stopped,text_6.started,text_6.stopped,Fin_ins.keys,Fin_ins.rt,Fin_ins.started,Fin_ins.stopped,MemTest.started,MemTest.stopped,MemResponse.keys,MemResponse.rt,MemResponse.started,MemResponse.stopped,Display.started,Display.stopped,text_7.started,text_7.stopped,endOfExperiment.started,endOfExperiment.stopped,key_resp_5.keys,key_resp_5.rt,key_resp_5.started,key_resp_5.stopped,participant,session,date,expName,psychopyVersion,frameRate,
,,,,,,,,,,,,,,,,,,,,,,,,,,,,,,,,,,,,,,,,,,,,,,,,,,,,16.834335099999862,None,space,37.482877700000245,16.834335099999862,None,,,,,,,,,,,,,,,,,,,,,,,,,,,,,,,,,,,,,,,,,,,,,,,,,,,,,,,,,,,,,,,,,PPT56,001,2022-07-15_13h59.26.567,ABstudy,2022.1.4,59.877908943638616,
AB_Prac,Lag1_T1P_T2P,1,P,P,6,7,5,5,12,triangle,Did you see the triangle?,0.5,0.016,JPG\,ginger,mousetrap,plum01,slipper01b,dropper01,triangle,stapler04b,pants,raspberry01,rope03,scale01a,vase01,blankImage,blankImage,blankImage,blankImage,blankImage,triangle,,,,,,,,0,0,0,1,,,,,,,,,,,,,,,54.37885119999987,55.386886900000036,55.37032350000004,56.06713909999985,55.98054239999988,None,left,1.78002830000014,62.041083999999955,None,62.041083999999955,None,63.84528780000005,None,left,1.7517382000000907,63.84528780000005,None,,,,,,,,,,,,,,,,,,,,,,,,,,,,,,,,,,,,,,,,,,,,,,,PPT56,001,2022-07-15_13h59.26.567,ABstudy,2022.1.4,59.877908943638616,
AB_Prac,Lag5_T1P_T2P,5,P,P,5,10,4,5,15,Vulture,Did you see the Vulture?,0.5,0.016,JPG\,shorts01,toast,ramekin01,bib,vulture,cracker02,date,glasses01a,hat03b,stapler01,measuringtape01,nail,pill,drum01,starfish01,blankImage,blankImage,vulture,,,,,,,,0,1,1,3,,,,,,,,,,,,,,,65.6137248,66.61480080000001,66.59798869999986,67.16835459999993,67.16835459999993,None,left,2.075336899999911,74.71455349999997,None,74.71455349999997,None,76.8082339,None,left,1.0457891000000927,76.8082339,None,,,,,,,,,,,,,,,,,,,,,,,,,,,,,,,,,,,,,,,,,,,,,,,PPT56,001,2022-07-15_13h59.26.567,ABstudy,2022.1.4,59.877908943638616,
AB_Prac,Lag5_T1P_T2A,5,P,A,6,11,5,5,16,bread,Did you see the bread?,0.5,0.016,JPG\,cleaver01,clipboard,dustpan,hikingshoe01,notebook03a,baguette01,playingcard,pliers02b,styrofoamcup,rollingpin01a,swimgoggles,wineglass01,fryingpan02a,safetypin,syringe01,thimble,blankImage,baguette01,,,,,,,,0,2,2,8,,,,,,,,,,,,,,,77.88112000000001,78.89370039999994,78.87698159999991,79.4403969,79.4403969,None,left,2.010164100000111,87.5863480999999,None,87.5863480999999,None,89.62102679999998,None,right,1.3290382000000136,89.62102679999998,None,,,,,,,,,,,,,,,,,,,,,,,,,,,,,,,,,,,,,,,,,,,,,,,PPT56,001,2022-07-15_13h59.26.567,ABstudy,2022.1.4,59.877908943638616,
AB_Prac,Lag5_T1A_T2A,5,A,A,6,11,5,5,16,castle,Did you see the castle?,0.5,0.016,JPG\,tape02a,englishmuffin,flask,ladle02a,monitor,peach01,keychain,squeegee01b,telephone01b,whisk,walkman,syringe02,baguette01,coaster,box01a,coffeepot03a,blankImage,None,,,,,,,,0,3,3,11,,,,,,,,,,,,,,,90.97220849999985,91.97331710000003,91.95656439999993,92.52616469999998,92.52616469999998,None,right,2.094692000000123,100.54199659999995,None,100.54199659999995,None,102.66722460000005,None,right,0.8507991000001311,102.66722460000005,None,,,,,,,,,,,,,,,,,,,,,,,,,,,,,,,,,,,,,,,,,,,,,,,PPT56,001,2022-07-15_13h59.26.567,ABstudy,2022.1.4,59.877908943638616,
AB_Prac,Lag5_T1P_T2A,5,P,A,6,11,5,5,16,Wheat,Did you see the Wheat?,0.5,0.016,JPG\,bottleopener01,dentalfloss03b,cooler01,icecreamcone01a,paperclip01b,wheat,pencilsharpener02a,plasticbasket01a,toycar04,apricot,hairclip02,rock01a,honeydewmelon,antenna,blackberry,cardboardbox,blankImage,wheat,,,,,,,,0,4,4,7,,,,,,,,,,,,,,,103.53501319999987,104.53578809999999,104.51914939999983,105.07893919999992,105.07893919999992,None,left,1.7369441000000734,113.14749489999986,None,113.14749489999986,None,114.91273860000001,None,right,0.8766265000001567,114.91273860000001,None,,,,,,,,,,,,,,,,,,,,,,,,,,,,,,,,,,,,,,,,,,,,,,,PPT56,001,2022-07-15_13h59.26.567,ABstudy,2022.1.4,59.877908943638616,
AB_Prac,Lag1_T1A_T2A,1,A,A,8,9,7,3,12,Moose,Did you see the Moose?,0.5,0.016,JPG\,clothespin03b,corkscrew03a,drillbit03a,fusilli03a,needlenosepliers01,perfume01a,pistachio,scrubbingbrush05b,spatula03,toothpastetube,hinge,toydinosaur,blankImage,blankImage,blankImage,blankImage,blankImage,None,,,,,,,,0,5,5,10,,,,,,,,,,,,,,,115.8139205,116.81462450000004,116.79813309999986,117.36208469999997,117.36208469999997,None,right,1.4929497000000538,123.4315302,None,123.4315302,None,124.9562578,None,right,0.6486607000001641,124.9562578,None,,,,,,,,,,,,,,,,,,,,,,,,,,,,,,,,,,,,,,,,,,,,,,,PPT56,001,2022-07-15_13h59.26.567,ABstudy,2022.1.4,59.877908943638616,
AB_Prac,Lag5_T1A_T2P,5,A,P,6,11,5,3,14,dog,Did you see the dog?,0.5,0.016,JPG\,bucket01a,doorlock,cookiecutter,fireextinguisher01,gluestick,highlighter02b,sportbag,spraybottle01,suitcase,thread02,stapler05,walnut01c,icecubetray01a,vikingmask01b,blankImage,blankImage,blankImage,None,,,,,,,,0,6,6,9,,,,,,,,,,,,,,,125.6238366,126.62453499999992,126.60791719999997,127.18046340000001,127.18046340000001,None,right,1.1937072000000626,134.24286889999985,None,134.24286889999985,None,135.46656989999997,None,right,0.5379556000000321,135.46656989999997,None,,,,,,,,,,,,,,,,,,,,,,,,,,,,,,,,,,,,,,,,,,,,,,,PPT56,001,2022-07-15_13h59.26.567,ABstudy,2022.1.4,59.877908943638616,
AB_Prac,Lag5_T1P_T2P,5,P,P,7,12,6,3,15,vacuum,Did you see the vacuum?,0.5,0.016,JPG\,fork07b,lightbulb01,manshoe,saw02b,shoelace,soap03a,vacuumcleaner01,floortile01,necklace,doll,cabbage,stapler03a,hanger02a,laptop01a,nailpolish03b,blankImage,blankImage,vacuumcleaner01,,,,,,,,0,7,7,2,,,,,,,,,,,,,,,136.0361851,137.05162929999983,137.01825209999993,137.5887642,137.5887642,None,left,1.4781985000001896,145.15903030000004,None,145.15903030000004,None,146.66112959999987,None,left,0.8239714999999705,146.66112959999987,None,,,,,,,,,,,,,,,,,,,,,,,,,,,,,,,,,,,,,,,,,,,,,,,PPT56,001,2022-07-15_13h59.26.567,ABstudy,2022.1.4,59.877908943638616,
AB_Prac,Lag5_T1P_T2P,5,P,P,5,10,4,5,15,washing machine,Did you see the washing machine?,0.5,0.016,JPG\,waterbottle03,wheel01,flashlight02b,zucchini01,washingmachine,headphones02b,nutcracker01,paintroller01,paperclip03,stapler06,ribbon04,electricrazor,bottleofredwine01,pitabread,pot02a,blankImage,blankImage,washingmachine,,,,,,,,0,8,8,4,,,,,,,,,,,,,,,147.51215619999994,148.5129207,148.49643579999997,149.05658589999985,149.05658589999985,None,left,1.6452433000001747,156.59182769999984,None,156.59182769999984,None,158.25602729999991,None,left,0.68441450000023,158.25602729999991,None,,,,,,,,,,,,,,,,,,,,,,,,,,,,,,,,,,,,,,,,,,,,,,,PPT56,001,2022-07-15_13h59.26.567,ABstudy,2022.1.4,59.877908943638616,
AB_Prac,Lag1_T1P_T2A,1,P,A,5,6,4,5,11,Webcam,Did you see the Webcam?,0.5,0.016,JPG\,pictureframe04,binder03b,straw,adjustablewrench01b,webcam,cane,hairdryer02a,icepack,kitchenscale01a,lifejacket,piggybank,blankImage,blankImage,blankImage,blankImage,blankImage,blankImage,webcam,,,,,,,,0,9,9,6,,,,,,,,,,,,,,,158.97336870000004,159.97496679999995,159.95773609999992,160.52702550000004,160.52702550000004,None,left,2.2218082000001687,166.0557922999999,None,166.0557922999999,None,168.29945589999988,None,right,1.10596129999999,168.29945589999988,None,,,,,,,,,,,,,,,,,,,,,,,,,,,,,,,,,,,,,,,,,,,,,,,PPT56,001,2022-07-15_13h59.26.567,ABstudy,2022.1.4,59.877908943638616,
AB_Prac,Lag1_T1P_T2P,1,P,P,8,9,7,5,14,Tennis racket,Did you see the Tennis racket?,0.5,0.016,JPG\,coconut,computermouse06,croissant01,deodorant02a,pillow01a,peanut01,boot02b,tennisracket,stapler03b,crayon,eggplant,marker01a,plant01,radish01,blankImage,blankImage,blankImage,tennisracket,,,,,,,,0,10,10,0,,,,,,,,,,,,,,,169.4348829999999,170.43467609999993,170.4181762999999,170.9973926,170.9973926,None,left,1.5213403000000199,178.0188920999999,None,178.0188920999999,None,179.56054459999996,None,left,0.6764659999998912,179.56054459999996,None,,,,,,,,,,,,,,,,,,,,,,,,,,,,,,,,,,,,,,,,,,,,,,,PPT56,001,2022-07-15_13h59.26.567,ABstudy,2022.1.4,59.877908943638616,
AB_Prac,Lag1_T1P_T2A,1,P,A,8,9,7,5,14,flower,Did you see the flower?,0.5,0.016,JPG\,razor01,axe01,binder03b,bowl01,kettle01,lettuce,lime,plasticflower01b,mitten04,pencilcase01,plunger02,strawbasket01,toothpick02,wallet02a,blankImage,blankImage,blankImage,plasticflower01b,,,,,,,,0,11,11,5,,,,,,,,,,,,,,,180.30787310000005,181.31215150000003,181.29561949999993,181.85702429999992,181.85702429999992,None,left,1.3121660000001611,188.95804339999995,None,188.95804339999995,None,190.2880129,None,right,0.7488399999999729,190.2880129,None,,,,,,,,,,,,,,,,,,,,,,,,,,,,,,,,,,,,,,,,,,,,,,,PPT56,001,2022-07-15_13h59.26.567,ABstudy,2022.1.4,59.877908943638616,
,,,,,,,,,,,,,,,,,,,,,,,,,,,,,,,,,,,,,,,,,,,,,,,,,,,,,,,,,,,,,,,,,,,,,,,,,,,,191.05525839999996,None,space,12.821384200000239,191.05525839999996,None,,,,,,,,,,,,,,,,,,,,,,,,,,,,,,,,,,,,,,,,,PPT56,001,2022-07-15_13h59.26.567,ABstudy,2022.1.4,59.877908943638616,
AB,Lag5_T1P_T2P,5,P,P,8,13,7,5,18,Kiwi,Did you see the Kiwi?,0.12,0.016,JPG\,violin,pizza,toothbrush03b,pineapple01a,banana01,ashtray01,candy,kiwi03,clock04,sock01a,microscope,speaker04,stapler04b,sunglasses04,lipstick02a,blueberry01,blankImage,kiwi03,,,,,,,,,,,,0,0,0,111,,,,,,,,,,,,,,,,,,,,,,,,,,,,,,,,,,,204.53485720000003,205.53630529999987,205.51977850000003,206.12977769999998,206.12977769999998,None,208.06020130000002,None,left,1.3600031000000854,208.06020130000002,None,209.44030139999995,None,left,0.42007100000023456,209.44030139999995,None,,,,,,,,,,,,,,,,,,,,,,,PPT56,001,2022-07-15_13h59.26.567,ABstudy,2022.1.4,59.877908943638616,
AB,Lag5_T1P_T2P,5,P,P,8,13,7,5,18,popcorn,Did you see the popcorn?,0.12,0.016,JPG\,toaster01,garlic01a,hairclip03,fan,comb02a,apple07,orange,popcorn,onion,blueberry01,toiletpaper01a,fork03c,stapler06,pineapple01a,scarf,eraser,blankImage,popcorn,,,,,,,,,,,,0,1,1,155,,,,,,,,,,,,,,,,,,,,,,,,,,,,,,,,,,,209.91717440000002,210.92510779999998,210.9084246,211.47621170000002,211.47621170000002,None,213.41389349999986,None,left,1.6231107999999494,213.41389349999986,None,215.06257649999998,None,left,0.3981751000001168,215.06257649999998,None,,,,,,,,,,,,,,,,,,,,,,,PPT56,001,2022-07-15_13h59.26.567,ABstudy,2022.1.4,59.877908943638616,
AB,Lag1_T1P_T2P,1,P,P,8,9,7,5,14,lawn mower,Did you see the lawn mower?,0.12,0.016,JPG\,battery02b,sunglasses04,pear01,tennisball01b,clock01a,speaker04,binoculars01b,lawnmower,stapler05,pineapple01a,avocado01,grape01,blueberry01,violin,blankImage,blankImage,blankImage,lawnmower,,,,,,,,,,,,0,2,2,46,,,,,,,,,,,,,,,,,,,,,,,,,,,,,,,,,,,215.4797443,216.4805088999999,216.4640480999999,217.03742429999988,217.03742429999988,None,218.8027371999999,None,left,1.7615573000000495,218.8027371999999,None,220.58485999999994,None,left,1.2124699000000874,220.58485999999994,None,,,,,,,,,,,,,,,,,,,,,,,PPT56,001,2022-07-15_13h59.26.567,ABstudy,2022.1.4,59.877908943638616,
AB,Lag1_T1A_T2A,1,A,A,6,7,5,5,12,flamingo,Did you see the flamingo?,0.12,0.016,JPG\,chain01,pen04b,birthdaycandle,watermelon01,broom01,scissors01,measuringcup01,candle01,hammer01,calculator01,ashtray01,feather03a,blankImage,blankImage,blankImage,blankImage,blankImage,witchhat,,,,,,,,,,,,0,3,3,288,,,,,,,,,,,,,,,,,,,,,,,,,,,,,,,,,,,221.8191228999999,222.8202116,222.80367509999996,223.39755409999998,223.39755409999998,None,224.83851019999997,None,right,2.094398299999966,224.83851019999997,None,226.95775099999992,None,right,3.1269770000001245,226.95775099999992,None,,,,,,,,,,,,,,,,,,,,,,,PPT56,001,2022-07-15_13h59.26.567,ABstudy,2022.1.4,59.877908943638616,
AB,Lag1_T1P_T2P,1,P,P,8,9,7,4,13,kite,Did you see the kite?,0.12,0.016,JPG\,scissors01,balloon01b,eraser,feather03a,banana01,candle01,measuringcup01,kite,stapler04b,strawberry,pear01,carrot01,globe,blankImage,blankImage,blankImage,blankImage,kite,,,,,,,,,,,,0,4,4,17,,,,,,,,,,,,,,,,,,,,,,,,,,,,,,,,,,,230.11094239999989,231.11179330000004,231.0952451999999,231.6492103999999,231.6492103999999,None,233.36197919999995,None,left,1.5714971000002151,233.36197919999995,None,234.96567749999986,None,left,0.3034095000000434,234.96567749999986,None,,,,,,,,,,,,,,,,,,,,,,,PPT56,001,2022-07-15_13h59.26.567,ABstudy,2022.1.4,59.877908943638616,
AB,Lag5_T1P_T2P,5,P,P,7,12,6,3,15,mail box,Did you see the mail box?,0.12,0.016,JPG\,key01,apple07,ring01,leaf02a,hammer01,tableknife02,postalmailbox01,sponge01,baseball01a,thermometer02b,celery,stapler06,grape01,cucumber,tennisball01b,blankImage,blankImage,postalmailbox01,,,,,,,,,,,,0,5,5,113,,,,,,,,,,,,,,,,,,,,,,,,,,,,,,,,,,,235.29928299999983,236.30037259999995,236.28359479999995,236.8449031,236.8449031,None,238.67407379999986,None,right,1.6422291000001223,238.67407379999986,None,240.33777829999985,None,left,0.483120099999951,240.33777829999985,None,,,,,,,,,,,,,,,,,,,,,,,PPT56,001,2022-07-15_13h59.26.567,ABstudy,2022.1.4,59.877908943638616,
AB,Lag1_T1P_T2A,1,P,A,6,7,5,4,11,bird,Did you see the bird?,0.12,0.016,JPG\,foosballtable,candy,envelope03a,microscope,pencil01,cedarwaxwing,scissors01,watermelon01,grape01,dandelion,pineapple01a,blankImage,blankImage,blankImage,blankImage,blankImage,blankImage,cedarwaxwing,,,,,,,,,,,,0,6,6,182,,,,,,,,,,,,,,,,,,,,,,,,,,,,,,,,,,,240.83816309999997,241.83926989999986,241.8224201999999,242.3240432,242.3240432,None,243.8142559999999,None,left,1.406206800000291,243.8142559999999,None,245.24249989999998,None,left,0.3544100999999955,245.24249989999998,None,,,,,,,,,,,,,,,,,,,,,,,PPT56,001,2022-07-15_13h59.26.567,ABstudy,2022.1.4,59.877908943638616,
AB,Lag5_T1P_T2P,5,P,P,6,11,5,3,14,wrench,Did you see the wrench?,0.12,0.016,JPG\,cherry01,cymbal,envelope03a,foosballtable,shirt02,stubbywrench01a,sewingmachine01a,candle08b,battery02b,apple07,stapler03b,screwdriver04b,strawberry,sunglasses04,blankImage,blankImage,blankImage,stubbywrench01a,,,,,,,,,,,,0,7,7,122,,,,,,,,,,,,,,,,,,,,,,,,,,,,,,,,,,,245.62639259999992,246.62746779999998,246.6104860999999,247.17724120000003,247.17724120000003,None,248.8965192999999,None,left,1.4763726999999562,248.8965192999999,None,250.3977929,None,left,0.32644840000011754,250.3977929,None,,,,,,,,,,,,,,,,,,,,,,,PPT56,001,2022-07-15_13h59.26.567,ABstudy,2022.1.4,59.877908943638616,
AB,Lag1_T1P_T2P,1,P,P,8,9,7,4,13,crab,Did you see the crab?,0.12,0.016,JPG\,candle01,fork03c,plate01b,violin,computerkeyboard02,candy,calculator01,crab01,stapler04b,sock01a,teabag,banana01,cd,blankImage,blankImage,blankImage,blankImage,crab01,,,,,,,,,,,,0,8,8,37,,,,,,,,,,,,,,,,,,,,,,,,,,,,,,,,,,,250.7482086,251.74905479999984,251.73229889999993,252.2856746,252.2856746,None,253.93563649999987,None,left,2.1646433000000798,253.93563649999987,None,256.12001469999996,None,right,0.9640044000000216,256.12001469999996,None,,,,,,,,,,,,,,,,,,,,,,,PPT56,001,2022-07-15_13h59.26.567,ABstudy,2022.1.4,59.877908943638616,
AB,Lag1_T1P_T2P,1,P,P,7,8,6,4,12,Christmas Tree,Did you see the Christmas Tree?,0.12,0.016,JPG\,sandal,fan,printer02,cellphone,mushroom01,candle08b,firtree,stapler03a,lamp04a,hammer01,teabag,aceofdiamond,blankImage,blankImage,blankImage,blankImage,blankImage,firtree,,,,,,,,,,,,0,9,9,6,,,,,,,,,,,,,,,,,,,,,,,,,,,,,,,,,,,257.10485219999987,258.1054870999999,258.08875079999984,258.65796639999985,258.65796639999985,None,260.17893230000004,None,left,2.4095750000001317,260.17893230000004,None,262.60987469999986,None,left,1.123482100000274,262.60987469999986,None,,,,,,,,,,,,,,,,,,,,,,,PPT56,001,2022-07-15_13h59.26.567,ABstudy,2022.1.4,59.877908943638616,
AB,Lag5_T1A_T2P,5,A,P,7,12,6,3,15,Car,Did you see the Car?,0.12,0.016,JPG\,lighter01,hammer01,spoon01,chain01,cymbal,sponge01,lipstick02a,alligator,pig,watermelon01,cauliflower01,stapler03b,broccoli01a,tableknife02,tennisball01b,blankImage,blankImage,wallclock,,,,,,,,,,,,0,10,10,277,,,,,,,,,,,,,,,,,,,,,,,,,,,,,,,,,,,263.76116460000003,264.76200819999985,264.7454223,265.31290119999994,265.31290119999994,None,267.21738400000004,None,right,2.1475131000001966,267.21738400000004,None,269.38331719999996,None,left,0.7891313000002356,269.38331719999996,None,,,,,,,,,,,,,,,,,,,,,,,PPT56,001,2022-07-15_13h59.26.567,ABstudy,2022.1.4,59.877908943638616,
AB,Lag5_T1A_T2P,5,A,P,8,13,7,5,18,fish,Did you see the fish?,0.12,0.016,JPG\,scissors01,grape01,mushroom01,toiletpaper01a,greenolive,pizza,cigarette,ashtray01,carrot01,pineapple01a,foosballtable,lipstick02a,stapler04b,tambourine02,potato02b,violin,blankImage,chimney,,,,,,,,,,,,0,11,11,283,,,,,,,,,,,,,,,,,,,,,,,,,,,,,,,,,,,270.2007005999999,271.2017576999999,271.18508039999983,271.74374869999997,271.74374869999997,None,273.7831733999999,None,right,2.781270600000198,273.7831733999999,None,276.59038699999996,None,left,0.6062106000001677,276.59038699999996,None,,,,,,,,,,,,,,,,,,,,,,,PPT56,001,2022-07-15_13h59.26.567,ABstudy,2022.1.4,59.877908943638616,
AB,Lag5_T1P_T2P,5,P,P,6,11,5,5,16,keys,Did you see the keys?,0.12,0.016,JPG\,toiletpaper01a,mushroom01,medal02b,sandal,rice,foldingchair,feather03a,pizza,candle08b,garlic01a,stapler01,belt02a,cigarette,violin,lemon02,fork03c,blankImage,foldingchair,,,,,,,,,,,,0,12,12,125,,,,,,,,,,,,,,,,,,,,,,,,,,,,,,,,,,,277.22460309999997,278.22543659999997,278.2088291,278.8206264999999,278.8206264999999,None,280.73299739999993,None,right,1.6399618000000373,280.73299739999993,None,282.3961956999999,None,left,0.3516997000001538,282.3961956999999,None,,,,,,,,,,,,,,,,,,,,,,,PPT56,001,2022-07-15_13h59.26.567,ABstudy,2022.1.4,59.877908943638616,
AB,Lag1_T1P_T2A,1,P,A,5,6,4,5,11,Sailboat,Did you see the Sailboat?,0.12,0.016,JPG\,chain01,speaker04,avocado01,watermelon01,sailboat,comb02a,lamp04a,fork03c,toaster01,slipper03b,scissors01,blankImage,blankImage,blankImage,blankImage,blankImage,blankImage,sailboat,,,,,,,,,,,,0,13,13,193,,,,,,,,,,,,,,,,,,,,,,,,,,,,,,,,,,,282.78001029999996,283.78086889999986,283.76428280000005,284.3188421,284.3188421,None,285.77201849999983,None,right,1.9767629000000397,285.77201849999983,None,287.7683499,None,right,0.3403183000000354,287.7683499,None,,,,,,,,,,,,,,,,,,,,,,,PPT56,001,2022-07-15_13h59.26.567,ABstudy,2022.1.4,59.877908943638616,
AB,Lag5_T1A_T2P,5,A,P,5,10,4,5,15,shower,Did you see the shower?,0.12,0.016,JPG\,sewingmachine01a,thermometer02b,sponge01,eraser,broccoli01a,fork03c,pizza,violin,belt02a,stapler04b,pineapple01a,tennisball01b,dandelion,cauliflower01,lemon02,blankImage,blankImage,redfox,,,,,,,,,,,,0,14,14,271,,,,,,,,,,,,,,,,,,,,,,,,,,,,,,,,,,,288.13532769999983,289.13623959999995,289.1196671,289.68441829999983,289.68441829999983,None,291.5059340999999,None,right,1.4587179000000106,291.5059340999999,None,292.99010439999984,None,right,1.0377607000000353,292.99010439999984,None,,,,,,,,,,,,,,,,,,,,,,,PPT56,001,2022-07-15_13h59.26.567,ABstudy,2022.1.4,59.877908943638616,
AB,Lag1_T1P_T2P,1,P,P,8,9,7,3,12,Eiffel tower,Did you see the Eiffel tower?,0.12,0.016,JPG\,celery,tennisball01b,calculator01,pear01,screw02,orange,button01,eiffeltower,stapler03b,apple07,iron01b,brownsugar,blankImage,blankImage,blankImage,blankImage,blankImage,eiffeltower,,,,,,,,,,,,0,15,15,40,,,,,,,,,,,,,,,,,,,,,,,,,,,,,,,,,,,294.05790979999983,295.0588548999999,295.04199189999986,295.6042539,295.6042539,None,297.0109834,None,left,1.6177612999999837,297.0109834,None,298.64573659999996,None,left,0.3518510999999762,298.64573659999996,None,,,,,,,,,,,,,,,,,,,,,,,PPT56,001,2022-07-15_13h59.26.567,ABstudy,2022.1.4,59.877908943638616,
AB,Lag1_T1P_T2P,1,P,P,8,9,7,4,13,dart board,Did you see the dart board?,0.12,0.016,JPG\,rice,watermelon01,tableknife02,scarf,computerkeyboard02,cauliflower01,battery02b,dartboard,stapler01,sandal,sponge01,microscope,tomato01,blankImage,blankImage,blankImage,blankImage,dartboard,,,,,,,,,,,,0,16,16,80,,,,,,,,,,,,,,,,,,,,,,,,,,,,,,,,,,,299.02962319999983,300.03032829999984,300.0138339,300.5761714999999,300.5761714999999,None,302.2169426999999,None,left,1.1477947000000768,302.2169426999999,None,303.38374839999983,None,left,0.33209759999999733,303.38374839999983,None,,,,,,,,,,,,,,,,,,,,,,,PPT56,001,2022-07-15_13h59.26.567,ABstudy,2022.1.4,59.877908943638616,
AB,Lag1_T1P_T2A,1,P,A,7,8,6,3,11,Seagull,Did you see the Seagull?,0.12,0.016,JPG\,toiletpaper01a,mushroom01,medal02b,sandal,rice,cd,seagull,pizza,candle08b,garlic01a,toaster01,blankImage,blankImage,blankImage,blankImage,blankImage,blankImage,seagull,,,,,,,,,,,,0,17,17,176,,,,,,,,,,,,,,,,,,,,,,,,,,,,,,,,,,,303.7341463999999,304.7352071999999,304.7184680999999,305.28702169999997,305.28702169999997,None,306.64171680000004,None,left,1.7385736000001089,306.64171680000004,None,308.40544150000005,None,right,0.327105900000106,308.40544150000005,None,,,,,,,,,,,,,,,,,,,,,,,PPT56,001,2022-07-15_13h59.26.567,ABstudy,2022.1.4,59.877908943638616,
AB,Lag1_T1P_T2A,1,P,A,7,8,6,4,12,Steering wheel,Did you see the Steering wheel?,0.12,0.016,JPG\,alligator,banana01,apple07,tomato01,button01,spoon01,steeringwheel,fork03c,canoftennisballs,potato02b,grape01,leaf02a,blankImage,blankImage,blankImage,blankImage,blankImage,steeringwheel,,,,,,,,,,,,0,18,18,198,,,,,,,,,,,,,,,,,,,,,,,,,,,,,,,,,,,308.7565869,309.75682340000003,309.7401774,310.24037780000003,310.24037780000003,None,311.84884579999994,None,left,1.9875205000000733,311.84884579999994,None,313.86092199999985,None,right,0.6388736999999765,313.86092199999985,None,,,,,,,,,,,,,,,,,,,,,,,PPT56,001,2022-07-15_13h59.26.567,ABstudy,2022.1.4,59.877908943638616,
AB,Lag1_T1P_T2A,1,P,A,7,8,6,4,12,gorilla,Did you see the gorilla?,0.12,0.016,JPG\,scissors01,ashtray01,garlic01a,medal02b,cigarette,candle08b,gorilla,envelope03a,cucumber,rice,toiletpaper01a,greenolive,blankImage,blankImage,blankImage,blankImage,blankImage,gorilla,,,,,,,,,,,,0,19,19,189,,,,,,,,,,,,,,,,,,,,,,,,,,,,,,,,,,,314.52830070000005,315.52923999999985,315.5125972999999,316.0698565,316.0698565,None,317.5467825999999,None,left,2.1453730000000633,317.5467825999999,None,319.7168850999999,None,right,0.3038523000002442,319.7168850999999,None,,,,,,,,,,,,,,,,,,,,,,,PPT56,001,2022-07-15_13h59.26.567,ABstudy,2022.1.4,59.877908943638616,
AB,Lag1_T1A_T2P,1,A,P,6,7,5,3,10,Jellyfish,Did you see the Jellyfish?,0.12,0.016,JPG\,thermometer02b,avocado01,scissors01,tennisball01b,medal02b,banana01,stapler01,cigarette,potato02b,pineapple01a,blankImage,blankImage,blankImage,blankImage,blankImage,blankImage,blankImage,firehydrant,,,,,,,,,,,,0,20,20,255,,,,,,,,,,,,,,,,,,,,,,,,,,,,,,,,,,,320.05077299999994,321.0514673,321.03460299999983,321.597491,321.597491,None,322.90537500000005,None,left,3.723007800000005,322.90537500000005,None,326.65698999999995,None,left,1.043560300000081,326.65698999999995,None,,,,,,,,,,,,,,,,,,,,,,,PPT56,001,2022-07-15_13h59.26.567,ABstudy,2022.1.4,59.877908943638616,
AB,Lag1_T1A_T2P,1,A,P,5,6,4,5,11,rake,Did you see the rake?,0.12,0.016,JPG\,candy,brownsugar,dice05a,cd,sock01a,stapler01,button01,potato02b,feather03a,grape01,dandelion,blankImage,blankImage,blankImage,blankImage,blankImage,blankImage,greatwhiteshark,,,,,,,,,,,,0,21,21,256,,,,,,,,,,,,,,,,,,,,,,,,,,,,,,,,,,,327.72465250000005,328.7257218,328.70905700000003,329.2645989,329.2645989,None,330.5609506999999,None,right,1.5800086000001556,330.5609506999999,None,332.1626054999999,None,left,0.8580454000000373,332.1626054999999,None,,,,,,,,,,,,,,,,,,,,,,,PPT56,001,2022-07-15_13h59.26.567,ABstudy,2022.1.4,59.877908943638616,
AB,Lag5_T1A_T2P,5,A,P,5,10,4,4,14,duck,Did you see the duck?,0.12,0.016,JPG\,brick,eraser,cucumber,ashtray01,thermometer02b,binoculars01b,lipstick02a,screwdriver04b,grape01,stapler04b,battery02b,iron01b,dice05a,avocado01,blankImage,blankImage,blankImage,barrel01,,,,,,,,,,,,0,22,22,280,,,,,,,,,,,,,,,,,,,,,,,,,,,,,,,,,,,333.04669709999985,334.0474941,334.0310334999999,334.60141799999997,334.60141799999997,None,336.38280799999984,None,right,2.3256366999999045,336.38280799999984,None,338.7355820999999,None,left,0.604735699999992,338.7355820999999,None,,,,,,,,,,,,,,,,,,,,,,,PPT56,001,2022-07-15_13h59.26.567,ABstudy,2022.1.4,59.877908943638616,
AB,Lag5_T1P_T2P,5,P,P,5,10,4,4,14,duck,Did you see the duck?,0.12,0.016,JPG\,celery,pencil01,fan,foosballtable,duck01,shirt02,potato02b,fork03c,button01,stapler03a,baseball01a,printer02,cauliflower01,dandelion,blankImage,blankImage,blankImage,duck01,,,,,,,,,,,,0,23,23,130,,,,,,,,,,,,,,,,,,,,,,,,,,,,,,,,,,,339.36960309999995,340.370508,340.35405879999985,340.9114844999999,340.9114844999999,None,342.5560971,None,left,1.4161430000001474,342.5560971,None,343.9909594999999,None,right,0.6289420999999038,343.9909594999999,None,,,,,,,,,,,,,,,,,,,,,,,PPT56,001,2022-07-15_13h59.26.567,ABstudy,2022.1.4,59.877908943638616,
AB,Lag5_T1P_T2A,5,P,A,6,11,5,5,16,World map,Did you see the World map?,0.12,0.016,JPG\,cigarette,pig,banana01,strawberry,clock01a,worldmap,spoon01,blueberry01,battery02b,pineapple01a,chain01,paintbrush01,candy,pen04b,teabag,birthdaycandle,blankImage,worldmap,,,,,,,,,,,,0,24,24,205,,,,,,,,,,,,,,,,,,,,,,,,,,,,,,,,,,,344.64172369999983,345.6425747999999,345.6257584,346.18286390000003,346.18286390000003,None,348.0778671999999,None,left,1.5660604000001968,348.0778671999999,None,349.6631204999999,None,right,0.7727125000001251,349.6631204999999,None,,,,,,,,,,,,,,,,,,,,,,,PPT56,001,2022-07-15_13h59.26.567,ABstudy,2022.1.4,59.877908943638616,
AB,Lag1_T1P_T2P,1,P,P,5,6,4,3,9,dolphin,Did you see the dolphin?,0.12,0.016,JPG\,pig,belt02a,rice,screwdriver04b,dolphin01,stapler05,candle08b,pear01,feather03a,blankImage,blankImage,blankImage,blankImage,blankImage,blankImage,blankImage,blankImage,dolphin01,,,,,,,,,,,,0,25,25,10,,,,,,,,,,,,,,,,,,,,,,,,,,,,,,,,,,,350.46408640000004,351.4649262999999,351.44844309999985,351.94872510000005,351.94872510000005,None,353.14774569999986,None,left,1.2009001000001263,353.14774569999986,None,354.36782229999994,None,left,0.324487500000032,354.36782229999994,None,,,,,,,,,,,,,,,,,,,,,,,PPT56,001,2022-07-15_13h59.26.567,ABstudy,2022.1.4,59.877908943638616,
AB,Lag1_T1P_T2P,1,P,P,6,7,5,5,12,exit sign,Did you see the exit sign?,0.12,0.016,JPG\,printer02,envelope03a,potato02b,calculator01,tableknife02,exitsign,stapler01,pig,broom01,greenolive,candle08b,battery02b,blankImage,blankImage,blankImage,blankImage,blankImage,exitsign,,,,,,,,,,,,0,26,26,41,,,,,,,,,,,,,,,,,,,,,,,,,,,,,,,,,,,354.73499689999994,355.73594389999994,355.71925309999983,356.28478369999993,356.28478369999993,None,357.7892889,None,left,1.7594366000000718,357.7892889,None,359.5730681,None,right,0.7355540000000929,359.5730681,None,,,,,,,,,,,,,,,,,,,,,,,PPT56,001,2022-07-15_13h59.26.567,ABstudy,2022.1.4,59.877908943638616,
AB,Lag5_T1P_T2P,5,P,P,7,12,6,4,16,Fireplace,Did you see the Fireplace?,0.12,0.016,JPG\,printer02,leaf02a,cauliflower01,sock01a,brownsugar,paintbrush01,fireplace,orange,belt02a,shirt02,key01,stapler01,cigarette,scissors01,envelope03a,blueberry01,blankImage,fireplace,,,,,,,,,,,,0,27,27,88,,,,,,,,,,,,,,,,,,,,,,,,,,,,,,,,,,,360.34067919999984,361.3414551999999,361.32460749999996,361.89223479999987,361.89223479999987,None,363.8894301,None,right,1.7067890999999236,363.8894301,None,365.62914479999995,None,left,0.334822400000121,365.62914479999995,None,,,,,,,,,,,,,,,,,,,,,,,PPT56,001,2022-07-15_13h59.26.567,ABstudy,2022.1.4,59.877908943638616,
AB,Lag5_T1A_T2P,5,A,P,6,11,5,5,16,bed,Did you see the bed?,0.12,0.016,JPG\,cellphone,tomato01,comb02a,candy,celery,cucumber,toaster01,fan,feather03a,pen04b,stapler03b,blueberry01,plate01b,cherry01,baseball01a,candle08b,blankImage,toolbox02,,,,,,,,,,,,0,28,28,274,,,,,,,,,,,,,,,,,,,,,,,,,,,,,,,,,,,365.99622709999994,366.99707549999994,366.980548,367.53916919999983,367.53916919999983,None,369.52817660000005,None,right,1.7797304000000622,369.52817660000005,None,371.3347896,None,left,0.20526330000006965,371.3347896,None,,,,,,,,,,,,,,,,,,,,,,,PPT56,001,2022-07-15_13h59.26.567,ABstudy,2022.1.4,59.877908943638616,
AB,Lag5_T1P_T2P,5,P,P,5,10,4,3,13,Rabbit,Did you see the Rabbit?,0.12,0.016,JPG\,celery,tennisball01b,calculator01,pear01,jackrabbit,orange,button01,cellphone,onion,stapler06,iron01b,brownsugar,banana01,blankImage,blankImage,blankImage,blankImage,jackrabbit,,,,,,,,,,,,0,29,29,90,,,,,,,,,,,,,,,,,,,,,,,,,,,,,,,,,,,371.5686538,372.56923429999983,372.55258389999995,373.11070529999984,373.11070529999984,None,374.7426338999999,None,left,0.9414813999999296,374.7426338999999,None,375.7058706999999,None,left,0.3700815000001967,375.7058706999999,None,,,,,,,,,,,,,,,,,,,,,,,PPT56,001,2022-07-15_13h59.26.567,ABstudy,2022.1.4,59.877908943638616,
AB,Lag1_T1P_T2P,1,P,P,7,8,6,4,12,rooster,Did you see the rooster?,0.12,0.016,JPG\,pizza,strawberry,potato02b,speaker04,battery02b,iron01b,rooster,stapler03b,globe,banana01,medal02b,baseball01a,blankImage,blankImage,blankImage,blankImage,blankImage,rooster,,,,,,,,,,,,0,30,30,69,,,,,,,,,,,,,,,,,,,,,,,,,,,,,,,,,,,376.10620829999993,377.10720560000004,377.0904404999999,377.6615388,377.6615388,None,379.1806753999999,None,left,1.2247102999999697,379.1806753999999,None,380.42718919999993,None,left,0.32051560000013524,380.42718919999993,None,,,,,,,,,,,,,,,,,,,,,,,PPT56,001,2022-07-15_13h59.26.567,ABstudy,2022.1.4,59.877908943638616,
AB,Lag5_T1P_T2P,5,P,P,6,11,5,4,15,shovel,Did you see the shovel?,0.12,0.016,JPG\,carrot01,watch02a,clock04,microscope,toiletpaper01a,shovel01,alligator,ring01,brick,watermelon01,stapler03b,pencil01,measuringcup01,balloon01b,computerkeyboard02,blankImage,blankImage,shovel01,,,,,,,,,,,,0,31,31,139,,,,,,,,,,,,,,,,,,,,,,,,,,,,,,,,,,,380.7775294999999,381.7785509999999,381.7617023999999,382.3232822,382.3232822,None,384.2008309,None,right,1.7949630000000525,384.2008309,None,386.01603750000004,None,left,0.3084690999999111,386.01603750000004,None,,,,,,,,,,,,,,,,,,,,,,,PPT56,001,2022-07-15_13h59.26.567,ABstudy,2022.1.4,59.877908943638616,
AB,Lag1_T1P_T2P,1,P,P,6,7,5,3,10,spider web,Did you see the spider web?,0.12,0.016,JPG\,toaster01,chain01,sponge01,baseball01a,carrot01,spiderweb,stapler03b,iron01b,grape01,brick,blankImage,blankImage,blankImage,blankImage,blankImage,blankImage,blankImage,spiderweb,,,,,,,,,,,,0,32,32,72,,,,,,,,,,,,,,,,,,,,,,,,,,,,,,,,,,,386.34969779999983,387.3508743,387.3340983999999,387.8997147,387.8997147,None,389.2412652999999,None,left,2.650927700000011,389.2412652999999,None,391.92211129999987,None,left,0.9539750999999796,391.92211129999987,None,,,,,,,,,,,,,,,,,,,,,,,PPT56,001,2022-07-15_13h59.26.567,ABstudy,2022.1.4,59.877908943638616,
AB,Lag5_T1P_T2P,5,P,P,6,11,5,4,15,fish,Did you see the fish?,0.12,0.016,JPG\,sock01a,spoon01,alligator,comb02a,printer02,rockbass,lamp04a,cymbal,greenolive,computerkeyboard02,stapler03a,scarf,teabag,watermelon01,battery02b,blankImage,blankImage,rockbass,,,,,,,,,,,,0,33,33,115,,,,,,,,,,,,,,,,,,,,,,,,,,,,,,,,,,,392.90619019999986,393.9071185,393.8906285999999,394.4574740999999,394.4574740999999,None,396.32025939999994,None,left,2.7316006000000925,396.32025939999994,None,399.07905800000003,None,left,0.35717460000000756,399.07905800000003,None,,,,,,,,,,,,,,,,,,,,,,,PPT56,001,2022-07-15_13h59.26.567,ABstudy,2022.1.4,59.877908943638616,
AB,Lag5_T1P_T2P,5,P,P,8,13,7,4,17,lamp,Did you see the lamp?,0.12,0.016,JPG\,globe,broccoli01a,binoculars01b,iron01b,avocado01,dandelion,pineapple01a,floorlamp,fan,pizza,celery,blueberry01,stapler01,dice05a,watermelon01,candy,blankImage,floorlamp,,,,,,,,,,,,0,34,34,99,,,,,,,,,,,,,,,,,,,,,,,,,,,,,,,,,,,399.4627820999999,400.4638385999999,400.44713619999993,401.01775469999984,401.01775469999984,None,403.00390560000005,None,left,1.6565124000001106,403.00390560000005,None,404.68460860000005,None,left,0.33489250000025095,404.68460860000005,None,,,,,,,,,,,,,,,,,,,,,,,PPT56,001,2022-07-15_13h59.26.567,ABstudy,2022.1.4,59.877908943638616,
AB,Lag5_T1P_T2P,5,P,P,6,11,5,5,16,motorcycle,Did you see the motorcycle?,0.12,0.016,JPG\,cucumber,ring01,lipstick02a,microscope,violin,motorcycle,celery,lighter01,cherry01,sewingmachine01a,stapler04b,key01,binoculars01b,medal02b,watermelon01,dice05a,blankImage,motorcycle,,,,,,,,,,,,0,35,35,93,,,,,,,,,,,,,,,,,,,,,,,,,,,,,,,,,,,405.0516473,406.0528271999999,406.0359289999999,406.5956214,406.5956214,None,408.6011177999999,None,left,1.1473935000001347,408.6011177999999,None,409.77316240000005,None,left,0.3272929000002023,409.77316240000005,None,,,,,,,,,,,,,,,,,,,,,,,PPT56,001,2022-07-15_13h59.26.567,ABstudy,2022.1.4,59.877908943638616,
AB,Lag5_T1P_T2A,5,P,A,8,13,7,5,18,Nunchuks,Did you see the Nunchuks?,0.12,0.016,JPG\,celery,tennisball01b,calculator01,pear01,screw02,orange,button01,nunchuk,onion,apple07,iron01b,brownsugar,banana01,paintbrush01,dandelion,toothbrush03b,blankImage,nunchuk,,,,,,,,,,,,0,36,36,218,,,,,,,,,,,,,,,,,,,,,,,,,,,,,,,,,,,410.17462479999995,411.17445399999997,411.1577763999999,411.71469030000003,411.71469030000003,None,413.6257347999999,None,left,1.2581111000001783,413.6257347999999,None,414.91149859999996,None,left,0.26792169999998805,414.91149859999996,None,,,,,,,,,,,,,,,,,,,,,,,PPT56,001,2022-07-15_13h59.26.567,ABstudy,2022.1.4,59.877908943638616,
AB,Lag5_T1A_T2P,5,A,P,5,10,4,5,15,Eye patch,Did you see the Eye patch?,0.12,0.016,JPG\,scissors01,balloon01b,eraser,feather03a,banana01,candle01,measuringcup01,calculator01,thermometer02b,stapler03b,pear01,carrot01,globe,baseball01a,leaf02a,blankImage,blankImage,cross01,,,,,,,,,,,,0,37,37,258,,,,,,,,,,,,,,,,,,,,,,,,,,,,,,,,,,,415.21170859999984,416.21278889999985,416.19626270000003,416.7499453999999,416.7499453999999,None,418.6101317,None,right,2.186126700000159,418.6101317,None,420.81738999999993,None,left,0.18658650000020316,420.81738999999993,None,,,,,,,,,,,,,,,,,,,,,,,PPT56,001,2022-07-15_13h59.26.567,ABstudy,2022.1.4,59.877908943638616,
AB,Lag5_T1A_T2P,5,A,P,7,12,6,5,17,Rollerblade,Did you see the Rollerblade?,0.12,0.016,JPG\,binoculars01b,cymbal,pizza,candy,paintbrush01,sponge01,grape01,thermometer02b,speaker04,lemon02,lipstick02a,stapler03b,candle01,8ball,plate01b,pen04b,blankImage,lion,,,,,,,,,,,,0,38,38,266,,,,,,,,,,,,,,,,,,,,,,,,,,,,,,,,,,,421.034232,422.0352912999999,422.0185919999999,422.5840582999999,422.5840582999999,None,424.53772860000004,None,right,2.9056554000001142,424.53772860000004,None,427.47400300000004,None,left,0.31355340000004617,427.47400300000004,None,,,,,,,,,,,,,,,,,,,,,,,PPT56,001,2022-07-15_13h59.26.567,ABstudy,2022.1.4,59.877908943638616,
AB,Lag5_T1P_T2P,5,P,P,8,13,7,5,18,bed,Did you see the bed?,0.12,0.016,JPG\,pencil01,broccoli01a,button01,sponge01,watermelon01,lipstick02a,comb02a,bed,lighter01,sock01a,spoon01,blueberry01,stapler04b,onion,grape01,avocado01,blankImage,bed,,,,,,,,,,,,0,39,39,124,,,,,,,,,,,,,,,,,,,,,,,,,,,,,,,,,,,427.8076048999999,428.8088123,428.7918901999999,429.34517089999986,429.34517089999986,None,431.36121690000004,None,right,1.5385438000000704,431.36121690000004,None,432.92956289999984,None,left,0.5222363000002588,432.92956289999984,None,,,,,,,,,,,,,,,,,,,,,,,PPT56,001,2022-07-15_13h59.26.567,ABstudy,2022.1.4,59.877908943638616,
AB,Lag1_T1P_T2P,1,P,P,7,8,6,4,12,cow,Did you see the cow?,0.12,0.016,JPG\,fork03c,plate01b,toiletpaper01a,greenolive,rice,blueberry01,cow,stapler01,envelope03a,orange,book01b,pencil01,blankImage,blankImage,blankImage,blankImage,blankImage,cow,,,,,,,,,,,,0,40,40,59,,,,,,,,,,,,,,,,,,,,,,,,,,,,,,,,,,,433.4800628999999,434.4809591999999,434.46435699999984,435.01682759999994,435.01682759999994,None,436.4990897,None,left,1.3050210000001243,436.4990897,None,437.83438049999995,None,left,0.3050676000000294,437.83438049999995,None,,,,,,,,,,,,,,,,,,,,,,,PPT56,001,2022-07-15_13h59.26.567,ABstudy,2022.1.4,59.877908943638616,
AB,Lag1_T1P_T2A,1,P,A,6,7,5,5,12,Tombstone,Did you see the Tombstone?,0.12,0.016,JPG\,cigarette,ashtray01,envelope03a,sandal,chain01,tombstone,broccoli01a,tomato01,dandelion,candle01,lemon02,button01,blankImage,blankImage,blankImage,blankImage,blankImage,tombstone,,,,,,,,,,,,0,41,41,196,,,,,,,,,,,,,,,,,,,,,,,,,,,,,,,,,,,438.1680345999998,439.1689873999999,439.15224850000004,439.70929809999984,439.70929809999984,None,441.1947656,None,right,1.625113100000135,441.1947656,None,442.8392925999999,None,right,0.4362894000000779,442.8392925999999,None,,,,,,,,,,,,,,,,,,,,,,,PPT56,001,2022-07-15_13h59.26.567,ABstudy,2022.1.4,59.877908943638616,
AB,Lag1_T1P_T2P,1,P,P,7,8,6,3,11,Daddy Long Legs,Did you see the Daddy Long Legs?,0.12,0.016,JPG\,lighter01,hammer01,spoon01,chain01,cymbal,sponge01,daddylonglegs,stapler03b,pig,watermelon01,cauliflower01,blankImage,blankImage,blankImage,blankImage,blankImage,blankImage,daddylonglegs,,,,,,,,,,,,0,42,42,86,,,,,,,,,,,,,,,,,,,,,,,,,,,,,,,,,,,443.30668079999987,444.30738569999994,444.29084339999986,444.85196139999994,444.85196139999994,None,446.24761149999995,None,left,2.075970500000267,446.24761149999995,None,448.34484180000004,None,left,0.387251200000037,448.34484180000004,None,,,,,,,,,,,,,,,,,,,,,,,PPT56,001,2022-07-15_13h59.26.567,ABstudy,2022.1.4,59.877908943638616,
AB,Lag1_T1A_T2A,1,A,A,8,9,7,3,12,punching bag,Did you see the punching bag?,0.12,0.016,JPG\,key01,apple07,ring01,leaf02a,hammer01,tableknife02,violin,sponge01,baseball01a,thermometer02b,celery,calculator01,blankImage,blankImage,blankImage,blankImage,blankImage,bathtub,,,,,,,,,,,,0,43,43,291,,,,,,,,,,,,,,,,,,,,,,,,,,,,,,,,,,,448.7619969,449.76304089999985,449.74618669999995,450.3054115,450.3054115,None,451.77469629999996,None,right,2.0689845000001696,451.77469629999996,None,453.8668143,None,right,0.28087249999998676,453.8668143,None,,,,,,,,,,,,,,,,,,,,,,,PPT56,001,2022-07-15_13h59.26.567,ABstudy,2022.1.4,59.877908943638616,
AB,Lag5_T1P_T2A,5,P,A,6,11,5,5,16,hat,Did you see the hat?,0.12,0.016,JPG\,apple07,toiletpaper01a,pizza,dandelion,greenolive,pilgrimhat,microscope,violin,orange,lipstick02a,balloon01b,sandal,lighter01,fan,book01b,sewingmachine01a,blankImage,pilgrimhat,,,,,,,,,,,,0,44,44,206,,,,,,,,,,,,,,,,,,,,,,,,,,,,,,,,,,,454.1674430999999,455.16819169999985,455.1516102999999,455.7201381,455.7201381,None,457.7894661,None,right,2.790051200000107,457.7894661,None,460.6069929999999,None,right,0.46086620000005496,460.6069929999999,None,,,,,,,,,,,,,,,,,,,,,,,PPT56,001,2022-07-15_13h59.26.567,ABstudy,2022.1.4,59.877908943638616,
AB,Lag1_T1P_T2P,1,P,P,6,7,5,5,12,Snowboard,Did you see the Snowboard?,0.12,0.016,JPG\,belt02a,measuringcup01,spoon01,chain01,greenolive,snowboard,stapler01,onion,fan,strawberry,candle01,broom01,blankImage,blankImage,blankImage,blankImage,blankImage,snowboard,,,,,,,,,,,,0,45,45,49,,,,,,,,,,,,,,,,,,,,,,,,,,,,,,,,,,,461.09092769999984,462.09190020000005,462.0751309,462.6319831999999,462.6319831999999,None,464.1418613999999,None,right,1.9653647000000092,464.1418613999999,None,466.1290830999999,None,left,0.21194720000016787,466.1290830999999,None,,,,,,,,,,,,,,,,,,,,,,,PPT56,001,2022-07-15_13h59.26.567,ABstudy,2022.1.4,59.877908943638616,
AB,Lag1_T1P_T2P,1,P,P,5,6,4,3,9,Escalator,Did you see the Escalator?,0.12,0.016,JPG\,celery,pencil01,fan,foosballtable,escalator,stapler05,potato02b,fork03c,button01,blankImage,blankImage,blankImage,blankImage,blankImage,blankImage,blankImage,blankImage,escalator,,,,,,,,,,,,0,46,46,82,,,,,,,,,,,,,,,,,,,,,,,,,,,,,,,,,,,466.36278449999986,467.3636850999999,467.3471202999999,467.9063082,467.9063082,None,469.04380709999987,None,left,2.079517899999928,469.04380709999987,None,471.15088059999994,None,left,0.39651100000014594,471.15088059999994,None,,,,,,,,,,,,,,,,,,,,,,,PPT56,001,2022-07-15_13h59.26.567,ABstudy,2022.1.4,59.877908943638616,
AB,Lag1_T1P_T2P,1,P,P,5,6,4,5,11,shark,Did you see the shark?,0.12,0.016,JPG\,cucumber,sponge01,alligator,pear01,greatwhiteshark,stapler06,clock04,battery02b,fork03c,binoculars01b,mushroom01,blankImage,blankImage,blankImage,blankImage,blankImage,blankImage,greatwhiteshark,,,,,,,,,,,,0,47,47,84,,,,,,,,,,,,,,,,,,,,,,,,,,,,,,,,,,,471.56800380000004,472.56901100000005,472.5521094999999,473.11428920000003,473.11428920000003,None,474.4586912,None,left,1.224685000000136,474.4586912,None,475.70531729999993,None,left,0.6585375000001932,475.70531729999993,None,,,,,,,,,,,,,,,,,,,,,,,PPT56,001,2022-07-15_13h59.26.567,ABstudy,2022.1.4,59.877908943638616,
AB,Lag1_T1P_T2A,1,P,A,6,7,5,3,10,Dragon fly,Did you see the Dragon fly?,0.12,0.016,JPG\,leaf02a,pear01,measuringcup01,cigarette,fan,dragonfly01,teabag,tableknife02,ring01,pencil01,blankImage,blankImage,blankImage,blankImage,blankImage,blankImage,blankImage,dragonfly01,,,,,,,,,,,,0,48,48,185,,,,,,,,,,,,,,,,,,,,,,,,,,,,,,,,,,,476.38947669999993,477.3902421999999,477.37382720000005,477.9304625999998,477.9304625999998,None,479.1570136999999,None,left,1.5751874000000043,479.1570136999999,None,480.7604251,None,right,0.7233218999999735,480.7604251,None,,,,,,,,,,,,,,,,,,,,,,,PPT56,001,2022-07-15_13h59.26.567,ABstudy,2022.1.4,59.877908943638616,
AB,Lag5_T1P_T2A,5,P,A,7,12,6,5,17,flower,Did you see the flower?,0.12,0.016,JPG\,cellphone,tomato01,comb02a,candy,celery,cucumber,craneflower,fan,feather03a,pen04b,lemon02,blueberry01,plate01b,cherry01,baseball01a,candle08b,blankImage,craneflower,,,,,,,,,,,,0,49,49,211,,,,,,,,,,,,,,,,,,,,,,,,,,,,,,,,,,,481.5111887999999,482.51209849999987,482.49555009999995,483.0557122,483.0557122,None,485.03303159999996,None,left,2.1470518999999513,485.03303159999996,None,487.20006220000005,None,right,1.2998727000001509,487.20006220000005,None,,,,,,,,,,,,,,,,,,,,,,,PPT56,001,2022-07-15_13h59.26.567,ABstudy,2022.1.4,59.877908943638616,
AB,Lag5_T1P_T2A,5,P,A,7,12,6,3,15,Toy soldier,Did you see the Toy soldier?,0.12,0.016,JPG\,binoculars01b,cymbal,pizza,candy,paintbrush01,sponge01,toysoldier01b,thermometer02b,speaker04,lemon02,lipstick02a,strawberry,candle01,acorn,plate01b,blankImage,blankImage,toysoldier01b,,,,,,,,,,,,0,50,50,203,,,,,,,,,,,,,,,,,,,,,,,,,,,,,,,,,,,488.51810950000004,489.51921649999986,489.50248469999997,490.0690712999999,490.0690712999999,None,491.90686000000005,None,left,1.4890116000001399,491.90686000000005,None,493.42282550000004,None,right,1.052469199999905,493.42282550000004,None,,,,,,,,,,,,,,,,,,,,,,,PPT56,001,2022-07-15_13h59.26.567,ABstudy,2022.1.4,59.877908943638616,
AB,Lag5_T1A_T2P,5,A,P,6,11,5,3,14,Kiwi,Did you see the Kiwi?,0.12,0.016,JPG\,paintbrush01,dice05a,watermelon01,broccoli01a,hammer01,leaf02a,match,tennisball01b,lemon02,fan,stapler06,grape01,envelope03a,sponge01,blankImage,blankImage,blankImage,granolabar01,,,,,,,,,,,,0,51,51,261,,,,,,,,,,,,,,,,,,,,,,,,,,,,,,,,,,,494.50754340000003,495.50855349999983,495.49165589999984,496.0467885999999,496.0467885999999,None,497.7674921999999,None,left,1.4766136000000643,497.7674921999999,None,499.2620588,None,left,0.25322639999990315,499.2620588,None,,,,,,,,,,,,,,,,,,,,,,,PPT56,001,2022-07-15_13h59.26.567,ABstudy,2022.1.4,59.877908943638616,
AB,Lag1_T1A_T2A,1,A,A,8,9,7,5,14,Ping pong Table,Did you see the Ping pong Table?,0.12,0.016,JPG\,pineapple01a,tennisball01b,computerkeyboard02,feather03a,belt02a,acorn,violin,blueberry01,medal02b,alligator,greenolive,screwdriver04b,potato02b,fork03c,blankImage,blankImage,blankImage,statue,,,,,,,,,,,,0,52,52,287,,,,,,,,,,,,,,,,,,,,,,,,,,,,,,,,,,,499.5882417,500.5969327,500.58024209999985,501.13992669999993,501.13992669999993,None,502.8242785,None,right,1.5473956999999245,502.8242785,None,504.40119989999994,None,right,1.9302999999999884,504.40119989999994,None,,,,,,,,,,,,,,,,,,,,,,,PPT56,001,2022-07-15_13h59.26.567,ABstudy,2022.1.4,59.877908943638616,
AB,Lag5_T1A_T2P,5,A,P,6,11,5,4,15,fish,Did you see the fish?,0.12,0.016,JPG\,pingpongpaddle01c,banana01,scissors01,pig,shirt02,leaf02a,pear01,sponge01,fork03c,tableknife02,stapler03a,match,toothbrush03b,birthdaycandle,candle01,blankImage,blankImage,lighthouse,,,,,,,,,,,,0,53,53,265,,,,,,,,,,,,,,,,,,,,,,,,,,,,,,,,,,,506.3525348999999,507.35346189999996,507.33699720000004,507.9045057999999,507.9045057999999,None,509.8010924,None,right,1.6515024999998786,509.8010924,None,511.4744046999999,None,left,1.433026300000165,511.4744046999999,None,,,,,,,,,,,,,,,,,,,,,,,PPT56,001,2022-07-15_13h59.26.567,ABstudy,2022.1.4,59.877908943638616,
AB,Lag1_T1P_T2P,1,P,P,7,8,6,3,11,trampoline,Did you see the trampoline?,0.12,0.016,JPG\,dice05a,watch02a,pig,lighter01,button01,strawberry,trampoline,stapler03a,plate01b,pen04b,feather03a,blankImage,blankImage,blankImage,blankImage,blankImage,blankImage,trampoline,,,,,,,,,,,,0,54,54,73,,,,,,,,,,,,,,,,,,,,,,,,,,,,,,,,,,,512.9254951999999,513.9264229999999,513.9100060999999,514.4703810999999,514.4703810999999,None,515.8446472999999,None,left,1.1191246999999294,515.8446472999999,None,516.9965686,None,left,0.26301180000018576,516.9965686,None,,,,,,,,,,,,,,,,,,,,,,,PPT56,001,2022-07-15_13h59.26.567,ABstudy,2022.1.4,59.877908943638616,
AB,Lag1_T1P_T2A,1,P,A,7,8,6,3,11,fish,Did you see the fish?,0.12,0.016,JPG\,rice,watermelon01,tableknife02,scarf,computerkeyboard02,cauliflower01,salmon,binoculars01b,book01b,sandal,sponge01,blankImage,blankImage,blankImage,blankImage,blankImage,blankImage,salmon,,,,,,,,,,,,0,55,55,179,,,,,,,,,,,,,,,,,,,,,,,,,,,,,,,,,,,517.2802491999998,518.2811294999999,518.2644929999999,518.8226854,518.8226854,None,520.2414511,None,left,1.0102211999999327,520.2414511,None,521.2840899999999,None,left,0.26377309999998033,521.2840899999999,None,,,,,,,,,,,,,,,,,,,,,,,PPT56,001,2022-07-15_13h59.26.567,ABstudy,2022.1.4,59.877908943638616,
AB,Lag5_T1P_T2A,5,P,A,5,10,4,3,13,Totem Pole,Did you see the Totem Pole?,0.12,0.016,JPG\,canoftennisballs,banana01,scissors01,pig,totempole,leaf02a,pear01,sponge01,fork03c,tableknife02,balloon01b,match,toothbrush03b,blankImage,blankImage,blankImage,blankImage,totempole,,,,,,,,,,,,0,56,56,202,,,,,,,,,,,,,,,,,,,,,,,,,,,,,,,,,,,521.5677791999999,522.5687283,522.5519741,523.1116479999998,523.1116479999998,None,524.7455361,None,left,1.113630700000158,524.7455361,None,525.8886877,None,right,0.6522672999999486,525.8886877,None,,,,,,,,,,,,,,,,,,,,,,,PPT56,001,2022-07-15_13h59.26.567,ABstudy,2022.1.4,59.877908943638616,
AB,Lag1_T1P_T2P,1,P,P,5,6,4,5,11,Basketball,Did you see the Basketball?,0.12,0.016,JPG\,pencil01,microscope,banana01,computerkeyboard02,basketball01,stapler04b,scissors01,sock01a,book01b,onion,dice05a,blankImage,blankImage,blankImage,blankImage,blankImage,blankImage,basketball01,,,,,,,,,,,,0,57,57,34,,,,,,,,,,,,,,,,,,,,,,,,,,,,,,,,,,,526.6044003,527.6070912999999,527.5903553999999,528.1459123,528.1459123,None,529.495379,None,left,0.9961380000002009,529.495379,None,530.5100130999999,None,left,0.26136510000014823,530.5100130999999,None,,,,,,,,,,,,,,,,,,,,,,,PPT56,001,2022-07-15_13h59.26.567,ABstudy,2022.1.4,59.877908943638616,
AB,Lag1_T1P_T2P,1,P,P,8,9,7,5,14,helicopter,Did you see the helicopter?,0.12,0.016,JPG\,broom01,globe,cellphone,tableknife02,cauliflower01,scissors01,ring01,helicopter,stapler01,toaster01,cigarette,grape01,microscope,cucumber,blankImage,blankImage,blankImage,helicopter,,,,,,,,,,,,0,58,58,85,,,,,,,,,,,,,,,,,,,,,,,,,,,,,,,,,,,530.7935937,531.7946270999998,531.7778151999998,532.3326771,532.3326771,None,534.1406920999998,None,left,0.8471922000001086,534.1406920999998,None,535.0145306999998,None,left,0.2370477000001756,535.0145306999998,None,,,,,,,,,,,,,,,,,,,,,,,PPT56,001,2022-07-15_13h59.26.567,ABstudy,2022.1.4,59.877908943638616,
AB,Lag1_T1P_T2P,1,P,P,7,8,6,5,13,disco ball,Did you see the disco ball?,0.12,0.016,JPG\,candle01,paintbrush01,scissors01,fan,microscope,toothbrush03b,discoball,stapler03b,teabag,pencil01,lemon02,ashtray01,shirt02,blankImage,blankImage,blankImage,blankImage,discoball,,,,,,,,,,,,0,59,59,60,,,,,,,,,,,,,,,,,,,,,,,,,,,,,,,,,,,535.2815182999998,536.2822885999999,536.2657315000001,536.8218677999998,536.8218677999998,None,538.4785354999999,None,left,1.1965405000003102,538.4785354999999,None,539.7023389999999,None,left,2.030186400000048,539.7023389999999,None,,,,,,,,,,,,,,,,,,,,,,,PPT56,001,2022-07-15_13h59.26.567,ABstudy,2022.1.4,59.877908943638616,
AB,Lag5_T1A_T2A,5,A,A,5,10,4,5,15,sword,Did you see the sword?,0.12,0.016,JPG\,pencil01,broccoli01a,button01,sponge01,watermelon01,lipstick02a,comb02a,fan,lighter01,sock01a,spoon01,blueberry01,belt02a,onion,grape01,blankImage,blankImage,parachute,,,,,,,,,,,,0,60,60,298,,,,,,,,,,,,,,,,,,,,,,,,,,,,,,,,,,,541.7546321999998,542.7555097,542.7386965999999,543.2923483,543.2923483,None,545.2093276999999,None,right,1.2025795000001835,545.2093276999999,None,546.4425071999999,None,right,0.25693440000009105,546.4425071999999,None,,,,,,,,,,,,,,,,,,,,,,,PPT56,001,2022-07-15_13h59.26.567,ABstudy,2022.1.4,59.877908943638616,
AB,Lag1_T1P_T2P,1,P,P,8,9,7,4,13,Hula hoop,Did you see the Hula hoop?,0.12,0.016,JPG\,brownsugar,candle01,match,printer02,broom01,balloon01b,belt02a,hulahoop,stapler04b,feather03a,rice,mushroom01,pencil01,blankImage,blankImage,blankImage,blankImage,hulahoop,,,,,,,,,,,,0,61,61,64,,,,,,,,,,,,,,,,,,,,,,,,,,,,,,,,,,,546.7261942999999,547.7270399999998,547.7103471,548.2108272,548.2108272,None,549.8592324000001,None,left,3.5198299000001043,549.8592324000001,None,553.3996121,None,left,0.38909609999996064,553.3996121,None,,,,,,,,,,,,,,,,,,,,,,,PPT56,001,2022-07-15_13h59.26.567,ABstudy,2022.1.4,59.877908943638616,
AB,Lag1_T1P_T2A,1,P,A,6,7,5,5,12,foot,Did you see the foot?,0.12,0.016,JPG\,watermelon01,cigarette,weight04a,cymbal,cauliflower01,foot,cherry01,broom01,battery02b,key01,baseball01a,iron01b,blankImage,blankImage,blankImage,blankImage,blankImage,foot,,,,,,,,,,,,0,62,62,188,,,,,,,,,,,,,,,,,,,,,,,,,,,,,,,,,,,553.8165325999998,554.8174657999998,554.8007803,555.3709761999999,555.3709761999999,None,556.8787007000001,None,left,1.3885082999997849,556.8787007000001,None,558.2876187000002,None,right,1.5404273999999987,558.2876187000002,None,,,,,,,,,,,,,,,,,,,,,,,PPT56,001,2022-07-15_13h59.26.567,ABstudy,2022.1.4,59.877908943638616,
AB,Lag5_T1P_T2A,5,P,A,8,13,7,4,17,Tarantula,Did you see the Tarantula?,0.12,0.016,JPG\,binoculars01b,speaker04,sandal,envelope03a,plate01b,comb02a,battery02b,tarantula,measuringcup01,key01,medal02b,lamp04a,tennisball01b,pizza,cigarette,sunglasses04,blankImage,tarantula,,,,,,,,,,,,0,63,63,201,,,,,,,,,,,,,,,,,,,,,,,,,,,,,,,,,,,559.8556119,560.8568013999998,560.8401903999998,561.4080739000001,561.4080739000001,None,563.3366055000001,None,left,1.4429327000000285,563.3366055000001,None,564.8106939999998,None,right,0.8810439000001224,564.8106939999998,None,,,,,,,,,,,,,,,,,,,,,,,PPT56,001,2022-07-15_13h59.26.567,ABstudy,2022.1.4,59.877908943638616,
AB,Lag5_T1P_T2P,5,P,P,6,11,5,3,14,shower head,Did you see the shower head?,0.12,0.016,JPG\,belt02a,measuringcup01,spoon01,chain01,greenolive,showerhead01,computerkeyboard02,onion,fan,strawberry,stapler01,broom01,binoculars01b,ashtray01,blankImage,blankImage,blankImage,showerhead01,,,,,,,,,,,,0,64,64,98,,,,,,,,,,,,,,,,,,,,,,,,,,,,,,,,,,,565.7594964999998,566.7627419999999,566.7459398999999,567.3068697999997,567.3068697999997,None,569.0221376999998,None,left,0.6931675000002997,569.0221376999998,None,569.7322985000001,None,left,0.35861129999989316,569.7322985000001,None,,,,,,,,,,,,,,,,,,,,,,,PPT56,001,2022-07-15_13h59.26.567,ABstudy,2022.1.4,59.877908943638616,
AB,Lag5_T1P_T2A,5,P,A,8,13,7,3,16,Shelves,Did you see the Shelves?,0.12,0.016,JPG\,pineapple01a,leaf02a,grape01,toiletpaper01a,match,tennisball01b,spoon01,shelves,pig,measuringcup01,ring01,lemon02,dice05a,pizza,potato02b,eraser,blankImage,shelves,,,,,,,,,,,,0,65,65,222,,,,,,,,,,,,,,,,,,,,,,,,,,,,,,,,,,,570.1161179999999,571.1170748999998,571.1003903000001,571.6621067000001,571.6621067000001,None,573.7185218999998,None,right,1.1572570000000724,573.7185218999998,None,574.9043035999998,None,right,0.45064909999996416,574.9043035999998,None,,,,,,,,,,,,,,,,,,,,,,,PPT56,001,2022-07-15_13h59.26.567,ABstudy,2022.1.4,59.877908943638616,
AB,Lag1_T1P_T2P,1,P,P,8,9,7,4,13,bowling ball,Did you see the bowling ball?,0.12,0.016,JPG\,dandelion,pineapple01a,broom01,pen04b,sock01a,sandal,foosballtable,bowlingball,stapler01,toothbrush03b,celery,candle08b,tennisball01b,blankImage,blankImage,blankImage,blankImage,bowlingball,,,,,,,,,,,,0,66,66,7,,,,,,,,,,,,,,,,,,,,,,,,,,,,,,,,,,,575.3878556,576.3889187,576.3723903,576.8729534999998,576.8729534999998,None,578.5445826999999,None,left,1.475368600000138,578.5445826999999,None,580.0426690999998,None,left,0.2811792000004516,580.0426690999998,None,,,,,,,,,,,,,,,,,,,,,,,PPT56,001,2022-07-15_13h59.26.567,ABstudy,2022.1.4,59.877908943638616,
AB,Lag5_T1P_T2P,5,P,P,5,10,4,5,15,baseball bat,Did you see the baseball bat?,0.12,0.016,JPG\,pizza,printer02,medal02b,spoon01,baseballbat,lighter01,belt02a,watermelon01,celery,stapler04b,screw02,comb02a,cauliflower01,lipstick02a,potato02b,blankImage,blankImage,baseballbat,,,,,,,,,,,,0,67,67,123,,,,,,,,,,,,,,,,,,,,,,,,,,,,,,,,,,,580.3428184999998,581.3439508000001,581.3272830000001,581.8984332,581.8984332,None,583.7829653999997,None,left,1.4998962000001939,583.7829653999997,None,585.3145884999999,None,left,1.680480000000216,585.3145884999999,None,,,,,,,,,,,,,,,,,,,,,,,PPT56,001,2022-07-15_13h59.26.567,ABstudy,2022.1.4,59.877908943638616,
AB,Lag5_T1P_T2A,5,P,A,6,11,5,4,15,Spear,Did you see the Spear?,0.12,0.016,JPG\,belt02a,measuringcup01,spoon01,chain01,greenolive,spear02,computerkeyboard02,onion,fan,strawberry,candle01,broom01,binoculars01b,ashtray01,pingpongpaddle01c,blankImage,blankImage,spear02,,,,,,,,,,,,0,68,68,227,,,,,,,,,,,,,,,,,,,,,,,,,,,,,,,,,,,587.0162614000001,588.0172266999998,588.0006113999998,588.5596212999999,588.5596212999999,None,590.3913247,None,left,3.099589700000024,590.3913247,None,593.5227642999998,None,right,0.3368521999998393,593.5227642999998,None,,,,,,,,,,,,,,,,,,,,,,,PPT56,001,2022-07-15_13h59.26.567,ABstudy,2022.1.4,59.877908943638616,
AB,Lag5_T1A_T2P,5,A,P,5,10,4,3,13,flower,Did you see the flower?,0.12,0.016,JPG\,cucumber,ring01,lipstick02a,microscope,violin,garlic01a,celery,lighter01,cherry01,stapler03a,belt02a,key01,binoculars01b,blankImage,blankImage,blankImage,blankImage,christmastree,,,,,,,,,,,,0,69,69,284,,,,,,,,,,,,,,,,,,,,,,,,,,,,,,,,,,,593.9409022,594.9408500999998,594.9241124,595.4796683,595.4796683,None,597.0844059000001,None,right,1.422439500000337,597.0844059000001,None,598.5277302,None,left,0.2922817999999552,598.5277302,None,,,,,,,,,,,,,,,,,,,,,,,PPT56,001,2022-07-15_13h59.26.567,ABstudy,2022.1.4,59.877908943638616,
AB,Lag5_T1P_T2A,5,P,A,5,10,4,3,13,pin,Did you see the pin?,0.12,0.016,JPG\,candle01,fork03c,plate01b,violin,pin,candy,calculator01,paintbrush01,cherry01,sock01a,teabag,banana01,cd,blankImage,blankImage,blankImage,blankImage,pin,,,,,,,,,,,,0,70,70,215,,,,,,,,,,,,,,,,,,,,,,,,,,,,,,,,,,,598.8446918999998,599.8455616000001,599.8291759999997,600.3847050999998,600.3847050999998,None,602.0134601,None,right,1.5338242000000264,602.0134601,None,603.5660904000001,None,right,0.3812380000001667,603.5660904000001,None,,,,,,,,,,,,,,,,,,,,,,,PPT56,001,2022-07-15_13h59.26.567,ABstudy,2022.1.4,59.877908943638616,
AB,Lag1_T1P_T2P,1,P,P,5,6,4,5,11,squirrel,Did you see the squirrel?,0.12,0.016,JPG\,pencil01,orange,clock01a,sponge01,squirrel,stapler05,lipstick02a,strawberry,book01b,mushroom01,envelope03a,blankImage,blankImage,blankImage,blankImage,blankImage,blankImage,squirrel,,,,,,,,,,,,0,71,71,5,,,,,,,,,,,,,,,,,,,,,,,,,,,,,,,,,,,604.0237486000001,605.0341251,605.0174158,605.5694558,605.5694558,None,606.9048388000001,None,left,1.3227966000001743,606.9048388000001,None,608.2541063999997,None,right,0.8617826000001969,608.2541063999997,None,,,,,,,,,,,,,,,,,,,,,,,PPT56,001,2022-07-15_13h59.26.567,ABstudy,2022.1.4,59.877908943638616,
AB,Lag1_T1P_T2P,1,P,P,8,9,7,4,13,peacock,Did you see the peacock?,0.12,0.016,JPG\,hammer01,sponge01,toaster01,cherry01,feather03a,mushroom01,measuringcup01,peacock,stapler03a,brick,clock04,medal02b,teabag,blankImage,blankImage,blankImage,blankImage,peacock,,,,,,,,,,,,0,72,72,68,,,,,,,,,,,,,,,,,,,,,,,,,,,,,,,,,,,609.1387011000002,610.1392308,610.1225887999999,610.6776187,610.6776187,None,612.3628057999999,None,left,0.7044485000003533,612.3628057999999,None,613.0920701999999,None,left,0.3829991999998583,613.0920701999999,None,,,,,,,,,,,,,,,,,,,,,,,PPT56,001,2022-07-15_13h59.26.567,ABstudy,2022.1.4,59.877908943638616,
AB,Lag1_T1P_T2P,1,P,P,7,8,6,3,11,tree,Did you see the tree?,0.12,0.016,JPG\,pear01,clock01a,cymbal,match,ashtray01,globe,tree,stapler03b,lemon02,pen04b,dice05a,blankImage,blankImage,blankImage,blankImage,blankImage,blankImage,tree,,,,,,,,,,,,0,73,73,51,,,,,,,,,,,,,,,,,,,,,,,,,,,,,,,,,,,613.4926059,614.4934622000001,614.4770490000001,615.0356969999998,615.0356969999998,None,616.4351763,None,left,1.2481301000004805,616.4351763,None,617.713362,None,right,0.6899956999998267,617.713362,None,,,,,,,,,,,,,,,,,,,,,,,PPT56,001,2022-07-15_13h59.26.567,ABstudy,2022.1.4,59.877908943638616,
AB,Lag1_T1A_T2A,1,A,A,5,6,4,3,9,Pigeon,Did you see the Pigeon?,0.12,0.016,JPG\,candle01,paintbrush01,scissors01,fan,microscope,toothbrush03b,candle08b,watermelon01,teabag,blankImage,blankImage,blankImage,blankImage,blankImage,blankImage,blankImage,blankImage,floorlamp,,,,,,,,,,,,0,74,74,286,,,,,,,,,,,,,,,,,,,,,,,,,,,,,,,,,,,618.4309570999999,619.4319777999999,619.4152396,619.9697808999999,619.9697808999999,None,621.1514674,None,right,1.379824900000358,621.1514674,None,622.5515620000001,None,right,0.5791625000003933,622.5515620000001,None,,,,,,,,,,,,,,,,,,,,,,,PPT56,001,2022-07-15_13h59.26.567,ABstudy,2022.1.4,59.877908943638616,
AB,Lag5_T1A_T2A,5,A,A,6,11,5,3,14,mirror,Did you see the mirror?,0.12,0.016,JPG\,foosballtable,candy,envelope03a,microscope,pencil01,leaf02a,scissors01,watermelon01,grape01,dandelion,pineapple01a,hammer01,celery,thermometer02b,blankImage,blankImage,blankImage,shower,,,,,,,,,,,,0,75,75,305,,,,,,,,,,,,,,,,,,,,,,,,,,,,,,,,,,,623.1522639999998,624.1532253,624.136755,624.6369899000001,624.6369899000001,None,626.4442602999998,None,right,1.783090100000436,626.4442602999998,None,628.2572175999999,None,right,0.6820588000002772,628.2572175999999,None,,,,,,,,,,,,,,,,,,,,,,,PPT56,001,2022-07-15_13h59.26.567,ABstudy,2022.1.4,59.877908943638616,
AB,Lag5_T1P_T2P,5,P,P,8,13,7,3,16,shrimp,Did you see the shrimp?,0.12,0.016,JPG\,globe,belt02a,sponge01,violin,fork03c,tomato01,clock01a,cocktailshrimp02,balloon01b,scarf,teabag,pen04b,stapler03a,brownsugar,speaker04,screwdriver04b,blankImage,cocktailshrimp02,,,,,,,,,,,,0,76,76,169,,,,,,,,,,,,,,,,,,,,,,,,,,,,,,,,,,,628.9580354,629.9589345999998,629.9424681999999,630.5147735,630.5147735,None,632.4999942999998,None,left,1.3748142000001735,632.4999942999998,None,633.8963435999999,None,right,0.8115881000001082,633.8963435999999,None,,,,,,,,,,,,,,,,,,,,,,,PPT56,001,2022-07-15_13h59.26.567,ABstudy,2022.1.4,59.877908943638616,
AB,Lag1_T1A_T2P,1,A,P,5,6,4,3,9,barrel,Did you see the barrel?,0.12,0.016,JPG\,clock01a,cellphone,toaster01,toothbrush03b,cauliflower01,stapler01,comb02a,paintbrush01,scarf,blankImage,blankImage,blankImage,blankImage,blankImage,blankImage,blankImage,blankImage,sheep,,,,,,,,,,,,0,77,77,243,,,,,,,,,,,,,,,,,,,,,,,,,,,,,,,,,,,634.7305508,635.7313601000001,635.7147556,636.2804323,636.2804323,None,637.4334991000001,None,right,1.6740190000002713,637.4334991000001,None,639.1346991,None,right,1.0293613000001187,639.1346991,None,,,,,,,,,,,,,,,,,,,,,,,PPT56,001,2022-07-15_13h59.26.567,ABstudy,2022.1.4,59.877908943638616,
AB,Lag1_T1P_T2A,1,P,A,5,6,4,4,10,bird,Did you see the bird?,0.12,0.016,JPG\,toaster01,scarf,toiletpaper01a,calculator01,swallow,sewingmachine01a,fan,teabag,strawberry,balloon01b,blankImage,blankImage,blankImage,blankImage,blankImage,blankImage,blankImage,swallow,,,,,,,,,,,,0,78,78,195,,,,,,,,,,,,,,,,,,,,,,,,,,,,,,,,,,,640.1858538000001,641.1869032999998,641.1701815000001,641.7380017999999,641.7380017999999,None,643.0923453999999,None,right,2.455579599999737,643.0923453999999,None,645.5746069000002,None,right,0.6688936999996713,645.5746069000002,None,,,,,,,,,,,,,,,,,,,,,,,PPT56,001,2022-07-15_13h59.26.567,ABstudy,2022.1.4,59.877908943638616,
AB,Lag1_T1A_T2P,1,A,P,8,9,7,4,13,Fireplace,Did you see the Fireplace?,0.12,0.016,JPG\,scissors01,ashtray01,garlic01a,medal02b,cigarette,candle08b,leaf02a,envelope03a,stapler06,rice,toiletpaper01a,greenolive,cymbal,blankImage,blankImage,blankImage,blankImage,dartboard,,,,,,,,,,,,0,79,79,252,,,,,,,,,,,,,,,,,,,,,,,,,,,,,,,,,,,646.2753417999998,647.2762109,647.2596536000001,647.8158242999998,647.8158242999998,None,649.3450871999999,None,right,2.945932099999709,649.3450871999999,None,652.3146868999997,None,right,0.8804300000003877,652.3146868999997,None,,,,,,,,,,,,,,,,,,,,,,,PPT56,001,2022-07-15_13h59.26.567,ABstudy,2022.1.4,59.877908943638616,
AB,Lag5_T1P_T2P,5,P,P,6,11,5,4,15,sword,Did you see the sword?,0.12,0.016,JPG\,8ball,banana01,scissors01,pig,shirt02,broadsword,pear01,sponge01,fork03c,tableknife02,stapler06,match,toothbrush03b,birthdaycandle,candle01,blankImage,blankImage,broadsword,,,,,,,,,,,,0,80,80,167,,,,,,,,,,,,,,,,,,,,,,,,,,,,,,,,,,,653.2156442,654.2165206999998,654.1998340999999,654.7684813000001,654.7684813000001,None,656.5975545000001,None,right,1.3895794000002297,656.5975545000001,None,658.0035592999998,None,right,0.5280936000001475,658.0035592999998,None,,,,,,,,,,,,,,,,,,,,,,,PPT56,001,2022-07-15_13h59.26.567,ABstudy,2022.1.4,59.877908943638616,
AB,Lag5_T1A_T2P,5,A,P,5,10,4,5,15,parachute,Did you see the parachute?,0.12,0.016,JPG\,binoculars01b,speaker04,sandal,envelope03a,plate01b,comb02a,battery02b,chain01,measuringcup01,stapler03b,medal02b,lamp04a,tennisball01b,pizza,cigarette,blankImage,blankImage,knee,,,,,,,,,,,,0,81,81,264,,,,,,,,,,,,,,,,,,,,,,,,,,,,,,,,,,,658.5542422999997,659.555128,659.5384454999999,660.1043687000001,660.1043687000001,None,661.9103424,None,right,1.5657816000000366,661.9103424,None,663.5091493999998,None,left,0.5501719000001231,663.5091493999998,None,,,,,,,,,,,,,,,,,,,,,,,PPT56,001,2022-07-15_13h59.26.567,ABstudy,2022.1.4,59.877908943638616,
AB,Lag5_T1P_T2A,5,P,A,5,10,4,4,14,rocket,Did you see the rocket?,0.12,0.016,JPG\,fan,tomato01,candy,screwdriver04b,spacerocket,cd,thermometer02b,apple07,button01,plate01b,brownsugar,lighter01,clock01a,envelope03a,blankImage,blankImage,blankImage,spacerocket,,,,,,,,,,,,0,82,82,226,,,,,,,,,,,,,,,,,,,,,,,,,,,,,,,,,,,664.1261126999998,665.1273412,665.1106879999998,665.6722688999998,665.6722688999998,None,667.3740668,None,left,1.2371928000000025,667.3740668,None,668.6308260999999,None,right,0.7244074000002456,668.6308260999999,None,,,,,,,,,,,,,,,,,,,,,,,PPT56,001,2022-07-15_13h59.26.567,ABstudy,2022.1.4,59.877908943638616,
AB,Lag5_T1P_T2A,5,P,A,7,12,6,3,15,helmet,Did you see the helmet?,0.12,0.016,JPG\,fork03c,belt02a,grape01,computerkeyboard02,lemon02,printer02,skihelmet01,toiletpaper01a,toaster01,lipstick02a,book01b,blueberry01,spoon01,apple07,avocado01,blankImage,blankImage,skihelmet01,,,,,,,,,,,,0,83,83,225,,,,,,,,,,,,,,,,,,,,,,,,,,,,,,,,,,,669.3816480999999,670.3824639999998,670.3659376,670.9195046999998,670.9195046999998,None,672.7897660999997,None,left,1.405814699999837,672.7897660999997,None,674.2195391,None,right,0.7596215000000939,674.2195391,None,,,,,,,,,,,,,,,,,,,,,,,PPT56,001,2022-07-15_13h59.26.567,ABstudy,2022.1.4,59.877908943638616,
AB,Lag5_T1P_T2P,5,P,P,5,10,4,3,13,lollipop,Did you see the lollipop?,0.12,0.016,JPG\,brownsugar,candle01,match,printer02,lollipop04,balloon01b,belt02a,potato02b,computerkeyboard02,stapler03a,rice,mushroom01,pencil01,blankImage,blankImage,blankImage,blankImage,lollipop04,,,,,,,,,,,,0,84,84,112,,,,,,,,,,,,,,,,,,,,,,,,,,,,,,,,,,,675.0688544,676.0714681,676.0549975999998,676.5553719,676.5553719,None,678.1822526000001,None,left,1.3334088999997675,678.1822526000001,None,679.5415545000001,None,right,0.5573903000001792,679.5415545000001,None,,,,,,,,,,,,,,,,,,,,,,,PPT56,001,2022-07-15_13h59.26.567,ABstudy,2022.1.4,59.877908943638616,
AB,Lag1_T1A_T2P,1,A,P,7,8,6,5,13,Ant,Did you see the Ant?,0.12,0.016,JPG\,rice,watermelon01,tableknife02,scarf,computerkeyboard02,cauliflower01,battery02b,stapler03b,book01b,sandal,sponge01,microscope,tomato01,blankImage,blankImage,blankImage,blankImage,sandcastle,,,,,,,,,,,,0,85,85,242,,,,,,,,,,,,,,,,,,,,,,,,,,,,,,,,,,,680.1257268999998,681.1265426999998,681.1098987999999,681.6702897,681.6702897,None,683.3078937999999,None,left,2.0071558000001914,683.3078937999999,None,685.3473835999998,None,right,1.3129792000001999,685.3473835999998,None,,,,,,,,,,,,,,,,,,,,,,,PPT56,001,2022-07-15_13h59.26.567,ABstudy,2022.1.4,59.877908943638616,
AB,Lag1_T1P_T2P,1,P,P,7,8,6,4,12,skunk,Did you see the skunk?,0.12,0.016,JPG\,fan,tomato01,candy,screwdriver04b,alligator,cd,skunk,stapler03b,button01,plate01b,brownsugar,lighter01,blankImage,blankImage,blankImage,blankImage,blankImage,skunk,,,,,,,,,,,,0,86,86,48,,,,,,,,,,,,,,,,,,,,,,,,,,,,,,,,,,,686.6819968999998,687.6831253,687.6664741,688.2316861999998,688.2316861999998,None,689.7302056999997,None,left,1.1688080999999784,689.7302056999997,None,690.9197011000001,None,left,0.347187100000383,690.9197011000001,None,,,,,,,,,,,,,,,,,,,,,,,PPT56,001,2022-07-15_13h59.26.567,ABstudy,2022.1.4,59.877908943638616,
AB,Lag5_T1P_T2A,5,P,A,7,12,6,5,17,corn,Did you see the corn?,0.12,0.016,JPG\,avocado01,pingpongpaddle01c,match,cauliflower01,paintbrush01,clock01a,corn02,cd,balloon01b,cellphone,watch02a,pear01,toaster01,sponge01,orange,blueberry01,blankImage,corn02,,,,,,,,,,,,0,87,87,210,,,,,,,,,,,,,,,,,,,,,,,,,,,,,,,,,,,691.2867333999998,692.2877481999999,692.2710037000002,692.8387948,692.8387948,None,694.8070564,None,left,1.0196369000002505,694.8070564,None,695.8579085000001,None,left,0.31341660000020966,695.8579085000001,None,,,,,,,,,,,,,,,,,,,,,,,PPT56,001,2022-07-15_13h59.26.567,ABstudy,2022.1.4,59.877908943638616,
AB,Lag5_T1P_T2P,5,P,P,6,11,5,5,16,scooter,Did you see the scooter?,0.12,0.016,JPG\,thermometer02b,candle08b,comb02a,toothbrush03b,brick,scooter,key01,pineapple01a,candy,birthdaycandle,stapler04b,canoftennisballs,teabag,medal02b,balloon01b,banana01,blankImage,scooter,,,,,,,,,,,,0,88,88,118,,,,,,,,,,,,,,,,,,,,,,,,,,,,,,,,,,,696.1912463999997,697.1926282,697.1759216,697.7352857000001,697.7352857000001,None,699.7383383000001,None,left,1.3135473000004367,699.7383383000001,None,701.079792,None,left,0.2835668000000169,701.079792,None,,,,,,,,,,,,,,,,,,,,,,,PPT56,001,2022-07-15_13h59.26.567,ABstudy,2022.1.4,59.877908943638616,
AB,Lag5_T1P_T2P,5,P,P,6,11,5,3,14,ladder,Did you see the ladder?,0.12,0.016,JPG\,celery,orange,scissors01,balloon01b,avocado01,stepladder,mushroom01,sewingmachine01a,lighter01,dice05a,stapler01,fan,cd,sock01a,blankImage,blankImage,blankImage,stepladder,,,,,,,,,,,,0,89,89,119,,,,,,,,,,,,,,,,,,,,,,,,,,,,,,,,,,,701.3801152999999,702.3810555,702.3644332999997,702.9215451999999,702.9215451999999,None,704.6718538999999,None,left,1.387288899999703,704.6718538999999,None,706.0849084000001,None,left,0.46203270000000884,706.0849084000001,None,,,,,,,,,,,,,,,,,,,,,,,PPT56,001,2022-07-15_13h59.26.567,ABstudy,2022.1.4,59.877908943638616,
AB,Lag1_T1P_T2P,1,P,P,8,9,7,3,12,cactus,Did you see the cactus?,0.12,0.016,JPG\,tennisball01b,paintbrush01,medal02b,apple07,speaker04,iron01b,avocado01,cactus,stapler03b,toiletpaper01a,watermelon01,candle01,blankImage,blankImage,blankImage,blankImage,blankImage,cactus,,,,,,,,,,,,0,90,90,58,,,,,,,,,,,,,,,,,,,,,,,,,,,,,,,,,,,706.5685985,707.5696388000001,707.5529550000001,708.1254347999998,708.1254347999998,None,709.6334806999998,None,left,1.1057650999998714,709.6334806999998,None,710.7560875999998,None,left,0.3351404000002276,710.7560875999998,None,,,,,,,,,,,,,,,,,,,,,,,PPT56,001,2022-07-15_13h59.26.567,ABstudy,2022.1.4,59.877908943638616,
AB,Lag5_T1P_T2P,5,P,P,5,10,4,5,15,penguin,Did you see the penguin?,0.12,0.016,JPG\,watermelon01,cigarette,pintofbeer,cymbal,penguin,feather03a,cherry01,broom01,battery02b,stapler05,baseball01a,iron01b,garlic01a,computerkeyboard02,pig,blankImage,blankImage,penguin,,,,,,,,,,,,0,91,91,137,,,,,,,,,,,,,,,,,,,,,,,,,,,,,,,,,,,711.1232781999997,712.1241295999998,712.1074198000001,712.6757029,712.6757029,None,714.4265249,None,left,1.2325952000003326,714.4265249,None,715.6777099999999,None,left,0.7570974000002479,715.6777099999999,None,,,,,,,,,,,,,,,,,,,,,,,PPT56,001,2022-07-15_13h59.26.567,ABstudy,2022.1.4,59.877908943638616,
AB,Lag1_T1A_T2P,1,A,P,8,9,7,3,12,elbow,Did you see the elbow?,0.12,0.016,JPG\,watermelon01,cigarette,faucet,cymbal,cauliflower01,feather03a,cherry01,broom01,stapler01,key01,baseball01a,iron01b,blankImage,blankImage,blankImage,blankImage,blankImage,cashregister01,,,,,,,,,,,,0,92,92,251,,,,,,,,,,,,,,,,,,,,,,,,,,,,,,,,,,,716.4617899,717.4627126,717.4461676999999,718.0166104999998,718.0166104999998,None,719.5541884999998,None,right,1.3851977000001625,719.5541884999998,None,720.9663199000001,None,left,0.5337416999998368,720.9663199000001,None,,,,,,,,,,,,,,,,,,,,,,,PPT56,001,2022-07-15_13h59.26.567,ABstudy,2022.1.4,59.877908943638616,
AB,Lag1_T1A_T2P,1,A,P,5,6,4,3,9,Stool,Did you see the Stool?,0.12,0.016,JPG\,cherry01,cymbal,envelope03a,foosballtable,shirt02,stapler01,sewingmachine01a,candle08b,battery02b,blankImage,blankImage,blankImage,blankImage,blankImage,blankImage,blankImage,blankImage,hulahoop,,,,,,,,,,,,0,93,93,236,,,,,,,,,,,,,,,,,,,,,,,,,,,,,,,,,,,721.5168816999999,722.5176412000001,722.5011402999999,723.0641517999998,723.0641517999998,None,724.2267668,None,right,2.6963632999998026,724.2267668,None,726.9556560000001,None,right,2.240525100000241,726.9556560000001,None,,,,,,,,,,,,,,,,,,,,,,,PPT56,001,2022-07-15_13h59.26.567,ABstudy,2022.1.4,59.877908943638616,
AB,Lag1_T1A_T2P,1,A,P,8,9,7,3,12,seal,Did you see the seal?,0.12,0.016,JPG\,dice05a,watch02a,pig,lighter01,button01,strawberry,paintbrush01,microscope,stapler03a,pen04b,feather03a,8ball,blankImage,blankImage,blankImage,blankImage,blankImage,hockeystick,,,,,,,,,,,,0,94,94,235,,,,,,,,,,,,,,,,,,,,,,,,,,,,,,,,,,,729.2247499,730.2253551999997,730.2089009000001,730.7717752999997,730.7717752999997,None,732.2772211000001,None,right,1.7175604000001385,732.2772211000001,None,734.0126329,None,right,0.6622115000002395,734.0126329,None,,,,,,,,,,,,,,,,,,,,,,,PPT56,001,2022-07-15_13h59.26.567,ABstudy,2022.1.4,59.877908943638616,
AB,Lag1_T1P_T2P,1,P,P,7,8,6,3,11,swing,Did you see the swing?,0.12,0.016,JPG\,sewingmachine01a,thermometer02b,sponge01,eraser,broccoli01a,fork03c,swing,stapler03b,belt02a,medal02b,pineapple01a,blankImage,blankImage,blankImage,blankImage,blankImage,blankImage,swing,,,,,,,,,,,,0,95,95,30,,,,,,,,,,,,,,,,,,,,,,,,,,,,,,,,,,,734.6966440000001,735.6975582,735.6808937000001,736.2506490999999,736.2506490999999,None,737.6539911999998,None,left,0.9964621000001443,737.6539911999998,None,738.6672755,None,left,0.35156490000031226,738.6672755,None,,,,,,,,,,,,,,,,,,,,,,,PPT56,001,2022-07-15_13h59.26.567,ABstudy,2022.1.4,59.877908943638616,
AB,Lag1_T1A_T2P,1,A,P,6,7,5,5,12,Ostrich,Did you see the Ostrich?,0.12,0.016,JPG\,thermometer02b,candle08b,comb02a,toothbrush03b,brick,computerkeyboard02,stapler05,pineapple01a,candy,birthdaycandle,clock04,hairclip03,blankImage,blankImage,blankImage,blankImage,blankImage,discoball,,,,,,,,,,,,0,96,96,232,,,,,,,,,,,,,,,,,,,,,,,,,,,,,,,,,,,739.0509941,740.0519813999999,740.0350880000001,740.5939850999998,740.5939850999998,None,742.0855925000001,None,right,1.214470399999982,742.0855925000001,None,743.3218112,None,right,0.4649950999998964,743.3218112,None,,,,,,,,,,,,,,,,,,,,,,,PPT56,001,2022-07-15_13h59.26.567,ABstudy,2022.1.4,59.877908943638616,
AB,Lag5_T1P_T2P,5,P,P,7,12,6,5,17,tie,Did you see the tie?,0.12,0.016,JPG\,iron01b,orange,birthdaycandle,potato02b,cauliflower01,pencil01,tie02,candle08b,celery,tableknife02,pen04b,stapler06,ring01,rice,lemon02,tomato01,blankImage,tie02,,,,,,,,,,,,0,97,97,161,,,,,,,,,,,,,,,,,,,,,,,,,,,,,,,,,,,743.8056670999999,744.8066545000001,744.790113,745.3516568,745.3516568,None,747.3517032999998,None,left,1.0678039000001718,747.3517032999998,None,748.4436101000001,None,left,0.9278968000000987,748.4436101000001,None,,,,,,,,,,,,,,,,,,,,,,,PPT56,001,2022-07-15_13h59.26.567,ABstudy,2022.1.4,59.877908943638616,
AB,Lag5_T1P_T2P,5,P,P,7,12,6,5,17,Pigeon,Did you see the Pigeon?,0.12,0.016,JPG\,strawberry,leaf02a,clock04,candle01,avocado01,paintbrush01,pigeon,brownsugar,ring01,lemon02,fork03c,stapler01,cauliflower01,tableknife02,tennisball01b,thermometer02b,blankImage,pigeon,,,,,,,,,,,,0,98,98,151,,,,,,,,,,,,,,,,,,,,,,,,,,,,,,,,,,,749.3945193,750.3955961000001,750.3788875,750.9422771,750.9422771,None,752.9084048999998,None,left,0.9036316000003808,752.9084048999998,None,753.8323885999998,None,left,0.3704614999999194,753.8323885999998,None,,,,,,,,,,,,,,,,,,,,,,,PPT56,001,2022-07-15_13h59.26.567,ABstudy,2022.1.4,59.877908943638616,
AB,Lag1_T1P_T2P,1,P,P,8,9,7,4,13,ladder,Did you see the ladder?,0.12,0.016,JPG\,cigarette,fork03c,greenolive,broccoli01a,avocado01,tennisball01b,balloon01b,ladder,stapler03b,fan,clock01a,strawberry,envelope03a,blankImage,blankImage,blankImage,blankImage,ladder,,,,,,,,,,,,0,99,99,45,,,,,,,,,,,,,,,,,,,,,,,,,,,,,,,,,,,754.2327688,755.2337370999999,755.2170299999998,755.7728441999998,755.7728441999998,None,757.4031209999998,None,left,0.8480428000000302,757.4031209999998,None,758.2700623999999,None,left,0.3247678000000178,758.2700623999999,None,,,,,,,,,,,,,,,,,,,,,,,PPT56,001,2022-07-15_13h59.26.567,ABstudy,2022.1.4,59.877908943638616,
AB,Lag1_T1P_T2P,1,P,P,6,7,5,3,10,handcuffs,Did you see the handcuffs?,0.12,0.016,JPG\,sewingmachine01a,scarf,carrot01,book01b,eraser,handcuffs,stapler05,lipstick02a,printer02,garlic01a,blankImage,blankImage,blankImage,blankImage,blankImage,blankImage,blankImage,handcuffs,,,,,,,,,,,,0,100,100,2,,,,,,,,,,,,,,,,,,,,,,,,,,,,,,,,,,,758.6203532,759.6214952,759.6047822999999,760.1752524999997,760.1752524999997,None,761.4578056999999,None,left,1.0806605000000218,761.4578056999999,None,762.5576452999999,None,right,0.6686376000000109,762.5576452999999,None,,,,,,,,,,,,,,,,,,,,,,,PPT56,001,2022-07-15_13h59.26.567,ABstudy,2022.1.4,59.877908943638616,
AB,Lag5_T1P_T2P,5,P,P,7,12,6,4,16,Wolf,Did you see the Wolf?,0.12,0.016,JPG\,brick,eraser,cucumber,ashtray01,thermometer02b,binoculars01b,greywolf,screwdriver04b,grape01,brownsugar,battery02b,stapler03b,dice05a,avocado01,birthdaycandle,watch02a,blankImage,greywolf,,,,,,,,,,,,0,101,101,89,,,,,,,,,,,,,,,,,,,,,,,,,,,,,,,,,,,763.2584074000001,764.2592721000001,764.2426363,764.8067829000001,764.8067829000001,None,766.8163707999997,None,left,1.0583853000005092,766.8163707999997,None,767.8964053,None,right,0.6018177000003107,767.8964053,None,,,,,,,,,,,,,,,,,,,,,,,PPT56,001,2022-07-15_13h59.26.567,ABstudy,2022.1.4,59.877908943638616,
AB,Lag1_T1P_T2P,1,P,P,7,8,6,5,13,dream catcher,Did you see the dream catcher?,0.12,0.016,JPG\,clock01a,cellphone,toaster01,toothbrush03b,cauliflower01,microscope,dreamcatcher,stapler05,scarf,clock04,sponge01,iron01b,watch02a,blankImage,blankImage,blankImage,blankImage,dreamcatcher,,,,,,,,,,,,0,102,102,81,,,,,,,,,,,,,,,,,,,,,,,,,,,,,,,,,,,768.5303049999998,769.5313528000001,769.5145610999998,770.0792649999999,770.0792649999999,None,771.6630881000001,None,left,1.1325175000004037,771.6630881000001,None,772.8177590999999,None,right,1.1929290999999012,772.8177590999999,None,,,,,,,,,,,,,,,,,,,,,,,PPT56,001,2022-07-15_13h59.26.567,ABstudy,2022.1.4,59.877908943638616,
AB,Lag1_T1A_T2P,1,A,P,5,6,4,3,9,Crown,Did you see the Crown?,0.12,0.016,JPG\,leaf02a,pear01,measuringcup01,cigarette,fan,stapler04b,teabag,tableknife02,ring01,blankImage,blankImage,blankImage,blankImage,blankImage,blankImage,blankImage,blankImage,arrow02,,,,,,,,,,,,0,103,103,248,,,,,,,,,,,,,,,,,,,,,,,,,,,,,,,,,,,774.0357107,775.0368835999998,775.0200095,775.5796624999998,775.5796624999998,None,776.7596554000002,None,right,4.531802799999923,776.7596554000002,None,781.3098313999999,None,right,0.7411595000000943,781.3098313999999,None,,,,,,,,,,,,,,,,,,,,,,,PPT56,001,2022-07-15_13h59.26.567,ABstudy,2022.1.4,59.877908943638616,
AB,Lag5_T1P_T2A,5,P,A,8,13,7,5,18,telescope,Did you see the telescope?,0.12,0.016,JPG\,globe,broccoli01a,binoculars01b,iron01b,avocado01,dandelion,pineapple01a,handheldtelescope,fan,pizza,celery,blueberry01,sewingmachine01a,dice05a,watermelon01,candy,blankImage,handheldtelescope,,,,,,,,,,,,0,104,104,228,,,,,,,,,,,,,,,,,,,,,,,,,,,,,,,,,,,782.0771435000001,783.0781099999999,783.0614498,783.6329470000001,783.6329470000001,None,785.5826959999999,None,left,1.1559798000000683,785.5826959999999,None,786.765077,None,right,1.3733926000002157,786.765077,None,,,,,,,,,,,,,,,,,,,,,,,PPT56,001,2022-07-15_13h59.26.567,ABstudy,2022.1.4,59.877908943638616,
AB,Lag5_T1P_T2P,5,P,P,6,11,5,4,15,saxophone,Did you see the saxophone?,0.12,0.016,JPG\,pizza,strawberry,potato02b,speaker04,battery02b,saxophone,dice05a,cellphone,globe,banana01,stapler03b,baseball01a,toaster01,broom01,ring01,blankImage,blankImage,saxophone,,,,,,,,,,,,0,105,105,117,,,,,,,,,,,,,,,,,,,,,,,,,,,,,,,,,,,788.1667235999998,789.1675420000001,789.1506656000001,789.7230371999999,789.7230371999999,None,791.5422490000001,None,left,0.5565757000001668,791.5422490000001,None,792.1205396999999,None,left,0.55437040000038,792.1205396999999,None,,,,,,,,,,,,,,,,,,,,,,,PPT56,001,2022-07-15_13h59.26.567,ABstudy,2022.1.4,59.877908943638616,
AB,Lag1_T1P_T2P,1,P,P,7,8,6,3,11,Sand castle,Did you see the Sand castle?,0.12,0.016,JPG\,thermometer02b,candle08b,comb02a,toothbrush03b,brick,computerkeyboard02,sandcastle,stapler06,candy,birthdaycandle,clock04,blankImage,blankImage,blankImage,blankImage,blankImage,blankImage,sandcastle,,,,,,,,,,,,0,106,106,70,,,,,,,,,,,,,,,,,,,,,,,,,,,,,,,,,,,792.7042825999997,793.7053937999999,793.6887444999998,794.2495500999999,794.2495500999999,None,795.6427825999999,None,right,2.247434799999837,795.6427825999999,None,797.9095366000001,None,right,1.6458043999998608,797.9095366000001,None,,,,,,,,,,,,,,,,,,,,,,,PPT56,001,2022-07-15_13h59.26.567,ABstudy,2022.1.4,59.877908943638616,
AB,Lag1_T1A_T2P,1,A,P,7,8,6,5,13,Horseshoe,Did you see the Horseshoe?,0.12,0.016,JPG\,leaf02a,apple07,cd,pineapple01a,envelope03a,paintbrush01,pig,stapler06,rice,feather03a,lemon02,balloon01b,avocado01,blankImage,blankImage,blankImage,blankImage,rooster,,,,,,,,,,,,0,107,107,241,,,,,,,,,,,,,,,,,,,,,,,,,,,,,,,,,,,799.5778977999998,800.5788272,800.5622340999998,801.1208080000001,801.1208080000001,None,802.7794757000001,None,right,1.2641260000002603,802.7794757000001,None,804.0655421000001,None,left,0.8972384000001057,804.0655421000001,None,,,,,,,,,,,,,,,,,,,,,,,PPT56,001,2022-07-15_13h59.26.567,ABstudy,2022.1.4,59.877908943638616,
AB,Lag5_T1A_T2P,5,A,P,7,12,6,4,16,flower,Did you see the flower?,0.12,0.016,JPG\,printer02,envelope03a,potato02b,calculator01,tableknife02,cigarette,ashtray01,pig,broom01,greenolive,candle08b,stapler03a,strawberry,candle01,foosballtable,tennisball01b,blankImage,calendar,,,,,,,,,,,,0,108,108,282,,,,,,,,,,,,,,,,,,,,,,,,,,,,,,,,,,,804.9833542000001,805.9842408,805.9674801000001,806.5299682999998,806.5299682999998,None,808.524563,None,right,2.269904600000018,808.524563,None,810.8223201999999,None,left,0.5320160000003398,810.8223201999999,None,,,,,,,,,,,,,,,,,,,,,,,PPT56,001,2022-07-15_13h59.26.567,ABstudy,2022.1.4,59.877908943638616,
AB,Lag1_T1P_T2P,1,P,P,7,8,6,5,13,school bus,Did you see the school bus?,0.12,0.016,JPG\,aceofdiamond,banana01,scissors01,pig,shirt02,leaf02a,schoolbus,stapler05,fork03c,tableknife02,balloon01b,match,toothbrush03b,blankImage,blankImage,blankImage,blankImage,schoolbus,,,,,,,,,,,,0,109,109,24,,,,,,,,,,,,,,,,,,,,,,,,,,,,,,,,,,,811.4183644,812.4240313999999,812.390598,812.9593185999997,812.9593185999997,None,814.5208868999998,None,left,0.9780259000001479,814.5208868999998,None,815.5269982,None,right,0.7158706000002439,815.5269982,None,,,,,,,,,,,,,,,,,,,,,,,PPT56,001,2022-07-15_13h59.26.567,ABstudy,2022.1.4,59.877908943638616,
AB,Lag1_T1P_T2P,1,P,P,6,7,5,4,11,no parking sign,Did you see the no parking sign?,0.12,0.016,JPG\,fork03c,belt02a,grape01,computerkeyboard02,lemon02,parkingsign,stapler05,toiletpaper01a,toaster01,lipstick02a,book01b,blankImage,blankImage,blankImage,blankImage,blankImage,blankImage,parkingsign,,,,,,,,,,,,0,110,110,47,,,,,,,,,,,,,,,,,,,,,,,,,,,,,,,,,,,816.2609159999997,817.2621555000001,817.2455354999997,817.8000526000001,817.8000526000001,None,819.2312418000001,None,right,3.643750200000113,819.2312418000001,None,822.9010238000001,None,left,0.42101849999994556,822.9010238000001,None,,,,,,,,,,,,,,,,,,,,,,,PPT56,001,2022-07-15_13h59.26.567,ABstudy,2022.1.4,59.877908943638616,
AB,Lag1_T1P_T2P,1,P,P,6,7,5,3,10,fortune cookie,Did you see the fortune cookie?,0.12,0.016,JPG\,scissors01,grape01,mushroom01,toiletpaper01a,greenolive,fortunecookie,stapler03b,ashtray01,carrot01,pineapple01a,blankImage,blankImage,blankImage,blankImage,blankImage,blankImage,blankImage,fortunecookie,,,,,,,,,,,,0,111,111,42,,,,,,,,,,,,,,,,,,,,,,,,,,,,,,,,,,,823.3515407999998,824.3526364999998,824.3359169999999,824.8902410999999,824.8902410999999,None,826.1906137999999,None,left,2.1554767999998603,826.1906137999999,None,828.3731428000001,None,left,0.3976949999998851,828.3731428000001,None,,,,,,,,,,,,,,,,,,,,,,,PPT56,001,2022-07-15_13h59.26.567,ABstudy,2022.1.4,59.877908943638616,
AB,Lag5_T1P_T2P,5,P,P,8,13,7,5,18,spice rack,Did you see the spice rack?,0.12,0.016,JPG\,lamp04a,broccoli01a,alligator,garlic01a,dandelion,brownsugar,avocado01,spicerack,leaf02a,cellphone,medal02b,cd,stapler05,sunglasses04,strawberry,eraser,blankImage,spicerack,,,,,,,,,,,,0,112,112,140,,,,,,,,,,,,,,,,,,,,,,,,,,,,,,,,,,,828.7902165999999,829.7913451,829.7745486999997,830.3312889999997,830.3312889999997,None,832.3347976999999,None,right,1.796185700000251,832.3347976999999,None,834.1622609000001,None,left,0.34539969999991627,834.1622609000001,None,,,,,,,,,,,,,,,,,,,,,,,PPT56,001,2022-07-15_13h59.26.567,ABstudy,2022.1.4,59.877908943638616,
AB,Lag5_T1P_T2P,5,P,P,5,10,4,3,13,Jellyfish,Did you see the Jellyfish?,0.12,0.016,JPG\,printer02,envelope03a,potato02b,calculator01,jellyfish,cigarette,ashtray01,pig,broom01,stapler06,candle08b,battery02b,strawberry,blankImage,blankImage,blankImage,blankImage,jellyfish,,,,,,,,,,,,0,113,113,91,,,,,,,,,,,,,,,,,,,,,,,,,,,,,,,,,,,834.5293610999997,835.5303307999998,835.5135264,836.0776913999998,836.0776913999998,None,837.682793,None,left,1.6235252000003584,837.682793,None,839.3341812999997,None,left,0.5086656999999377,839.3341812999997,None,,,,,,,,,,,,,,,,,,,,,,,PPT56,001,2022-07-15_13h59.26.567,ABstudy,2022.1.4,59.877908943638616,
AB,Lag1_T1P_T2A,1,P,A,5,6,4,5,11,Toaster oven,Did you see the Toaster oven?,0.12,0.016,JPG\,fork03c,toothbrush03b,cellphone,fan,toasteroven,clock01a,ring01,eraser,sunglasses04,thermometer02b,violin,blankImage,blankImage,blankImage,blankImage,blankImage,blankImage,toasteroven,,,,,,,,,,,,0,114,114,200,,,,,,,,,,,,,,,,,,,,,,,,,,,,,,,,,,,839.9153501000001,840.9190699000001,840.9022067000001,841.4566547,841.4566547,None,842.7676599000001,None,left,3.8903963999998723,842.7676599000001,None,846.6749064999999,None,left,1.2396502999997665,846.6749064999999,None,,,,,,,,,,,,,,,,,,,,,,,PPT56,001,2022-07-15_13h59.26.567,ABstudy,2022.1.4,59.877908943638616,
AB,Lag1_T1P_T2A,1,P,A,8,9,7,4,13,boat,Did you see the boat?,0.12,0.016,JPG\,fork03c,dandelion,dice05a,belt02a,onion,watch02a,key01,boat,eraser,medal02b,greenolive,shirt02,candle08b,blankImage,blankImage,blankImage,blankImage,boat,,,,,,,,,,,,0,115,115,199,,,,,,,,,,,,,,,,,,,,,,,,,,,,,,,,,,,847.9426681,848.9438049999999,848.9269037999998,849.4808996000002,849.4808996000002,None,851.1000341999998,None,right,6.758593100000098,851.1000341999998,None,857.8858282000001,None,right,0.49315130000036334,857.8858282000001,None,,,,,,,,,,,,,,,,,,,,,,,PPT56,001,2022-07-15_13h59.26.567,ABstudy,2022.1.4,59.877908943638616,
AB,Lag5_T1P_T2P,5,P,P,8,13,7,5,18,Ping pong Table,Did you see the Ping pong Table?,0.12,0.016,JPG\,shirt02,match,screw02,foosballtable,blueberry01,pineapple01a,sewingmachine01a,pingpongtable,button01,comb02a,dice05a,measuringcup01,stapler04b,printer02,carrot01,watermelon01,blankImage,pingpongtable,,,,,,,,,,,,0,116,116,152,,,,,,,,,,,,,,,,,,,,,,,,,,,,,,,,,,,858.4531570999998,859.4540293,859.4375651,860.0050787999999,860.0050787999999,None,861.9745228000002,None,left,1.0920627000002696,861.9745228000002,None,863.0911012000001,None,left,0.39185909999991964,863.0911012000001,None,,,,,,,,,,,,,,,,,,,,,,,PPT56,001,2022-07-15_13h59.26.567,ABstudy,2022.1.4,59.877908943638616,
AB,Lag5_T1P_T2P,5,P,P,5,10,4,5,15,scorpion,Did you see the scorpion?,0.12,0.016,JPG\,fan,tomato01,candy,screwdriver04b,scorpion,cd,thermometer02b,apple07,button01,stapler01,brownsugar,lighter01,clock01a,envelope03a,clock04,blankImage,blankImage,scorpion,,,,,,,,,,,,0,117,117,97,,,,,,,,,,,,,,,,,,,,,,,,,,,,,,,,,,,863.5081689999997,864.5092525999999,864.492452,865.0595935000001,865.0595935000001,None,866.9391006999999,None,left,1.279585999999881,866.9391006999999,None,868.2462501,None,right,1.1646657000003415,868.2462501,None,,,,,,,,,,,,,,,,,,,,,,,PPT56,001,2022-07-15_13h59.26.567,ABstudy,2022.1.4,59.877908943638616,
AB,Lag1_T1P_T2P,1,P,P,5,6,4,3,9,Pumpkin,Did you see the Pumpkin?,0.12,0.016,JPG\,binoculars01b,speaker04,sandal,envelope03a,pumpkin,stapler03b,battery02b,chain01,measuringcup01,blankImage,blankImage,blankImage,blankImage,blankImage,blankImage,blankImage,blankImage,pumpkin,,,,,,,,,,,,0,118,118,23,,,,,,,,,,,,,,,,,,,,,,,,,,,,,,,,,,,869.430805,870.4317971999999,870.4152205,870.9800916999998,870.9800916999998,None,872.1479025999997,None,left,1.422035299999834,872.1479025999997,None,873.6017167999998,None,left,0.328505499999892,873.6017167999998,None,,,,,,,,,,,,,,,,,,,,,,,PPT56,001,2022-07-15_13h59.26.567,ABstudy,2022.1.4,59.877908943638616,
AB,Lag5_T1A_T2A,5,A,A,5,10,4,5,15,flower,Did you see the flower?,0.12,0.016,JPG\,clock01a,cellphone,toaster01,toothbrush03b,cauliflower01,microscope,comb02a,paintbrush01,scarf,clock04,sponge01,iron01b,watch02a,celery,ring01,blankImage,blankImage,stepladder,,,,,,,,,,,,0,119,119,303,,,,,,,,,,,,,,,,,,,,,,,,,,,,,,,,,,,873.9519955000001,874.9529450999999,874.9362430000001,875.5023222999998,875.5023222999998,None,877.3408958999999,None,right,0.9494025999999849,877.3408958999999,None,878.3229040000001,None,right,0.6077440000001388,878.3229040000001,None,,,,,,,,,,,,,,,,,,,,,,,PPT56,001,2022-07-15_13h59.26.567,ABstudy,2022.1.4,59.877908943638616,
AB,Lag5_T1P_T2P,5,P,P,7,12,6,5,17,American football helmet,Did you see the American football helmet?,0.12,0.016,JPG\,alligator,banana01,apple07,tomato01,button01,spoon01,footballhelmet,fork03c,slipper03b,potato02b,grape01,stapler03b,teabag,screwdriver04b,hammer01,tennisball01b,blankImage,footballhelmet,,,,,,,,,,,,0,120,120,148,,,,,,,,,,,,,,,,,,,,,,,,,,,,,,,,,,,878.9570211999999,879.9578559000001,879.9412303999998,880.4417319999998,880.4417319999998,None,882.5322087,None,left,1.2459039000002576,882.5322087,None,883.7950142999998,None,right,0.7998387000000093,883.7950142999998,None,,,,,,,,,,,,,,,,,,,,,,,PPT56,001,2022-07-15_13h59.26.567,ABstudy,2022.1.4,59.877908943638616,
AB,Lag5_T1P_T2P,5,P,P,6,11,5,4,15,Witch hat,Did you see the Witch hat?,0.12,0.016,JPG\,pizza,watch02a,greenolive,cucumber,match,witchhat,scissors01,broom01,globe,cherry01,stapler03a,cigarette,microscope,cellphone,speaker04,blankImage,blankImage,witchhat,,,,,,,,,,,,0,121,121,101,,,,,,,,,,,,,,,,,,,,,,,,,,,,,,,,,,,884.6489636000001,885.6637006000001,885.6302286,886.2022182999999,886.2022182999999,None,888.0499759999998,None,left,1.1844174000000294,888.0499759999998,None,889.2671786999999,None,left,0.42318660000023556,889.2671786999999,None,,,,,,,,,,,,,,,,,,,,,,,PPT56,001,2022-07-15_13h59.26.567,ABstudy,2022.1.4,59.877908943638616,
AB,Lag5_T1P_T2P,5,P,P,7,12,6,5,17,flamingo,Did you see the flamingo?,0.12,0.016,JPG\,pig,belt02a,rice,screwdriver04b,candle01,apple07,flamingo,pear01,feather03a,match,thermometer02b,stapler06,lemon02,violin,medal02b,pineapple01a,blankImage,flamingo,,,,,,,,,,,,0,122,122,153,,,,,,,,,,,,,,,,,,,,,,,,,,,,,,,,,,,889.7174823999999,890.7187080999997,890.7019683999997,891.2023426000001,891.2023426000001,None,893.2770384,None,left,0.9650256000002173,893.2770384,None,894.2721068999999,None,left,0.4020989000002828,894.2721068999999,None,,,,,,,,,,,,,,,,,,,,,,,PPT56,001,2022-07-15_13h59.26.567,ABstudy,2022.1.4,59.877908943638616,
AB,Lag1_T1P_T2P,1,P,P,8,9,7,3,12,Wheelchair,Did you see the Wheelchair?,0.12,0.016,JPG\,cigarette,pig,banana01,strawberry,clock01a,plate01b,spoon01,wheelchair,stapler03b,pineapple01a,chain01,paintbrush01,blankImage,blankImage,blankImage,blankImage,blankImage,wheelchair,,,,,,,,,,,,0,123,123,27,,,,,,,,,,,,,,,,,,,,,,,,,,,,,,,,,,,894.7059383999999,895.7069025000001,895.6902698999997,896.2439749999999,896.2439749999999,None,897.7498765,None,left,1.8765203999998903,897.7498765,None,899.6441264,None,left,0.31151340000019445,899.6441264,None,,,,,,,,,,,,,,,,,,,,,,,PPT56,001,2022-07-15_13h59.26.567,ABstudy,2022.1.4,59.877908943638616,
AB,Lag5_T1A_T2A,5,A,A,5,10,4,4,14,music sheet,Did you see the music sheet?,0.12,0.016,JPG\,celery,pencil01,fan,foosballtable,iron01b,shirt02,potato02b,fork03c,button01,pineapple01a,baseball01a,printer02,cauliflower01,dandelion,blankImage,blankImage,blankImage,licenseplate,,,,,,,,,,,,0,124,124,304,,,,,,,,,,,,,,,,,,,,,,,,,,,,,,,,,,,899.9778271,900.9788945999999,900.9621281999998,901.5203357,901.5203357,None,903.1642317999999,None,right,1.6379259000002548,903.1642317999999,None,904.8325556999998,None,right,0.5295238000001063,904.8325556999998,None,,,,,,,,,,,,,,,,,,,,,,,PPT56,001,2022-07-15_13h59.26.567,ABstudy,2022.1.4,59.877908943638616,
AB,Lag5_T1P_T2A,5,P,A,8,13,7,4,17,Drum set,Did you see the Drum set?,0.12,0.016,JPG\,pencil01,microscope,banana01,computerkeyboard02,celery,cellphone,scissors01,drumset,book01b,onion,dice05a,binoculars01b,baseball01a,iron01b,screw02,fork03c,blankImage,drumset,,,,,,,,,,,,0,125,125,212,,,,,,,,,,,,,,,,,,,,,,,,,,,,,,,,,,,905.3831295,906.3843621999999,906.3675143999999,906.9186636999998,906.9186636999998,None,908.9275194000002,None,left,1.33061100000009,908.9275194000002,None,910.2879235,None,right,0.46661329999983536,910.2879235,None,,,,,,,,,,,,,,,,,,,,,,,PPT56,001,2022-07-15_13h59.26.567,ABstudy,2022.1.4,59.877908943638616,
AB,Lag5_T1A_T2P,5,A,P,6,11,5,4,15,butterfly,Did you see the butterfly?,0.12,0.016,JPG\,comb02a,key01,medal02b,battery02b,lighter01,microscope,watermelon01,sandal,pig,cellphone,stapler06,calculator01,cymbal,clock04,cucumber,blankImage,blankImage,uprightpiano01,,,,,,,,,,,,0,126,126,276,,,,,,,,,,,,,,,,,,,,,,,,,,,,,,,,,,,910.7719833000001,911.7729052999998,911.7563799,912.3142044000001,912.3142044000001,None,914.1416147999998,None,right,1.6449201999996603,914.1416147999998,None,915.8103578,None,left,0.6076915000001009,915.8103578,None,,,,,,,,,,,,,,,,,,,,,,,PPT56,001,2022-07-15_13h59.26.567,ABstudy,2022.1.4,59.877908943638616,
AB,Lag1_T1A_T2A,1,A,A,7,8,6,5,13,Poker chips,Did you see the Poker chips?,0.12,0.016,JPG\,violin,pizza,toothbrush03b,pineapple01a,banana01,ashtray01,candy,dandelion,clock04,sock01a,microscope,speaker04,calculator01,blankImage,blankImage,blankImage,blankImage,cigar,,,,,,,,,,,,0,127,127,289,,,,,,,,,,,,,,,,,,,,,,,,,,,,,,,,,,,916.4441922000001,917.4451816999999,917.4287359,917.9973185999997,917.9973185999997,None,919.6574873,None,right,1.4651030000002265,919.6574873,None,921.1493578999998,None,right,0.2776805000000877,921.1493578999998,None,,,,,,,,,,,,,,,,,,,,,,,PPT56,001,2022-07-15_13h59.26.567,ABstudy,2022.1.4,59.877908943638616,
AB,Lag5_T1P_T2P,5,P,P,6,11,5,5,16,Car,Did you see the Car?,0.12,0.016,JPG\,leaf02a,apple07,cd,pineapple01a,envelope03a,car,pig,canoftennisballs,rice,feather03a,stapler03a,balloon01b,avocado01,calculator01,watermelon01,teabag,blankImage,car,,,,,,,,,,,,0,128,128,127,,,,,,,,,,,,,,,,,,,,,,,,,,,,,,,,,,,921.4491291999998,922.4502801999997,922.4334752,922.9956981999999,922.9956981999999,None,924.9643038999998,None,left,0.7665803000002143,924.9643038999998,None,925.7535524,None,left,0.3205419000003076,925.7535524,None,,,,,,,,,,,,,,,,,,,,,,,PPT56,001,2022-07-15_13h59.26.567,ABstudy,2022.1.4,59.877908943638616,
AB,Lag1_T1P_T2P,1,P,P,8,9,7,5,14,Waterfall,Did you see the Waterfall?,0.12,0.016,JPG\,pizza,watch02a,greenolive,cucumber,match,violin,scissors01,waterfall,stapler03a,cherry01,ring01,cigarette,microscope,cellphone,blankImage,blankImage,blankImage,waterfall,,,,,,,,,,,,0,129,129,52,,,,,,,,,,,,,,,,,,,,,,,,,,,,,,,,,,,926.1038254,927.1048654000001,927.0881329999997,927.6572366999999,927.6572366999999,None,929.3876144999999,None,left,1.0230211999999028,929.3876144999999,None,930.4415641,None,right,0.37712400000032176,930.4415641,None,,,,,,,,,,,,,,,,,,,,,,,PPT56,001,2022-07-15_13h59.26.567,ABstudy,2022.1.4,59.877908943638616,
AB,Lag5_T1P_T2P,5,P,P,5,10,4,4,14,bell,Did you see the bell?,0.12,0.016,JPG\,teabag,envelope03a,cellphone,apple07,callbell,orange,brownsugar,book01b,hammer01,stapler03b,toaster01,calculator01,globe,battery02b,blankImage,blankImage,blankImage,callbell,,,,,,,,,,,,0,130,130,147,,,,,,,,,,,,,,,,,,,,,,,,,,,,,,,,,,,930.8417988000001,931.8429526999998,931.8263329000001,932.3854326000001,932.3854326000001,None,934.1125238,None,left,1.1217770000000655,934.1125238,None,935.2629948999997,None,right,0.7005994999997256,935.2629948999997,None,,,,,,,,,,,,,,,,,,,,,,,PPT56,001,2022-07-15_13h59.26.567,ABstudy,2022.1.4,59.877908943638616,
AB,Lag5_T1A_T2P,5,A,P,5,10,4,3,13,License Plate,Did you see the License Plate?,0.12,0.016,JPG\,tomato01,pen04b,shirt02,carrot01,lamp04a,key01,pizza,avocado01,sewingmachine01a,stapler06,iron01b,book01b,chain01,blankImage,blankImage,blankImage,blankImage,porcupine,,,,,,,,,,,,0,131,131,270,,,,,,,,,,,,,,,,,,,,,,,,,,,,,,,,,,,935.9803922000001,936.9813279999998,936.9645455999998,937.5311025000001,937.5311025000001,None,939.1363299999998,None,right,1.1702152000000297,939.1363299999998,None,940.3346458000001,None,right,0.4514821000000211,940.3346458000001,None,,,,,,,,,,,,,,,,,,,,,,,PPT56,001,2022-07-15_13h59.26.567,ABstudy,2022.1.4,59.877908943638616,
AB,Lag1_T1A_T2P,1,A,P,8,9,7,4,13,Toolbox,Did you see the Toolbox?,0.12,0.016,JPG\,pizza,printer02,medal02b,spoon01,grape01,lighter01,belt02a,watermelon01,stapler03b,battery02b,screw02,comb02a,cauliflower01,blankImage,blankImage,blankImage,blankImage,ladybug03,,,,,,,,,,,,0,132,132,237,,,,,,,,,,,,,,,,,,,,,,,,,,,,,,,,,,,940.8184565000001,941.8194385000002,941.8027395999998,942.3750986,942.3750986,None,943.9838142999997,None,right,1.442219900000282,943.9838142999997,None,945.4564657999999,None,left,0.2818793000003552,945.4564657999999,None,,,,,,,,,,,,,,,,,,,,,,,PPT56,001,2022-07-15_13h59.26.567,ABstudy,2022.1.4,59.877908943638616,
AB,Lag5_T1P_T2P,5,P,P,8,13,7,3,16,parachute,Did you see the parachute?,0.12,0.016,JPG\,brick,plate01b,pen04b,toaster01,screwdriver04b,candle01,envelope03a,parachute,pig,ring01,orange,clock01a,stapler03b,calculator01,mushroom01,chain01,blankImage,parachute,,,,,,,,,,,,0,133,133,114,,,,,,,,,,,,,,,,,,,,,,,,,,,,,,,,,,,945.7568707999999,946.7578960999999,946.7410031,947.3062073000001,947.3062073000001,None,949.2555268000001,None,left,1.0187674000001152,949.2555268000001,None,950.2945749,None,left,0.4194948000001659,950.2945749,None,,,,,,,,,,,,,,,,,,,,,,,PPT56,001,2022-07-15_13h59.26.567,ABstudy,2022.1.4,59.877908943638616,
AB,Lag1_T1P_T2P,1,P,P,6,7,5,5,12,snowman,Did you see the snowman?,0.12,0.016,JPG\,comb02a,watch02a,scissors01,dice05a,tableknife02,snowman,stapler03a,printer02,dandelion,spoon01,ashtray01,battery02b,blankImage,blankImage,blankImage,blankImage,blankImage,snowman,,,,,,,,,,,,0,134,134,4,,,,,,,,,,,,,,,,,,,,,,,,,,,,,,,,,,,950.7450991999999,951.7460302,951.7293657,952.2889273000001,952.2889273000001,None,953.824924,None,left,1.9211691000002702,953.824924,None,955.7667849,None,right,0.3556577000001653,955.7667849,None,,,,,,,,,,,,,,,,,,,,,,,PPT56,001,2022-07-15_13h59.26.567,ABstudy,2022.1.4,59.877908943638616,
AB,Lag1_T1A_T2A,1,A,A,8,9,7,4,13,Recycling bin,Did you see the Recycling bin?,0.12,0.016,JPG\,brick,plate01b,pen04b,toaster01,screwdriver04b,candle01,envelope03a,feather03a,pig,ring01,orange,clock01a,lighter01,blankImage,blankImage,blankImage,blankImage,bumpercar,,,,,,,,,,,,0,135,135,292,,,,,,,,,,,,,,,,,,,,,,,,,,,,,,,,,,,956.1504405999999,957.1514124,957.1347381999999,957.6986429999997,957.6986429999997,None,959.3373495999999,None,right,1.1050818999999592,959.3373495999999,None,960.4713105999999,None,right,0.3723151000001508,960.4713105999999,None,,,,,,,,,,,,,,,,,,,,,,,PPT56,001,2022-07-15_13h59.26.567,ABstudy,2022.1.4,59.877908943638616,
AB,Lag5_T1A_T2P,5,A,P,6,11,5,3,14,keys,Did you see the keys?,0.12,0.016,JPG\,pencil01,microscope,banana01,computerkeyboard02,celery,cellphone,scissors01,sock01a,book01b,onion,stapler03a,binoculars01b,baseball01a,iron01b,blankImage,blankImage,blankImage,treadmill,,,,,,,,,,,,0,136,136,275,,,,,,,,,,,,,,,,,,,,,,,,,,,,,,,,,,,960.871807,961.8728099999998,961.856624,962.4085491000001,962.4085491000001,None,964.2519849999999,None,right,1.557712600000059,964.2519849999999,None,965.8266331,None,right,0.4955661000001328,965.8266331,None,,,,,,,,,,,,,,,,,,,,,,,PPT56,001,2022-07-15_13h59.26.567,ABstudy,2022.1.4,59.877908943638616,
AB,Lag5_T1P_T2P,5,P,P,5,10,4,5,15,ear,Did you see the ear?,0.12,0.016,JPG\,fork03c,plate01b,toiletpaper01a,greenolive,ear,blueberry01,onion,calculator01,envelope03a,stapler06,book01b,pencil01,sewingmachine01a,brick,watermelon01,blankImage,blankImage,ear,,,,,,,,,,,,0,137,137,107,,,,,,,,,,,,,,,,,,,,,,,,,,,,,,,,,,,966.3440801000002,967.3448920999999,967.3282823,967.8800453999997,967.8800453999997,None,969.7964625999998,None,left,1.1173347000001286,969.7964625999998,None,970.9316997000001,None,left,0.44655200000011064,970.9316997000001,None,,,,,,,,,,,,,,,,,,,,,,,PPT56,001,2022-07-15_13h59.26.567,ABstudy,2022.1.4,59.877908943638616,
AB,Lag5_T1A_T2P,5,A,P,8,13,7,4,17,wrench,Did you see the wrench?,0.12,0.016,JPG\,clock01a,grape01,plate01b,key01,screwdriver04b,feather03a,pineapple01a,iron01b,toothbrush03b,comb02a,broom01,toaster01,stapler05,garlic01a,match,ashtray01,blankImage,seal,,,,,,,,,,,,0,138,138,272,,,,,,,,,,,,,,,,,,,,,,,,,,,,,,,,,,,971.3990273999998,972.4001783999997,972.3832517000001,972.9480776999999,972.9480776999999,None,974.9713474,None,right,1.3914101000002574,974.9713474,None,976.3873033,None,right,0.24660579999977017,976.3873033,None,,,,,,,,,,,,,,,,,,,,,,,PPT56,001,2022-07-15_13h59.26.567,ABstudy,2022.1.4,59.877908943638616,
AB,Lag1_T1P_T2P,1,P,P,5,6,4,3,9,camel,Did you see the camel?,0.12,0.016,JPG\,iron01b,brick,broccoli01a,balloon01b,dromedary,stapler05,sandal,teabag,scissors01,blankImage,blankImage,blankImage,blankImage,blankImage,blankImage,blankImage,blankImage,dromedary,,,,,,,,,,,,0,139,139,11,,,,,,,,,,,,,,,,,,,,,,,,,,,,,,,,,,,976.6542206999998,977.6551897999998,977.6385774999999,978.2029856999998,978.2029856999998,None,979.3361402999999,None,left,1.393634499999962,979.3361402999999,None,980.7583613000002,None,right,0.6356309999998757,980.7583613000002,None,,,,,,,,,,,,,,,,,,,,,,,PPT56,001,2022-07-15_13h59.26.567,ABstudy,2022.1.4,59.877908943638616,
