TrialType,CondType,Lag,T1_PA,T2_PA,T1Loc,T2Loc,PreDistractor,PostDistractor,TotalImg,cueWord,T1cue,StimLength,isi,PicFolder,Img1,Img2,Img3,Img4,Img5,Img6,Img7,Img8,Img9,Img10,Img11,Img12,Img13,Img14,Img15,Img16,Img17,T1_Identity,ImageType,T1PA,T2PA,Picture,Image,FullPathName,FilePath,Practice_Trials.thisRepN,Practice_Trials.thisTrialN,Practice_Trials.thisN,Practice_Trials.thisIndex,trials.thisRepN,trials.thisTrialN,trials.thisN,trials.thisIndex,trials_2.thisRepN,trials_2.thisTrialN,trials_2.thisN,trials_2.thisIndex,Practice_Ins.started,Practice_Ins.stopped,End_Prac_Ins.keys,End_Prac_Ins.rt,End_Prac_Ins.started,End_Prac_Ins.stopped,text_2.started,text_2.stopped,Fixation_Cross_2.started,Fixation_Cross_2.stopped,Rapid_Image_Present_2.started,Rapid_Image_Present_2.stopped,key_resp.keys,key_resp.rt,key_resp.started,key_resp.stopped,T1Response_2.started,T1Response_2.stopped,T2Response_2.started,T2Response_2.stopped,key_resp_4.keys,key_resp_4.rt,key_resp_4.started,key_resp_4.stopped,text.started,text.stopped,End_Instructions.keys,End_Instructions.rt,End_Instructions.started,End_Instructions.stopped,text_5.started,text_5.stopped,FC.started,FC.stopped,Rapid_Image_Present.started,Rapid_Image_Present.stopped,T1Response.started,T1Response.stopped,key_resp_2.keys,key_resp_2.rt,key_resp_2.started,key_resp_2.stopped,T2Response.started,T2Response.stopped,key_resp_3.keys,key_resp_3.rt,key_resp_3.started,key_resp_3.stopped,text_6.started,text_6.stopped,Fin_ins.keys,Fin_ins.rt,Fin_ins.started,Fin_ins.stopped,MemTest.started,MemTest.stopped,MemResponse.keys,MemResponse.rt,MemResponse.started,MemResponse.stopped,Display.started,Display.stopped,text_7.started,text_7.stopped,endOfExperiment.started,endOfExperiment.stopped,key_resp_5.keys,key_resp_5.rt,key_resp_5.started,key_resp_5.stopped,participant,session,date,expName,psychopyVersion,frameRate,
,,,,,,,,,,,,,,,,,,,,,,,,,,,,,,,,,,,,,,,,,,,,,,,,,,,,30.07782040000893,None,space,18.577658599999268,30.07782040000893,None,,,,,,,,,,,,,,,,,,,,,,,,,,,,,,,,,,,,,,,,,,,,,,,,,,,,,,,,,,,,,,,,,PPT59,001,2022-07-17_12h00.56.937,ABstudy,2022.1.4,60.10092146615832,
AB_Prac,Lag1_T1P_T2A,1,P,A,5,6,4,5,11,Webcam,Did you see the Webcam?,0.5,0.016,JPG\,pictureframe04,binder03b,straw,adjustablewrench01b,webcam,cane,hairdryer02a,icepack,kitchenscale01a,lifejacket,piggybank,blankImage,blankImage,blankImage,blankImage,blankImage,blankImage,webcam,,,,,,,,0,0,0,6,,,,,,,,,,,,,,,48.723710599995684,49.73849829999381,49.72194149999996,50.326703700004146,50.326703700004146,None,left,1.2495768000080716,55.822190400009276,None,55.822190400009276,None,57.09556529999827,None,right,0.8158010000188369,57.09556529999827,None,,,,,,,,,,,,,,,,,,,,,,,,,,,,,,,,,,,,,,,,,,,,,,,PPT59,001,2022-07-17_12h00.56.937,ABstudy,2022.1.4,60.10092146615832,
AB_Prac,Lag5_T1P_T2A,5,P,A,6,11,5,5,16,Wheat,Did you see the Wheat?,0.5,0.016,JPG\,bottleopener01,dentalfloss03b,cooler01,icecreamcone01a,paperclip01b,wheat,pencilsharpener02a,plasticbasket01a,toycar04,apricot,hairclip02,rock01a,honeydewmelon,antenna,blackberry,cardboardbox,blankImage,wheat,,,,,,,,0,1,1,7,,,,,,,,,,,,,,,57.98572590001277,58.99788070001523,58.981050300004426,59.53927450001356,59.53927450001356,None,left,0.668338199990103,67.57921729999362,None,67.57921729999362,None,68.27364180001314,None,right,0.6056905000004917,68.27364180001314,None,,,,,,,,,,,,,,,,,,,,,,,,,,,,,,,,,,,,,,,,,,,,,,,PPT59,001,2022-07-17_12h00.56.937,ABstudy,2022.1.4,60.10092146615832,
AB_Prac,Lag1_T1A_T2A,1,A,A,8,9,7,3,12,Moose,Did you see the Moose?,0.5,0.016,JPG\,clothespin03b,corkscrew03a,drillbit03a,fusilli03a,needlenosepliers01,perfume01a,pistachio,scrubbingbrush05b,spatula03,toothpastetube,hinge,toydinosaur,blankImage,blankImage,blankImage,blankImage,blankImage,None,,,,,,,,0,2,2,10,,,,,,,,,,,,,,,68.90748290001648,69.90854060000856,69.8919947000104,70.45259250001982,70.45259250001982,None,right,1.2845428000146057,76.52274430001853,None,76.52274430001853,None,77.83310230000643,None,right,0.7022410999925341,77.83310230000643,None,,,,,,,,,,,,,,,,,,,,,,,,,,,,,,,,,,,,,,,,,,,,,,,PPT59,001,2022-07-17_12h00.56.937,ABstudy,2022.1.4,60.10092146615832,
AB_Prac,Lag5_T1P_T2P,5,P,P,7,12,6,3,15,vacuum,Did you see the vacuum?,0.5,0.016,JPG\,fork07b,lightbulb01,manshoe,saw02b,shoelace,soap03a,vacuumcleaner01,floortile01,necklace,doll,cabbage,stapler03a,hanger02a,laptop01a,nailpolish03b,blankImage,blankImage,vacuumcleaner01,,,,,,,,0,3,3,2,,,,,,,,,,,,,,,78.56726060001529,79.56812260000152,79.55189550001523,80.11080950000905,80.11080950000905,None,left,0.6071562000142876,87.66504330001771,None,87.66504330001771,None,88.29356520000147,None,left,0.49043810000875965,88.29356520000147,None,,,,,,,,,,,,,,,,,,,,,,,,,,,,,,,,,,,,,,,,,,,,,,,PPT59,001,2022-07-17_12h00.56.937,ABstudy,2022.1.4,60.10092146615832,
AB_Prac,Lag1_T1P_T2A,1,P,A,8,9,7,5,14,flower,Did you see the flower?,0.5,0.016,JPG\,razor01,axe01,binder03b,bowl01,kettle01,lettuce,lime,plasticflower01b,mitten04,pencilcase01,plunger02,strawbasket01,toothpick02,wallet02a,blankImage,blankImage,blankImage,plasticflower01b,,,,,,,,0,4,4,5,,,,,,,,,,,,,,,88.81084580000606,89.8119598000194,89.79514249999193,90.3580254999979,90.3580254999979,None,left,0.6259347999875899,97.40572189999511,None,97.40572189999511,None,98.05336389999138,None,right,0.44314139999914914,98.05336389999138,None,,,,,,,,,,,,,,,,,,,,,,,,,,,,,,,,,,,,,,,,,,,,,,,PPT59,001,2022-07-17_12h00.56.937,ABstudy,2022.1.4,60.10092146615832,
AB_Prac,Lag5_T1P_T2P,5,P,P,5,10,4,5,15,washing machine,Did you see the washing machine?,0.5,0.016,JPG\,waterbottle03,wheel01,flashlight02b,zucchini01,washingmachine,headphones02b,nutcracker01,paintroller01,paperclip03,stapler06,ribbon04,electricrazor,bottleofredwine01,pitabread,pot02a,blankImage,blankImage,washingmachine,,,,,,,,0,5,5,4,,,,,,,,,,,,,,,98.61815610001213,99.62166040000739,99.60465079999994,100.22379509999882,100.15204330001143,None,left,0.5886584999971092,107.60313900001347,None,107.60313900001347,None,108.2134112000058,None,left,0.5534786999924108,108.2134112000058,None,,,,,,,,,,,,,,,,,,,,,,,,,,,,,,,,,,,,,,,,,,,,,,,PPT59,001,2022-07-17_12h00.56.937,ABstudy,2022.1.4,60.10092146615832,
AB_Prac,Lag5_T1P_T2P,5,P,P,5,10,4,5,15,Vulture,Did you see the Vulture?,0.5,0.016,JPG\,shorts01,toast,ramekin01,bib,vulture,cracker02,date,glasses01a,hat03b,stapler01,measuringtape01,nail,pill,drum01,starfish01,blankImage,blankImage,vulture,,,,,,,,0,6,6,3,,,,,,,,,,,,,,,108.7977050000045,109.7981073000119,109.78161130001536,110.34992520001833,110.34992520001833,None,left,0.48414169999887235,117.91594609999447,None,117.91594609999447,None,118.4239091000054,None,left,0.42337609999231063,118.4239091000054,None,,,,,,,,,,,,,,,,,,,,,,,,,,,,,,,,,,,,,,,,,,,,,,,PPT59,001,2022-07-17_12h00.56.937,ABstudy,2022.1.4,60.10092146615832,
AB_Prac,Lag5_T1P_T2A,5,P,A,6,11,5,5,16,bread,Did you see the bread?,0.5,0.016,JPG\,cleaver01,clipboard,dustpan,hikingshoe01,notebook03a,baguette01,playingcard,pliers02b,styrofoamcup,rollingpin01a,swimgoggles,wineglass01,fryingpan02a,safetypin,syringe01,thimble,blankImage,baguette01,,,,,,,,0,7,7,8,,,,,,,,,,,,,,,118.87406500001089,119.87499360000947,119.85840260001714,120.42055169999367,120.42055169999367,None,left,0.7568346000043675,128.5621214999992,None,128.5621214999992,None,129.3511695000052,None,right,0.32861830000183545,129.3511695000052,None,,,,,,,,,,,,,,,,,,,,,,,,,,,,,,,,,,,,,,,,,,,,,,,PPT59,001,2022-07-17_12h00.56.937,ABstudy,2022.1.4,60.10092146615832,
AB_Prac,Lag5_T1A_T2P,5,A,P,6,11,5,3,14,dog,Did you see the dog?,0.5,0.016,JPG\,bucket01a,doorlock,cookiecutter,fireextinguisher01,gluestick,highlighter02b,sportbag,spraybottle01,suitcase,thread02,stapler05,walnut01c,icecubetray01a,vikingmask01b,blankImage,blankImage,blankImage,None,,,,,,,,0,8,8,9,,,,,,,,,,,,,,,129.7014971000026,130.70288070000242,130.68587069999194,131.2594434999919,131.2594434999919,None,right,1.1582369999960065,138.28907240001718,None,138.28907240001718,None,139.4780604999978,None,left,0.6660473000083584,139.4780604999978,None,,,,,,,,,,,,,,,,,,,,,,,,,,,,,,,,,,,,,,,,,,,,,,,PPT59,001,2022-07-17_12h00.56.937,ABstudy,2022.1.4,60.10092146615832,
AB_Prac,Lag1_T1P_T2P,1,P,P,8,9,7,5,14,Tennis racket,Did you see the Tennis racket?,0.5,0.016,JPG\,coconut,computermouse06,croissant01,deodorant02a,pillow01a,peanut01,boot02b,tennisracket,stapler03b,crayon,eggplant,marker01a,plant01,radish01,blankImage,blankImage,blankImage,tennisracket,,,,,,,,0,9,9,0,,,,,,,,,,,,,,,140.16197839999222,141.16295160001027,141.1461355999927,141.72685890001594,141.72685890001594,None,left,0.47230679998756386,148.7664633000095,None,148.7664633000095,None,149.27101310002035,None,left,0.45572830000310205,149.27101310002035,None,,,,,,,,,,,,,,,,,,,,,,,,,,,,,,,,,,,,,,,,,,,,,,,PPT59,001,2022-07-17_12h00.56.937,ABstudy,2022.1.4,60.10092146615832,
AB_Prac,Lag5_T1A_T2A,5,A,A,6,11,5,5,16,castle,Did you see the castle?,0.5,0.016,JPG\,tape02a,englishmuffin,flask,ladle02a,monitor,peach01,keychain,squeegee01b,telephone01b,whisk,walkman,syringe02,baguette01,coaster,box01a,coffeepot03a,blankImage,None,,,,,,,,0,10,10,11,,,,,,,,,,,,,,,149.75472319999244,150.75576140001067,150.73914320001495,151.31817559999763,151.31817559999763,None,right,0.8227037999895401,159.40842580000754,None,159.40842580000754,None,160.24851400000625,None,right,0.29414459998952225,160.24851400000625,None,,,,,,,,,,,,,,,,,,,,,,,,,,,,,,,,,,,,,,,,,,,,,,,PPT59,001,2022-07-17_12h00.56.937,ABstudy,2022.1.4,60.10092146615832,
AB_Prac,Lag1_T1P_T2P,1,P,P,6,7,5,5,12,triangle,Did you see the triangle?,0.5,0.016,JPG\,ginger,mousetrap,plum01,slipper01b,dropper01,triangle,stapler04b,pants,raspberry01,rope03,scale01a,vase01,blankImage,blankImage,blankImage,blankImage,blankImage,triangle,,,,,,,,0,11,11,1,,,,,,,,,,,,,,,160.56553220000933,161.56738570000743,161.5499000000127,162.1149808000191,162.1149808000191,None,left,0.42741649999516085,168.2197240999958,None,168.2197240999958,None,168.6736351000145,None,left,0.36567810000269674,168.6736351000145,None,,,,,,,,,,,,,,,,,,,,,,,,,,,,,,,,,,,,,,,,,,,,,,,PPT59,001,2022-07-17_12h00.56.937,ABstudy,2022.1.4,60.10092146615832,
,,,,,,,,,,,,,,,,,,,,,,,,,,,,,,,,,,,,,,,,,,,,,,,,,,,,,,,,,,,,,,,,,,,,,,,,,,,,169.0572427000152,None,space,10.93348189999233,169.0572427000152,None,,,,,,,,,,,,,,,,,,,,,,,,,,,,,,,,,,,,,,,,,PPT59,001,2022-07-17_12h00.56.937,ABstudy,2022.1.4,60.10092146615832,
AB,Lag5_T1A_T2P,5,A,P,5,10,4,5,15,Eye patch,Did you see the Eye patch?,0.12,0.016,JPG\,scissors01,balloon01b,eraser,feather03a,banana01,candle01,measuringcup01,calculator01,thermometer02b,stapler03b,pear01,carrot01,globe,baseball01a,leaf02a,blankImage,blankImage,cross01,,,,,,,,,,,,0,0,0,258,,,,,,,,,,,,,,,,,,,,,,,,,,,,,,,,,,,180.66328540001996,181.67007379999268,181.65315660001943,182.25914939999348,182.25914939999348,None,184.0649434000079,None,right,1.2539862999983598,184.0649434000079,None,185.34012380000786,None,right,0.72244809998665,185.34012380000786,None,,,,,,,,,,,,,,,,,,,,,,,PPT59,001,2022-07-17_12h00.56.937,ABstudy,2022.1.4,60.10092146615832,
AB,Lag5_T1P_T2P,5,P,P,5,10,4,5,15,scorpion,Did you see the scorpion?,0.12,0.016,JPG\,fan,tomato01,candy,screwdriver04b,scorpion,cd,thermometer02b,apple07,button01,stapler01,brownsugar,lighter01,clock01a,envelope03a,clock04,blankImage,blankImage,scorpion,,,,,,,,,,,,0,1,1,97,,,,,,,,,,,,,,,,,,,,,,,,,,,,,,,,,,,186.09100810001837,187.09191190000274,187.07528789999196,187.6449258000066,187.6449258000066,None,189.48915269999998,None,left,0.4947589000221342,189.48915269999998,None,190.01162239999394,None,left,0.38837480000802316,190.01162239999394,None,,,,,,,,,,,,,,,,,,,,,,,PPT59,001,2022-07-17_12h00.56.937,ABstudy,2022.1.4,60.10092146615832,
AB,Lag1_T1P_T2A,1,P,A,5,6,4,4,10,flower,Did you see the flower?,0.12,0.016,JPG\,broom01,globe,cellphone,tableknife02,daffodil,scissors01,ring01,alligator,rice,toaster01,blankImage,blankImage,blankImage,blankImage,blankImage,blankImage,blankImage,daffodil,,,,,,,,,,,,0,2,2,184,,,,,,,,,,,,,,,,,,,,,,,,,,,,,,,,,,,190.42835900001228,191.42970100001548,191.41284430000815,191.97188640001696,191.97188640001696,None,193.20809349999763,None,right,0.686706000007689,193.20809349999763,None,193.91554250000627,None,right,0.3630878000112716,193.91554250000627,None,,,,,,,,,,,,,,,,,,,,,,,PPT59,001,2022-07-17_12h00.56.937,ABstudy,2022.1.4,60.10092146615832,
AB,Lag1_T1P_T2P,1,P,P,6,7,5,3,10,fortune cookie,Did you see the fortune cookie?,0.12,0.016,JPG\,scissors01,grape01,mushroom01,toiletpaper01a,greenolive,fortunecookie,stapler03b,ashtray01,carrot01,pineapple01a,blankImage,blankImage,blankImage,blankImage,blankImage,blankImage,blankImage,fortunecookie,,,,,,,,,,,,0,3,3,42,,,,,,,,,,,,,,,,,,,,,,,,,,,,,,,,,,,194.2993422000145,195.30011179999565,195.283520099998,195.8423873000138,195.8423873000138,None,197.10963960000663,None,left,0.47367980002309196,197.10963960000663,None,197.60241220000898,None,left,0.3325157999934163,197.60241220000898,None,,,,,,,,,,,,,,,,,,,,,,,PPT59,001,2022-07-17_12h00.56.937,ABstudy,2022.1.4,60.10092146615832,
AB,Lag5_T1P_T2A,5,P,A,7,12,6,3,15,Toy soldier,Did you see the Toy soldier?,0.12,0.016,JPG\,binoculars01b,cymbal,pizza,candy,paintbrush01,sponge01,toysoldier01b,thermometer02b,speaker04,lemon02,lipstick02a,strawberry,candle01,acorn,plate01b,blankImage,blankImage,toysoldier01b,,,,,,,,,,,,0,4,4,203,,,,,,,,,,,,,,,,,,,,,,,,,,,,,,,,,,,197.95278650001273,198.95378800001345,198.936976099998,199.5068031999981,199.5068031999981,None,201.34589520000736,None,left,0.44484800001373515,201.34589520000736,None,201.82327870000154,None,right,0.7756501999974716,201.82327870000154,None,,,,,,,,,,,,,,,,,,,,,,,PPT59,001,2022-07-17_12h00.56.937,ABstudy,2022.1.4,60.10092146615832,
AB,Lag5_T1P_T2P,5,P,P,5,10,4,5,15,baseball bat,Did you see the baseball bat?,0.12,0.016,JPG\,pizza,printer02,medal02b,spoon01,baseballbat,lighter01,belt02a,watermelon01,celery,stapler04b,screw02,comb02a,cauliflower01,lipstick02a,potato02b,blankImage,blankImage,baseballbat,,,,,,,,,,,,0,5,5,123,,,,,,,,,,,,,,,,,,,,,,,,,,,,,,,,,,,202.65517750001163,203.658488999994,203.64165720000165,204.2136998999922,204.2136998999922,None,206.02740500000073,None,left,0.3635162999853492,206.02740500000073,None,206.41109599999618,None,left,0.36519110001972876,206.41109599999618,None,,,,,,,,,,,,,,,,,,,,,,,PPT59,001,2022-07-17_12h00.56.937,ABstudy,2022.1.4,60.10092146615832,
AB,Lag5_T1A_T2P,5,A,P,8,13,7,5,18,fish,Did you see the fish?,0.12,0.016,JPG\,scissors01,grape01,mushroom01,toiletpaper01a,greenolive,pizza,cigarette,ashtray01,carrot01,pineapple01a,foosballtable,lipstick02a,stapler04b,tambourine02,potato02b,violin,blankImage,chimney,,,,,,,,,,,,0,6,6,283,,,,,,,,,,,,,,,,,,,,,,,,,,,,,,,,,,,206.79500740001095,207.79616699999315,207.77922359999502,208.33254140001372,208.33254140001372,None,210.3963955999934,None,right,0.9632559999881778,210.3963955999934,None,211.38270129999728,None,left,0.4332066999922972,211.38270129999728,None,,,,,,,,,,,,,,,,,,,,,,,PPT59,001,2022-07-17_12h00.56.937,ABstudy,2022.1.4,60.10092146615832,
AB,Lag1_T1P_T2P,1,P,P,8,9,7,3,12,Wheelchair,Did you see the Wheelchair?,0.12,0.016,JPG\,cigarette,pig,banana01,strawberry,clock01a,plate01b,spoon01,wheelchair,stapler03b,pineapple01a,chain01,paintbrush01,blankImage,blankImage,blankImage,blankImage,blankImage,wheelchair,,,,,,,,,,,,0,7,7,27,,,,,,,,,,,,,,,,,,,,,,,,,,,,,,,,,,,211.83330820000265,212.83464839999215,212.8174946999934,213.3743871000188,213.3743871000188,None,214.9227679000178,None,left,0.6926291999989189,214.9227679000178,None,215.63717649999307,None,right,0.417713900009403,215.63717649999307,None,,,,,,,,,,,,,,,,,,,,,,,PPT59,001,2022-07-17_12h00.56.937,ABstudy,2022.1.4,60.10092146615832,
AB,Lag1_T1P_T2P,1,P,P,6,7,5,4,11,Bow,Did you see the Bow?,0.12,0.016,JPG\,broom01,plate01b,scissors01,garlic01a,paintbrush01,bow,stapler03a,shirt02,speaker04,celery,sandal,blankImage,blankImage,blankImage,blankImage,blankImage,blankImage,bow,,,,,,,,,,,,0,8,8,53,,,,,,,,,,,,,,,,,,,,,,,,,,,,,,,,,,,216.08748610000475,217.08852910000132,217.07172010000795,217.62482240001555,217.62482240001555,None,219.00343529999373,None,right,0.8280804999812972,219.00343529999373,None,219.85801160000847,None,left,0.35736829999950714,219.85801160000847,None,,,,,,,,,,,,,,,,,,,,,,,PPT59,001,2022-07-17_12h00.56.937,ABstudy,2022.1.4,60.10092146615832,
AB,Lag5_T1P_T2P,5,P,P,5,10,4,3,13,rose,Did you see the rose?,0.12,0.016,JPG\,lipstick02a,cucumber,candle08b,printer02,rose,violin,paintbrush01,lighter01,belt02a,stapler03b,thermometer02b,microscope,cigarette,blankImage,blankImage,blankImage,blankImage,rose,,,,,,,,,,,,0,9,9,158,,,,,,,,,,,,,,,,,,,,,,,,,,,,,,,,,,,220.24170270000468,221.24260600001435,221.22597769999993,221.78173310001148,221.78173310001148,None,223.41323850001208,None,left,0.9299442999763414,223.41323850001208,None,224.36230080001405,None,left,0.38849260000279173,224.36230080001405,None,,,,,,,,,,,,,,,,,,,,,,,PPT59,001,2022-07-17_12h00.56.937,ABstudy,2022.1.4,60.10092146615832,
AB,Lag5_T1A_T2A,5,A,A,7,12,6,4,16,boxing glove,Did you see the boxing glove?,0.12,0.016,JPG\,cherry01,cymbal,envelope03a,foosballtable,shirt02,cellphone,sewingmachine01a,candle08b,battery02b,apple07,pencil01,screwdriver04b,strawberry,sunglasses04,feather03a,rice,blankImage,lollipop04,,,,,,,,,,,,0,10,10,296,,,,,,,,,,,,,,,,,,,,,,,,,,,,,,,,,,,224.77966520001064,225.7805781000061,225.76373820001027,226.3268609000079,226.3268609000079,None,228.2855402000132,None,right,0.6169529000180773,228.2855402000132,None,228.93358010001248,None,right,0.3209936000057496,228.93358010001248,None,,,,,,,,,,,,,,,,,,,,,,,PPT59,001,2022-07-17_12h00.56.937,ABstudy,2022.1.4,60.10092146615832,
AB,Lag1_T1A_T2P,1,A,P,5,6,4,3,9,barrel,Did you see the barrel?,0.12,0.016,JPG\,clock01a,cellphone,toaster01,toothbrush03b,cauliflower01,stapler01,comb02a,paintbrush01,scarf,blankImage,blankImage,blankImage,blankImage,blankImage,blankImage,blankImage,blankImage,sheep,,,,,,,,,,,,0,11,11,243,,,,,,,,,,,,,,,,,,,,,,,,,,,,,,,,,,,229.28404440000304,230.2849653000012,230.2682938000071,230.83285959999193,230.83285959999193,None,231.95375330001116,None,right,0.5893308999948204,231.95375330001116,None,232.57055510001373,None,left,0.3489003999857232,232.57055510001373,None,,,,,,,,,,,,,,,,,,,,,,,PPT59,001,2022-07-17_12h00.56.937,ABstudy,2022.1.4,60.10092146615832,
AB,Lag1_T1P_T2P,1,P,P,8,9,7,4,13,Hula hoop,Did you see the Hula hoop?,0.12,0.016,JPG\,brownsugar,candle01,match,printer02,broom01,balloon01b,belt02a,hulahoop,stapler04b,feather03a,rice,mushroom01,pencil01,blankImage,blankImage,blankImage,blankImage,hulahoop,,,,,,,,,,,,0,12,12,64,,,,,,,,,,,,,,,,,,,,,,,,,,,,,,,,,,,232.9376140999957,233.93865620001452,233.92179650001344,234.42256380000617,234.42256380000617,None,236.07422559999395,None,left,0.39662039998802356,236.07422559999395,None,236.49195200001122,None,left,0.3385265000106301,236.49195200001122,None,,,,,,,,,,,,,,,,,,,,,,,PPT59,001,2022-07-17_12h00.56.937,ABstudy,2022.1.4,60.10092146615832,
AB,Lag5_T1P_T2P,5,P,P,8,13,7,5,18,sock,Did you see the sock?,0.12,0.016,JPG\,thermometer02b,avocado01,scissors01,tennisball01b,medal02b,banana01,strawberry,athleticsock,potato02b,pineapple01a,microscope,cymbal,stapler03b,celery,garlic01a,sunglasses04,blankImage,athleticsock,,,,,,,,,,,,0,13,13,141,,,,,,,,,,,,,,,,,,,,,,,,,,,,,,,,,,,236.85784499999136,237.85917440001504,237.84257500001695,238.40120710001793,238.40120710001793,None,240.4129760999931,None,left,0.42572650001966394,240.4129760999931,None,240.86380379999173,None,left,0.33512879998306744,240.86380379999173,None,,,,,,,,,,,,,,,,,,,,,,,PPT59,001,2022-07-17_12h00.56.937,ABstudy,2022.1.4,60.10092146615832,
AB,Lag5_T1A_T2P,5,A,P,7,12,6,3,15,hockey puck,Did you see the hockey puck?,0.12,0.016,JPG\,toiletpaper01a,lipstick02a,potato02b,speaker04,globe,strawberry,carrot01,plate01b,sock01a,candle08b,pen04b,stapler04b,foosballtable,brick,pear01,blankImage,blankImage,frisbee,,,,,,,,,,,,0,14,14,260,,,,,,,,,,,,,,,,,,,,,,,,,,,,,,,,,,,241.22922520001885,242.23042649999843,242.2138790000172,242.78934800002025,242.78934800002025,None,244.62027730001137,None,right,0.5464344999927562,244.62027730001137,None,245.18387050001184,None,right,0.3026497999962885,245.18387050001184,None,,,,,,,,,,,,,,,,,,,,,,,PPT59,001,2022-07-17_12h00.56.937,ABstudy,2022.1.4,60.10092146615832,
AB,Lag5_T1P_T2P,5,P,P,5,10,4,5,15,hockey puck,Did you see the hockey puck?,0.12,0.016,JPG\,chain01,pen04b,birthdaycandle,watermelon01,hockeypuck,scissors01,measuringcup01,candle01,hammer01,stapler06,ashtray01,feather03a,sewingmachine01a,thermometer02b,alligator,blankImage,blankImage,hockeypuck,,,,,,,,,,,,0,15,15,110,,,,,,,,,,,,,,,,,,,,,,,,,,,,,,,,,,,245.51704500001506,246.5181212000025,246.50092250001035,247.0589750999934,247.0589750999934,None,248.86781729999348,None,right,0.4828309000004083,248.86781729999348,None,249.37064579999424,None,left,0.29224079998675734,249.37064579999424,None,,,,,,,,,,,,,,,,,,,,,,,PPT59,001,2022-07-17_12h00.56.937,ABstudy,2022.1.4,60.10092146615832,
AB,Lag5_T1P_T2P,5,P,P,7,12,6,3,15,Eye patch,Did you see the Eye patch?,0.12,0.016,JPG\,candle01,paintbrush01,scissors01,fan,microscope,toothbrush03b,eyepatch,watermelon01,teabag,pencil01,lemon02,stapler05,shirt02,cauliflower01,cd,blankImage,blankImage,eyepatch,,,,,,,,,,,,0,16,16,108,,,,,,,,,,,,,,,,,,,,,,,,,,,,,,,,,,,249.68828639999265,250.68861790001392,250.67197160000796,251.2259705000033,251.2259705000033,None,253.09801340001286,None,left,0.3884306999971159,253.09801340001286,None,253.50817710001138,None,left,0.3230916999746114,253.50817710001138,None,,,,,,,,,,,,,,,,,,,,,,,PPT59,001,2022-07-17_12h00.56.937,ABstudy,2022.1.4,60.10092146615832,
AB,Lag5_T1P_T2P,5,P,P,6,11,5,5,16,scooter,Did you see the scooter?,0.12,0.016,JPG\,thermometer02b,candle08b,comb02a,toothbrush03b,brick,scooter,key01,pineapple01a,candy,birthdaycandle,stapler04b,canoftennisballs,teabag,medal02b,balloon01b,banana01,blankImage,scooter,,,,,,,,,,,,0,17,17,118,,,,,,,,,,,,,,,,,,,,,,,,,,,,,,,,,,,253.8580162000144,254.85937540000305,254.84277650000877,255.40308230000664,255.40308230000664,None,257.3624401999987,None,left,0.3566071000241209,257.3624401999987,None,257.7456790000142,None,left,0.34953750000568107,257.7456790000142,None,,,,,,,,,,,,,,,,,,,,,,,PPT59,001,2022-07-17_12h00.56.937,ABstudy,2022.1.4,60.10092146615832,
AB,Lag1_T1P_T2P,1,P,P,8,9,7,5,14,bullet,Did you see the bullet?,0.12,0.016,JPG\,measuringcup01,dice05a,greenolive,lipstick02a,feather03a,balloon01b,lighter01,bullet,stapler04b,plate01b,microscope,brick,thermometer02b,screw02,blankImage,blankImage,blankImage,bullet,,,,,,,,,,,,0,18,18,57,,,,,,,,,,,,,,,,,,,,,,,,,,,,,,,,,,,258.11275640001986,259.1135598999972,259.09696870000334,259.6620048000186,259.6620048000186,None,261.3588296000089,None,left,0.3526817999954801,261.3588296000089,None,261.7329067999963,None,left,0.3694534000242129,261.7329067999963,None,,,,,,,,,,,,,,,,,,,,,,,PPT59,001,2022-07-17_12h00.56.937,ABstudy,2022.1.4,60.10092146615832,
AB,Lag1_T1A_T2P,1,A,P,8,9,7,3,12,seal,Did you see the seal?,0.12,0.016,JPG\,dice05a,watch02a,pig,lighter01,button01,strawberry,paintbrush01,microscope,stapler03a,pen04b,feather03a,8ball,blankImage,blankImage,blankImage,blankImage,blankImage,hockeystick,,,,,,,,,,,,0,19,19,235,,,,,,,,,,,,,,,,,,,,,,,,,,,,,,,,,,,262.1332753000024,263.1343574000057,263.11776359999203,263.67885789999855,263.67885789999855,None,265.2531345000025,None,right,0.6335431000043172,265.2531345000025,None,265.90518420000444,None,right,0.31026999998721294,265.90518420000444,None,,,,,,,,,,,,,,,,,,,,,,,PPT59,001,2022-07-17_12h00.56.937,ABstudy,2022.1.4,60.10092146615832,
AB,Lag5_T1P_T2P,5,P,P,5,10,4,4,14,duck,Did you see the duck?,0.12,0.016,JPG\,celery,pencil01,fan,foosballtable,duck01,shirt02,potato02b,fork03c,button01,stapler03a,baseball01a,printer02,cauliflower01,dandelion,blankImage,blankImage,blankImage,duck01,,,,,,,,,,,,0,20,20,130,,,,,,,,,,,,,,,,,,,,,,,,,,,,,,,,,,,266.23742320001475,267.2385434000171,267.221724300005,267.7786151000182,267.7786151000182,None,269.4240103000193,None,left,0.33446299997740425,269.4240103000193,None,269.7906673999969,None,left,0.3519170999934431,269.7906673999969,None,,,,,,,,,,,,,,,,,,,,,,,PPT59,001,2022-07-17_12h00.56.937,ABstudy,2022.1.4,60.10092146615832,
AB,Lag5_T1A_T2P,5,A,P,8,13,7,4,17,wrench,Did you see the wrench?,0.12,0.016,JPG\,clock01a,grape01,plate01b,key01,screwdriver04b,feather03a,pineapple01a,iron01b,toothbrush03b,comb02a,broom01,toaster01,stapler05,garlic01a,match,ashtray01,blankImage,seal,,,,,,,,,,,,0,21,21,272,,,,,,,,,,,,,,,,,,,,,,,,,,,,,,,,,,,270.1746481000155,271.17574440001044,271.1588788999943,271.72583229999873,271.72583229999873,None,273.734712400008,None,right,0.544273500010604,273.734712400008,None,274.2955539000104,None,left,0.2709624000126496,274.2955539000104,None,,,,,,,,,,,,,,,,,,,,,,,PPT59,001,2022-07-17_12h00.56.937,ABstudy,2022.1.4,60.10092146615832,
AB,Lag1_T1P_T2P,1,P,P,5,6,4,3,9,mail box,Did you see the mail box?,0.12,0.016,JPG\,watermelon01,banana01,ring01,pencil01,mailbox02,stapler04b,cucumber,thermometer02b,key01,blankImage,blankImage,blankImage,blankImage,blankImage,blankImage,blankImage,blankImage,mailbox02,,,,,,,,,,,,0,22,22,21,,,,,,,,,,,,,,,,,,,,,,,,,,,,,,,,,,,274.5956788000185,275.59703540001647,275.5800613000174,276.1504289000004,276.1504289000004,None,277.3154305999924,None,left,0.40323359999456443,277.3154305999924,None,277.7488827999914,None,left,0.3144557000196073,277.7488827999914,None,,,,,,,,,,,,,,,,,,,,,,,PPT59,001,2022-07-17_12h00.56.937,ABstudy,2022.1.4,60.10092146615832,
AB,Lag1_T1P_T2P,1,P,P,7,8,6,3,11,swing,Did you see the swing?,0.12,0.016,JPG\,sewingmachine01a,thermometer02b,sponge01,eraser,broccoli01a,fork03c,swing,stapler03b,belt02a,medal02b,pineapple01a,blankImage,blankImage,blankImage,blankImage,blankImage,blankImage,swing,,,,,,,,,,,,0,23,23,30,,,,,,,,,,,,,,,,,,,,,,,,,,,,,,,,,,,278.08251030000974,279.08353249999345,279.0670078000112,279.6354951999965,279.6354951999965,None,281.0183856000076,None,left,0.3649662000243552,281.0183856000076,None,281.40250510000624,None,left,0.32449249998899177,281.40250510000624,None,,,,,,,,,,,,,,,,,,,,,,,PPT59,001,2022-07-17_12h00.56.937,ABstudy,2022.1.4,60.10092146615832,
AB,Lag5_T1P_T2P,5,P,P,7,12,6,4,16,Bird feeder,Did you see the Bird feeder?,0.12,0.016,JPG\,watermelon01,banana01,ring01,pencil01,tomato01,speaker04,birdfeeder,thermometer02b,key01,foosballtable,violin,stapler06,clock04,dice05a,pen04b,mushroom01,blankImage,birdfeeder,,,,,,,,,,,,0,24,24,164,,,,,,,,,,,,,,,,,,,,,,,,,,,,,,,,,,,281.7529251000087,282.75390219999827,282.7371159000031,283.3083900999918,283.3083900999918,None,285.2628468000039,None,right,0.5277008000120986,285.2628468000039,None,285.8236012000125,None,right,0.2787401999812573,285.8236012000125,None,,,,,,,,,,,,,,,,,,,,,,,PPT59,001,2022-07-17_12h00.56.937,ABstudy,2022.1.4,60.10092146615832,
AB,Lag1_T1P_T2P,1,P,P,5,6,4,5,11,candy cane,Did you see the candy cane?,0.12,0.016,JPG\,shirt02,match,screw02,foosballtable,candycane01a,stapler04b,sewingmachine01a,watch02a,button01,comb02a,dice05a,blankImage,blankImage,blankImage,blankImage,blankImage,blankImage,candycane01a,,,,,,,,,,,,0,25,25,9,,,,,,,,,,,,,,,,,,,,,,,,,,,,,,,,,,,286.1239395000157,287.12492480000947,287.10815600000205,287.67811249999795,287.67811249999795,None,289.0638136000198,None,left,0.3744824999885168,289.0638136000198,None,289.4605642000097,None,left,0.33792890000040643,289.4605642000097,None,,,,,,,,,,,,,,,,,,,,,,,PPT59,001,2022-07-17_12h00.56.937,ABstudy,2022.1.4,60.10092146615832,
AB,Lag5_T1P_T2A,5,P,A,8,13,7,5,18,telescope,Did you see the telescope?,0.12,0.016,JPG\,globe,broccoli01a,binoculars01b,iron01b,avocado01,dandelion,pineapple01a,handheldtelescope,fan,pizza,celery,blueberry01,sewingmachine01a,dice05a,watermelon01,candy,blankImage,handheldtelescope,,,,,,,,,,,,0,26,26,228,,,,,,,,,,,,,,,,,,,,,,,,,,,,,,,,,,,289.8275310000172,290.8286594999954,290.8120204000152,291.3818880000035,291.3818880000035,None,293.3791784000059,None,right,0.42749460000777617,293.3791784000059,None,293.83172499999637,None,right,0.33446310000726953,293.83172499999637,None,,,,,,,,,,,,,,,,,,,,,,,PPT59,001,2022-07-17_12h00.56.937,ABstudy,2022.1.4,60.10092146615832,
AB,Lag5_T1P_T2A,5,P,A,8,13,7,4,17,knife,Did you see the knife?,0.12,0.016,JPG\,lighter01,hammer01,spoon01,chain01,cymbal,sponge01,lipstick02a,knife03,pig,watermelon01,cauliflower01,lemon02,broccoli01a,tableknife02,tennisball01b,toothbrush03b,blankImage,knife03,,,,,,,,,,,,0,27,27,214,,,,,,,,,,,,,,,,,,,,,,,,,,,,,,,,,,,294.2357297000126,295.249624899996,295.23291849999805,295.7940476000076,295.7940476000076,None,297.74355810001725,None,left,0.455132400005823,297.74355810001725,None,298.21912789999624,None,right,0.35520719998748973,298.21912789999624,None,,,,,,,,,,,,,,,,,,,,,,,PPT59,001,2022-07-17_12h00.56.937,ABstudy,2022.1.4,60.10092146615832,
AB,Lag1_T1P_T2P,1,P,P,6,7,5,5,12,owl,Did you see the owl?,0.12,0.016,JPG\,paintbrush01,eraser,medal02b,hammer01,speaker04,greathornowl,stapler01,comb02a,plate01b,clock01a,button01,globe,blankImage,blankImage,blankImage,blankImage,blankImage,greathornowl,,,,,,,,,,,,0,28,28,1,,,,,,,,,,,,,,,,,,,,,,,,,,,,,,,,,,,298.6031413000019,299.603984699992,299.5873320999963,300.14178110001376,300.14178110001376,None,301.7087782000017,None,left,0.3704065000056289,301.7087782000017,None,302.1081305000116,None,left,0.30685779999475926,302.1081305000116,None,,,,,,,,,,,,,,,,,,,,,,,PPT59,001,2022-07-17_12h00.56.937,ABstudy,2022.1.4,60.10092146615832,
AB,Lag1_T1P_T2P,1,P,P,7,8,6,5,13,arrow,Did you see the arrow?,0.12,0.016,JPG\,pencil01,broccoli01a,button01,sponge01,watermelon01,lipstick02a,arrow02,stapler04b,lighter01,sock01a,spoon01,blueberry01,belt02a,blankImage,blankImage,blankImage,blankImage,arrow02,,,,,,,,,,,,0,29,29,76,,,,,,,,,,,,,,,,,,,,,,,,,,,,,,,,,,,302.4401141999988,303.441164799995,303.42433690000325,303.9837047000183,303.9837047000183,None,305.57880119999754,None,left,0.363675400003558,305.57880119999754,None,305.9600035000185,None,left,0.31879900000058115,305.9600035000185,None,,,,,,,,,,,,,,,,,,,,,,,PPT59,001,2022-07-17_12h00.56.937,ABstudy,2022.1.4,60.10092146615832,
AB,Lag5_T1P_T2P,5,P,P,5,10,4,3,13,Jellyfish,Did you see the Jellyfish?,0.12,0.016,JPG\,printer02,envelope03a,potato02b,calculator01,jellyfish,cigarette,ashtray01,pig,broom01,stapler06,candle08b,battery02b,strawberry,blankImage,blankImage,blankImage,blankImage,jellyfish,,,,,,,,,,,,0,30,30,91,,,,,,,,,,,,,,,,,,,,,,,,,,,,,,,,,,,306.310782000015,307.31159280001884,307.2950054999965,307.86176390000037,307.86176390000037,None,309.46060019999277,None,left,0.38744030002271757,309.46060019999277,None,309.8809293000086,None,left,0.3262991000083275,309.8809293000086,None,,,,,,,,,,,,,,,,,,,,,,,PPT59,001,2022-07-17_12h00.56.937,ABstudy,2022.1.4,60.10092146615832,
AB,Lag1_T1P_T2A,1,P,A,7,8,6,3,11,Seagull,Did you see the Seagull?,0.12,0.016,JPG\,toiletpaper01a,mushroom01,medal02b,sandal,rice,cd,seagull,pizza,candle08b,garlic01a,toaster01,blankImage,blankImage,blankImage,blankImage,blankImage,blankImage,seagull,,,,,,,,,,,,0,31,31,176,,,,,,,,,,,,,,,,,,,,,,,,,,,,,,,,,,,310.23125410001376,311.23213710001437,311.21561509999447,311.78227809999953,311.78227809999953,None,313.18459829999483,None,left,0.6536182999843732,313.18459829999483,None,313.8682312000019,None,right,0.2500653000024613,313.8682312000019,None,,,,,,,,,,,,,,,,,,,,,,,PPT59,001,2022-07-17_12h00.56.937,ABstudy,2022.1.4,60.10092146615832,
AB,Lag5_T1P_T2P,5,P,P,6,11,5,4,15,shovel,Did you see the shovel?,0.12,0.016,JPG\,carrot01,watch02a,clock04,microscope,toiletpaper01a,shovel01,alligator,ring01,brick,watermelon01,stapler03b,pencil01,measuringcup01,balloon01b,computerkeyboard02,blankImage,blankImage,shovel01,,,,,,,,,,,,0,32,32,139,,,,,,,,,,,,,,,,,,,,,,,,,,,,,,,,,,,314.13507489999756,315.1362166000181,315.1193494000181,315.67611260002013,315.67611260002013,None,317.5356148999999,None,left,0.3751484999957029,317.5356148999999,None,317.9388467000099,None,left,0.2994620999961626,317.9388467000099,None,,,,,,,,,,,,,,,,,,,,,,,PPT59,001,2022-07-17_12h00.56.937,ABstudy,2022.1.4,60.10092146615832,
AB,Lag1_T1P_T2A,1,P,A,5,6,4,5,11,Toaster oven,Did you see the Toaster oven?,0.12,0.016,JPG\,fork03c,toothbrush03b,cellphone,fan,toasteroven,clock01a,ring01,eraser,sunglasses04,thermometer02b,violin,blankImage,blankImage,blankImage,blankImage,blankImage,blankImage,toasteroven,,,,,,,,,,,,0,33,33,200,,,,,,,,,,,,,,,,,,,,,,,,,,,,,,,,,,,318.2559223000135,319.256836799992,319.2402996000019,319.79385449999245,319.79385449999245,None,321.16461629999685,None,right,0.5058198000187986,321.16461629999685,None,321.69260380000924,None,right,0.6894801000016741,321.69260380000924,None,,,,,,,,,,,,,,,,,,,,,,,PPT59,001,2022-07-17_12h00.56.937,ABstudy,2022.1.4,60.10092146615832,
AB,Lag5_T1P_T2A,5,P,A,7,12,6,4,16,Bear,Did you see the Bear?,0.12,0.016,JPG\,comb02a,key01,medal02b,battery02b,lighter01,microscope,grizzly,sandal,pig,cellphone,computerkeyboard02,calculator01,cymbal,clock04,cucumber,avocado01,blankImage,grizzly,,,,,,,,,,,,0,34,34,213,,,,,,,,,,,,,,,,,,,,,,,,,,,,,,,,,,,322.41000220002024,323.41099259999464,323.3943700999953,323.95101829999476,323.95101829999476,None,325.9602869999944,None,left,0.45412799998302944,325.9602869999944,None,326.4473585000087,None,right,0.2715291999920737,326.4473585000087,None,,,,,,,,,,,,,,,,,,,,,,,PPT59,001,2022-07-17_12h00.56.937,ABstudy,2022.1.4,60.10092146615832,
AB,Lag5_T1P_T2A,5,P,A,5,10,4,3,13,Totem Pole,Did you see the Totem Pole?,0.12,0.016,JPG\,canoftennisballs,banana01,scissors01,pig,totempole,leaf02a,pear01,sponge01,fork03c,tableknife02,balloon01b,match,toothbrush03b,blankImage,blankImage,blankImage,blankImage,totempole,,,,,,,,,,,,0,35,35,202,,,,,,,,,,,,,,,,,,,,,,,,,,,,,,,,,,,326.74791999999434,327.74874480001745,327.73189290001756,328.2896790000086,328.2896790000086,None,329.9132498000108,None,left,0.4690662000211887,329.9132498000108,None,330.4012227000203,None,right,0.2388760000176262,330.4012227000203,None,,,,,,,,,,,,,,,,,,,,,,,PPT59,001,2022-07-17_12h00.56.937,ABstudy,2022.1.4,60.10092146615832,
AB,Lag1_T1P_T2A,1,P,A,5,6,4,5,11,Sailboat,Did you see the Sailboat?,0.12,0.016,JPG\,chain01,speaker04,avocado01,watermelon01,sailboat,comb02a,lamp04a,fork03c,toaster01,slipper03b,scissors01,blankImage,blankImage,blankImage,blankImage,blankImage,blankImage,sailboat,,,,,,,,,,,,0,36,36,193,,,,,,,,,,,,,,,,,,,,,,,,,,,,,,,,,,,330.6683224000153,331.66928810000536,331.6525643999921,332.2108016000129,332.2108016000129,None,333.54747429999406,None,left,0.43581389999599196,333.54747429999406,None,334.0050014000153,None,right,0.9937178999825846,334.0050014000153,None,,,,,,,,,,,,,,,,,,,,,,,PPT59,001,2022-07-17_12h00.56.937,ABstudy,2022.1.4,60.10092146615832,
AB,Lag1_T1A_T2A,1,A,A,8,9,7,4,13,Recycling bin,Did you see the Recycling bin?,0.12,0.016,JPG\,brick,plate01b,pen04b,toaster01,screwdriver04b,candle01,envelope03a,feather03a,pig,ring01,orange,clock01a,lighter01,blankImage,blankImage,blankImage,blankImage,bumpercar,,,,,,,,,,,,0,37,37,292,,,,,,,,,,,,,,,,,,,,,,,,,,,,,,,,,,,335.02265530001023,336.02350949999527,336.00724840001203,336.5692870999919,336.5692870999919,None,338.22851390001597,None,right,0.7623414999980014,338.22851390001597,None,339.0098063000187,None,right,0.3803813000267837,339.0098063000187,None,,,,,,,,,,,,,,,,,,,,,,,PPT59,001,2022-07-17_12h00.56.937,ABstudy,2022.1.4,60.10092146615832,
AB,Lag1_T1P_T2A,1,P,A,5,6,4,4,10,bird,Did you see the bird?,0.12,0.016,JPG\,toaster01,scarf,toiletpaper01a,calculator01,swallow,sewingmachine01a,fan,teabag,strawberry,balloon01b,blankImage,blankImage,blankImage,blankImage,blankImage,blankImage,blankImage,swallow,,,,,,,,,,,,0,38,38,195,,,,,,,,,,,,,,,,,,,,,,,,,,,,,,,,,,,339.41024950001156,340.41121409999323,340.3947030999989,340.9617034000112,340.9617034000112,None,342.212076900003,None,left,0.5384985000127926,342.212076900003,None,342.7804352999956,None,right,0.25769640001817606,342.7804352999956,None,,,,,,,,,,,,,,,,,,,,,,,PPT59,001,2022-07-17_12h00.56.937,ABstudy,2022.1.4,60.10092146615832,
AB,Lag5_T1P_T2A,5,P,A,6,11,5,3,14,toy truck,Did you see the toy truck?,0.12,0.016,JPG\,globe,belt02a,sponge01,violin,fork03c,bluecheese,clock01a,microscope,balloon01b,scarf,teabag,pen04b,brick,brownsugar,blankImage,blankImage,blankImage,bluecheese,,,,,,,,,,,,0,39,39,204,,,,,,,,,,,,,,,,,,,,,,,,,,,,,,,,,,,343.0640040000144,344.0649462000001,344.048366300005,344.61625520000234,344.61625520000234,None,346.2875847000105,None,right,0.4951749000174459,346.2875847000105,None,346.80114150000736,None,right,0.6697140999895055,346.80114150000736,None,,,,,,,,,,,,,,,,,,,,,,,PPT59,001,2022-07-17_12h00.56.937,ABstudy,2022.1.4,60.10092146615832,
AB,Lag5_T1P_T2P,5,P,P,7,12,6,5,17,Badminton Racket,Did you see the Badminton Racket?,0.12,0.016,JPG\,paintbrush01,dice05a,watermelon01,broccoli01a,hammer01,leaf02a,badmintonracket,tennisball01b,lemon02,fan,lipstick02a,stapler04b,envelope03a,sponge01,foosballtable,orange,blankImage,badmintonracket,,,,,,,,,,,,0,40,40,163,,,,,,,,,,,,,,,,,,,,,,,,,,,,,,,,,,,347.5017455999914,348.5030451999919,348.4858376000193,349.0401641000062,349.0401641000062,None,351.0591193000146,None,left,0.3308231999981217,351.0591193000146,None,351.4221735000028,None,left,0.3041374000022188,351.4221735000028,None,,,,,,,,,,,,,,,,,,,,,,,PPT59,001,2022-07-17_12h00.56.937,ABstudy,2022.1.4,60.10092146615832,
AB,Lag5_T1A_T2P,5,A,P,5,10,4,5,15,parachute,Did you see the parachute?,0.12,0.016,JPG\,binoculars01b,speaker04,sandal,envelope03a,plate01b,comb02a,battery02b,chain01,measuringcup01,stapler03b,medal02b,lamp04a,tennisball01b,pizza,cigarette,blankImage,blankImage,knee,,,,,,,,,,,,0,41,41,264,,,,,,,,,,,,,,,,,,,,,,,,,,,,,,,,,,,351.7559864000068,352.7568557000195,352.74025699999765,353.30771829999867,353.30771829999867,None,355.1435528000002,None,right,0.847281499998644,355.1435528000002,None,356.01026149999234,None,left,0.25196220001089387,356.01026149999234,None,,,,,,,,,,,,,,,,,,,,,,,PPT59,001,2022-07-17_12h00.56.937,ABstudy,2022.1.4,60.10092146615832,
AB,Lag1_T1P_T2P,1,P,P,7,8,6,4,12,rooster,Did you see the rooster?,0.12,0.016,JPG\,pizza,strawberry,potato02b,speaker04,battery02b,iron01b,rooster,stapler03b,globe,banana01,medal02b,baseball01a,blankImage,blankImage,blankImage,blankImage,blankImage,rooster,,,,,,,,,,,,0,42,42,69,,,,,,,,,,,,,,,,,,,,,,,,,,,,,,,,,,,356.29384420000133,357.29478150000796,357.2781466000015,357.8463623000134,357.8463623000134,None,359.390719899995,None,left,0.3521906000096351,359.390719899995,None,359.76385600000503,None,left,0.2747335000021849,359.76385600000503,None,,,,,,,,,,,,,,,,,,,,,,,PPT59,001,2022-07-17_12h00.56.937,ABstudy,2022.1.4,60.10092146615832,
AB,Lag5_T1P_T2A,5,P,A,7,12,6,5,17,flower,Did you see the flower?,0.12,0.016,JPG\,cellphone,tomato01,comb02a,candy,celery,cucumber,craneflower,fan,feather03a,pen04b,lemon02,blueberry01,plate01b,cherry01,baseball01a,candle08b,blankImage,craneflower,,,,,,,,,,,,0,43,43,211,,,,,,,,,,,,,,,,,,,,,,,,,,,,,,,,,,,360.0642554000078,361.06510860001436,361.0485517999914,361.6083964999998,361.6083964999998,None,363.5767198000103,None,left,0.5660654999956023,363.5767198000103,None,364.1682476999995,None,right,0.21451429999433458,364.1682476999995,None,,,,,,,,,,,,,,,,,,,,,,,PPT59,001,2022-07-17_12h00.56.937,ABstudy,2022.1.4,60.10092146615832,
AB,Lag5_T1P_T2P,5,P,P,6,11,5,3,14,fish,Did you see the fish?,0.12,0.016,JPG\,broom01,globe,cellphone,tableknife02,cauliflower01,holdfast,ring01,alligator,rice,toaster01,stapler03b,grape01,microscope,cucumber,blankImage,blankImage,blankImage,holdfast,,,,,,,,,,,,0,44,44,133,,,,,,,,,,,,,,,,,,,,,,,,,,,,,,,,,,,364.40188330001547,365.402797000017,365.3861579000077,365.93955110001843,365.93955110001843,None,367.653853900003,None,left,0.44914509999216534,367.653853900003,None,368.12222550000297,None,left,0.28397339998628013,368.12222550000297,None,,,,,,,,,,,,,,,,,,,,,,,PPT59,001,2022-07-17_12h00.56.937,ABstudy,2022.1.4,60.10092146615832,
AB,Lag1_T1P_T2A,1,P,A,7,8,6,4,12,gorilla,Did you see the gorilla?,0.12,0.016,JPG\,scissors01,ashtray01,garlic01a,medal02b,cigarette,candle08b,gorilla,envelope03a,cucumber,rice,toiletpaper01a,greenolive,blankImage,blankImage,blankImage,blankImage,blankImage,gorilla,,,,,,,,,,,,0,45,45,189,,,,,,,,,,,,,,,,,,,,,,,,,,,,,,,,,,,368.43923310001264,369.4402736000193,369.4234606999962,369.9759291000082,369.9759291000082,None,371.49340440001106,None,left,0.5290870000026189,371.49340440001106,None,372.0427934000036,None,right,0.2431561999837868,372.0427934000036,None,,,,,,,,,,,,,,,,,,,,,,,PPT59,001,2022-07-17_12h00.56.937,ABstudy,2022.1.4,60.10092146615832,
AB,Lag1_T1A_T2P,1,A,P,5,6,4,3,9,chimney,Did you see the chimney?,0.12,0.016,JPG\,cucumber,sponge01,alligator,pear01,ashtray01,stapler06,clock04,battery02b,fork03c,blankImage,blankImage,blankImage,blankImage,blankImage,blankImage,blankImage,blankImage,trophy01,,,,,,,,,,,,0,46,46,246,,,,,,,,,,,,,,,,,,,,,,,,,,,,,,,,,,,372.31121760001406,373.31070410000393,373.2942388000083,373.85292020000634,373.85292020000634,None,375.02105450001545,None,right,0.5135307000018656,375.02105450001545,None,375.56277489999775,None,left,0.22837160000926815,375.56277489999775,None,,,,,,,,,,,,,,,,,,,,,,,PPT59,001,2022-07-17_12h00.56.937,ABstudy,2022.1.4,60.10092146615832,
AB,Lag5_T1P_T2P,5,P,P,6,11,5,4,15,shower,Did you see the shower?,0.12,0.016,JPG\,dice05a,watch02a,pig,lighter01,button01,shower,paintbrush01,microscope,plate01b,pen04b,stapler05,weight04a,carrot01,shirt02,globe,blankImage,blankImage,shower,,,,,,,,,,,,0,47,47,121,,,,,,,,,,,,,,,,,,,,,,,,,,,,,,,,,,,375.8132329999935,376.81425640001544,376.7974965000176,377.3565852000029,377.3565852000029,None,379.33560439999565,None,left,0.46408920001704246,379.33560439999565,None,379.8173278000031,None,left,0.3091986000072211,379.8173278000031,None,,,,,,,,,,,,,,,,,,,,,,,PPT59,001,2022-07-17_12h00.56.937,ABstudy,2022.1.4,60.10092146615832,
AB,Lag1_T1P_T2P,1,P,P,6,7,5,3,10,cupcake,Did you see the cupcake?,0.12,0.016,JPG\,printer02,leaf02a,cauliflower01,sock01a,brownsugar,cupcake,stapler01,orange,belt02a,shirt02,blankImage,blankImage,blankImage,blankImage,blankImage,blankImage,blankImage,cupcake,,,,,,,,,,,,0,48,48,38,,,,,,,,,,,,,,,,,,,,,,,,,,,,,,,,,,,380.1507171000121,381.15187900001183,381.1352091000008,381.7019008999923,381.7019008999923,None,382.9248848000134,None,left,0.41765770001802593,382.9248848000134,None,383.3722396999947,None,left,0.23430939999525435,383.3722396999947,None,,,,,,,,,,,,,,,,,,,,,,,PPT59,001,2022-07-17_12h00.56.937,ABstudy,2022.1.4,60.10092146615832,
AB,Lag1_T1P_T2P,1,P,P,8,9,7,4,13,Bird House,Did you see the Bird House?,0.12,0.016,JPG\,toiletpaper01a,mushroom01,medal02b,sandal,rice,cd,feather03a,birdhouse,stapler01,garlic01a,toaster01,belt02a,cigarette,blankImage,blankImage,blankImage,blankImage,birdhouse,,,,,,,,,,,,0,49,49,77,,,,,,,,,,,,,,,,,,,,,,,,,,,,,,,,,,,383.6376465999929,384.6387943000009,384.6219581000041,385.18856070001493,385.18856070001493,None,386.81599339999957,None,left,0.35088829998858273,386.81599339999957,None,387.1911144000187,None,left,0.29676980001386255,387.1911144000187,None,,,,,,,,,,,,,,,,,,,,,,,PPT59,001,2022-07-17_12h00.56.937,ABstudy,2022.1.4,60.10092146615832,
AB,Lag5_T1A_T2A,5,A,A,7,12,6,4,16,Eye,Did you see the Eye?,0.12,0.016,JPG\,rice,watermelon01,tableknife02,scarf,computerkeyboard02,cauliflower01,battery02b,binoculars01b,book01b,sandal,sponge01,microscope,tomato01,fork03c,thermometer02b,apple07,blankImage,scooter,,,,,,,,,,,,0,50,50,302,,,,,,,,,,,,,,,,,,,,,,,,,,,,,,,,,,,387.5081850000133,388.5091129000066,388.49262590002036,389.0508369000163,389.0508369000163,None,391.03816329999245,None,right,0.5445772999955807,391.03816329999245,None,391.6120921999973,None,left,0.6903547999972943,391.6120921999973,None,,,,,,,,,,,,,,,,,,,,,,,PPT59,001,2022-07-17_12h00.56.937,ABstudy,2022.1.4,60.10092146615832,
AB,Lag5_T1P_T2P,5,P,P,7,12,6,5,17,flamingo,Did you see the flamingo?,0.12,0.016,JPG\,pig,belt02a,rice,screwdriver04b,candle01,apple07,flamingo,pear01,feather03a,match,thermometer02b,stapler06,lemon02,violin,medal02b,pineapple01a,blankImage,flamingo,,,,,,,,,,,,0,51,51,153,,,,,,,,,,,,,,,,,,,,,,,,,,,,,,,,,,,392.3295189999917,393.3307422999933,393.3138811000099,393.81469780000043,393.81469780000043,None,395.8358594000165,None,left,0.3540259999863338,395.8358594000165,None,396.21685339999385,None,left,0.2619020999991335,396.21685339999385,None,,,,,,,,,,,,,,,,,,,,,,,PPT59,001,2022-07-17_12h00.56.937,ABstudy,2022.1.4,60.10092146615832,
AB,Lag1_T1A_T2P,1,A,P,5,6,4,3,9,Crown,Did you see the Crown?,0.12,0.016,JPG\,leaf02a,pear01,measuringcup01,cigarette,fan,stapler04b,teabag,tableknife02,ring01,blankImage,blankImage,blankImage,blankImage,blankImage,blankImage,blankImage,blankImage,arrow02,,,,,,,,,,,,0,52,52,248,,,,,,,,,,,,,,,,,,,,,,,,,,,,,,,,,,,396.4999581000011,397.5014571000065,397.4847502000048,398.0410511000082,398.0410511000082,None,399.2092932999949,None,right,0.6130865000013728,399.2092932999949,None,399.8537387000106,None,right,0.39313399998354726,399.8537387000106,None,,,,,,,,,,,,,,,,,,,,,,,PPT59,001,2022-07-17_12h00.56.937,ABstudy,2022.1.4,60.10092146615832,
AB,Lag1_T1A_T2A,1,A,A,8,9,7,5,14,Ping pong Table,Did you see the Ping pong Table?,0.12,0.016,JPG\,pineapple01a,tennisball01b,computerkeyboard02,feather03a,belt02a,acorn,violin,blueberry01,medal02b,alligator,greenolive,screwdriver04b,potato02b,fork03c,blankImage,blankImage,blankImage,statue,,,,,,,,,,,,0,53,53,287,,,,,,,,,,,,,,,,,,,,,,,,,,,,,,,,,,,400.30997890001163,401.3217652000021,401.3053354000149,401.86608050001087,401.86608050001087,None,403.58396509999875,None,right,0.5019637999939732,403.58396509999875,None,404.10802230000263,None,right,0.2595318000239786,404.10802230000263,None,,,,,,,,,,,,,,,,,,,,,,,PPT59,001,2022-07-17_12h00.56.937,ABstudy,2022.1.4,60.10092146615832,
AB,Lag1_T1A_T2A,1,A,A,5,6,4,4,10,rose,Did you see the rose?,0.12,0.016,JPG\,sock01a,spoon01,alligator,comb02a,printer02,medal02b,lamp04a,cymbal,greenolive,computerkeyboard02,blankImage,blankImage,blankImage,blankImage,blankImage,blankImage,blankImage,cruiseship,,,,,,,,,,,,0,54,54,293,,,,,,,,,,,,,,,,,,,,,,,,,,,,,,,,,,,404.3916201000102,405.39269030001014,405.37600350001594,405.9425273000088,405.9425273000088,None,407.2153474999941,None,right,0.6306685000017751,407.2153474999941,None,407.8783648000099,None,right,0.27241080001113005,407.8783648000099,None,,,,,,,,,,,,,,,,,,,,,,,PPT59,001,2022-07-17_12h00.56.937,ABstudy,2022.1.4,60.10092146615832,
AB,Lag5_T1P_T2P,5,P,P,7,12,6,4,16,flower,Did you see the flower?,0.12,0.016,JPG\,cucumber,sponge01,alligator,pear01,ashtray01,hammer01,hibiscusflower02,battery02b,fork03c,binoculars01b,mushroom01,stapler01,leaf02a,acorn,comb02a,screwdriver04b,blankImage,hibiscusflower02,,,,,,,,,,,,0,55,55,132,,,,,,,,,,,,,,,,,,,,,,,,,,,,,,,,,,,408.1787697999971,409.1797995000088,409.1630025000195,409.7232253999973,409.7232253999973,None,411.6616251000087,None,left,0.3528942000120878,411.6616251000087,None,412.0325467000075,None,left,0.3101451999973506,412.0325467000075,None,,,,,,,,,,,,,,,,,,,,,,,PPT59,001,2022-07-17_12h00.56.937,ABstudy,2022.1.4,60.10092146615832,
AB,Lag1_T1A_T2P,1,A,P,6,7,5,3,10,Jellyfish,Did you see the Jellyfish?,0.12,0.016,JPG\,thermometer02b,avocado01,scissors01,tennisball01b,medal02b,banana01,stapler01,cigarette,potato02b,pineapple01a,blankImage,blankImage,blankImage,blankImage,blankImage,blankImage,blankImage,firehydrant,,,,,,,,,,,,0,56,56,255,,,,,,,,,,,,,,,,,,,,,,,,,,,,,,,,,,,412.36630640001385,413.36732479999773,413.35048350002035,413.90861589999986,413.90861589999986,None,415.19645980000496,None,right,0.6101016000029631,415.19645980000496,None,415.83645870001055,None,left,0.2512402000138536,415.83645870001055,None,,,,,,,,,,,,,,,,,,,,,,,PPT59,001,2022-07-17_12h00.56.937,ABstudy,2022.1.4,60.10092146615832,
AB,Lag1_T1P_T2A,1,P,A,6,7,5,5,12,Tombstone,Did you see the Tombstone?,0.12,0.016,JPG\,cigarette,ashtray01,envelope03a,sandal,chain01,tombstone,broccoli01a,tomato01,dandelion,candle01,lemon02,button01,blankImage,blankImage,blankImage,blankImage,blankImage,tombstone,,,,,,,,,,,,0,57,57,196,,,,,,,,,,,,,,,,,,,,,,,,,,,,,,,,,,,416.1199920999934,417.12093289999757,417.1043631999928,417.66167510001105,417.66167510001105,None,419.15209109999705,None,right,0.72571009999956,419.15209109999705,None,419.90696160000516,None,right,0.4836139999970328,419.90696160000516,None,,,,,,,,,,,,,,,,,,,,,,,PPT59,001,2022-07-17_12h00.56.937,ABstudy,2022.1.4,60.10092146615832,
AB,Lag1_T1P_T2A,1,P,A,7,8,6,4,12,bird,Did you see the bird?,0.12,0.016,JPG\,speaker04,sewingmachine01a,eraser,violin,globe,belt02a,tern,cymbal,cd,greenolive,alligator,pear01,blankImage,blankImage,blankImage,blankImage,blankImage,tern,,,,,,,,,,,,0,58,58,177,,,,,,,,,,,,,,,,,,,,,,,,,,,,,,,,,,,420.4075454999984,421.4086268999963,421.3919450000103,421.95621430000756,421.95621430000756,None,423.5279062000045,None,left,0.5585055999981705,423.5279062000045,None,424.1112304000126,None,right,0.271351000003051,424.1112304000126,None,,,,,,,,,,,,,,,,,,,,,,,PPT59,001,2022-07-17_12h00.56.937,ABstudy,2022.1.4,60.10092146615832,
AB,Lag5_T1P_T2P,5,P,P,5,10,4,4,14,License Plate,Did you see the License Plate?,0.12,0.016,JPG\,toaster01,chain01,sponge01,baseball01a,licenseplate,belt02a,book01b,iron01b,grape01,stapler06,celery,onion,mushroom01,toothbrush03b,blankImage,blankImage,blankImage,licenseplate,,,,,,,,,,,,0,59,59,120,,,,,,,,,,,,,,,,,,,,,,,,,,,,,,,,,,,424.4117497999978,425.41257190000033,425.3958663000085,425.9604607000074,425.9604607000074,None,427.6913174999936,None,left,0.34648989999550395,427.6913174999936,None,428.0652778999938,None,left,0.30091220000758767,428.0652778999938,None,,,,,,,,,,,,,,,,,,,,,,,PPT59,001,2022-07-17_12h00.56.937,ABstudy,2022.1.4,60.10092146615832,
AB,Lag5_T1P_T2P,5,P,P,5,10,4,5,15,rake,Did you see the rake?,0.12,0.016,JPG\,scissors01,grape01,mushroom01,toiletpaper01a,leafrake,pizza,cigarette,ashtray01,carrot01,stapler03b,foosballtable,lipstick02a,teabag,acorn,potato02b,blankImage,blankImage,leafrake,,,,,,,,,,,,0,60,60,92,,,,,,,,,,,,,,,,,,,,,,,,,,,,,,,,,,,428.398932000011,429.39989480000804,429.38321699999506,429.9365865,429.9365865,None,431.83785579999676,None,left,0.6501706999843009,431.83785579999676,None,432.5198742999928,None,right,0.26183500001206994,432.5198742999928,None,,,,,,,,,,,,,,,,,,,,,,,PPT59,001,2022-07-17_12h00.56.937,ABstudy,2022.1.4,60.10092146615832,
AB,Lag1_T1A_T2A,1,A,A,5,6,4,3,9,Pigeon,Did you see the Pigeon?,0.12,0.016,JPG\,candle01,paintbrush01,scissors01,fan,microscope,toothbrush03b,candle08b,watermelon01,teabag,blankImage,blankImage,blankImage,blankImage,blankImage,blankImage,blankImage,blankImage,floorlamp,,,,,,,,,,,,0,61,61,286,,,,,,,,,,,,,,,,,,,,,,,,,,,,,,,,,,,432.8031775999989,433.80421620002016,433.7876424000133,434.3408483999956,434.3408483999956,None,435.4969926000049,None,right,0.6134198000072502,435.4969926000049,None,436.13993450001,None,right,0.35535699999309145,436.13993450001,None,,,,,,,,,,,,,,,,,,,,,,,PPT59,001,2022-07-17_12h00.56.937,ABstudy,2022.1.4,60.10092146615832,
AB,Lag1_T1P_T2P,1,P,P,7,8,6,4,12,Christmas Tree,Did you see the Christmas Tree?,0.12,0.016,JPG\,sandal,fan,printer02,cellphone,mushroom01,candle08b,firtree,stapler03a,lamp04a,hammer01,teabag,aceofdiamond,blankImage,blankImage,blankImage,blankImage,blankImage,firtree,,,,,,,,,,,,0,62,62,6,,,,,,,,,,,,,,,,,,,,,,,,,,,,,,,,,,,436.55201450001914,437.558059700008,437.5414330000058,438.10217270001885,438.10217270001885,None,439.5531841000193,None,left,0.5327888999891002,439.5531841000193,None,440.1106004000176,None,right,0.35148010001285,440.1106004000176,None,,,,,,,,,,,,,,,,,,,,,,,PPT59,001,2022-07-17_12h00.56.937,ABstudy,2022.1.4,60.10092146615832,
AB,Lag5_T1P_T2P,5,P,P,8,13,7,5,18,Kiwi,Did you see the Kiwi?,0.12,0.016,JPG\,violin,pizza,toothbrush03b,pineapple01a,banana01,ashtray01,candy,kiwi03,clock04,sock01a,microscope,speaker04,stapler04b,sunglasses04,lipstick02a,blueberry01,blankImage,kiwi03,,,,,,,,,,,,0,63,63,111,,,,,,,,,,,,,,,,,,,,,,,,,,,,,,,,,,,440.4942474999989,441.495245099999,441.47852219999186,442.0385487000167,442.0385487000167,None,444.0594819000107,None,left,0.4751181000028737,444.0594819000107,None,444.5650427000073,None,left,0.3132859000179451,444.5650427000073,None,,,,,,,,,,,,,,,,,,,,,,,PPT59,001,2022-07-17_12h00.56.937,ABstudy,2022.1.4,60.10092146615832,
AB,Lag5_T1P_T2P,5,P,P,5,10,4,4,14,Salt shaker,Did you see the Salt shaker?,0.12,0.016,JPG\,fork03c,belt02a,grape01,computerkeyboard02,saltshaker03a,printer02,broom01,toiletpaper01a,toaster01,stapler01,book01b,blueberry01,spoon01,apple07,blankImage,blankImage,blankImage,saltshaker03a,,,,,,,,,,,,0,64,64,96,,,,,,,,,,,,,,,,,,,,,,,,,,,,,,,,,,,444.8985658000165,445.8997900999966,445.882941399992,446.43487610001466,446.43487610001466,None,448.20432640000945,None,left,0.37763910001376644,448.20432640000945,None,448.6023465000035,None,left,0.29194619998452254,448.6023465000035,None,,,,,,,,,,,,,,,,,,,,,,,PPT59,001,2022-07-17_12h00.56.937,ABstudy,2022.1.4,60.10092146615832,
AB,Lag5_T1P_T2P,5,P,P,5,10,4,5,15,ear,Did you see the ear?,0.12,0.016,JPG\,fork03c,plate01b,toiletpaper01a,greenolive,ear,blueberry01,onion,calculator01,envelope03a,stapler06,book01b,pencil01,sewingmachine01a,brick,watermelon01,blankImage,blankImage,ear,,,,,,,,,,,,0,65,65,107,,,,,,,,,,,,,,,,,,,,,,,,,,,,,,,,,,,448.9194414000085,449.9202690999955,449.90401550001116,450.45617580000544,450.45617580000544,None,452.3846654999943,None,left,0.37378460000036284,452.3846654999943,None,452.7915917999926,None,left,0.302854399982607,452.7915917999926,None,,,,,,,,,,,,,,,,,,,,,,,PPT59,001,2022-07-17_12h00.56.937,ABstudy,2022.1.4,60.10092146615832,
AB,Lag5_T1P_T2P,5,P,P,8,13,7,5,18,skis,Did you see the skis?,0.12,0.016,JPG\,tennisball01b,paintbrush01,medal02b,apple07,speaker04,iron01b,avocado01,downhillski,belt02a,toiletpaper01a,watermelon01,candle01,stapler01,cymbal,ashtray01,screwdriver04b,blankImage,downhillski,,,,,,,,,,,,0,66,66,106,,,,,,,,,,,,,,,,,,,,,,,,,,,,,,,,,,,453.1238634000183,454.1243847000005,454.10786049999297,454.6752415999945,454.6752415999945,None,456.61125790001824,None,left,0.4352092999906745,456.61125790001824,None,457.0775154000148,None,right,0.26440380001440644,457.0775154000148,None,,,,,,,,,,,,,,,,,,,,,,,PPT59,001,2022-07-17_12h00.56.937,ABstudy,2022.1.4,60.10092146615832,
AB,Lag1_T1P_T2P,1,P,P,6,7,5,5,12,exit sign,Did you see the exit sign?,0.12,0.016,JPG\,printer02,envelope03a,potato02b,calculator01,tableknife02,exitsign,stapler01,pig,broom01,greenolive,candle08b,battery02b,blankImage,blankImage,blankImage,blankImage,blankImage,exitsign,,,,,,,,,,,,0,67,67,41,,,,,,,,,,,,,,,,,,,,,,,,,,,,,,,,,,,457.3610559999943,458.3620032000181,458.34539100000984,458.9105300999945,458.9105300999945,None,460.4383536000096,None,left,0.5680656000040472,460.4383536000096,None,461.0313494000002,None,right,0.23090640001464635,461.0313494000002,None,,,,,,,,,,,,,,,,,,,,,,,PPT59,001,2022-07-17_12h00.56.937,ABstudy,2022.1.4,60.10092146615832,
AB,Lag1_T1P_T2A,1,P,A,8,9,7,5,14,Fridge,Did you see the Fridge?,0.12,0.016,JPG\,cherry01,cymbal,envelope03a,foosballtable,shirt02,cellphone,sewingmachine01a,fridge,battery02b,apple07,pencil01,screwdriver04b,strawberry,sunglasses04,blankImage,blankImage,blankImage,fridge,,,,,,,,,,,,0,68,68,173,,,,,,,,,,,,,,,,,,,,,,,,,,,,,,,,,,,461.2816443000047,462.2826699000143,462.2660359000147,462.8255056999915,462.8255056999915,None,464.58195220000925,None,left,0.8406875999935437,464.58195220000925,None,465.45245139999315,None,right,0.12966390000656247,465.45245139999315,None,,,,,,,,,,,,,,,,,,,,,,,PPT59,001,2022-07-17_12h00.56.937,ABstudy,2022.1.4,60.10092146615832,
AB,Lag5_T1P_T2A,5,P,A,8,13,7,4,17,Tarantula,Did you see the Tarantula?,0.12,0.016,JPG\,binoculars01b,speaker04,sandal,envelope03a,plate01b,comb02a,battery02b,tarantula,measuringcup01,key01,medal02b,lamp04a,tennisball01b,pizza,cigarette,sunglasses04,blankImage,tarantula,,,,,,,,,,,,0,69,69,201,,,,,,,,,,,,,,,,,,,,,,,,,,,,,,,,,,,465.6026305000123,466.6035324000113,466.5870472000097,467.1552774000156,467.1552774000156,None,469.1233293999976,None,left,0.5547845999826677,469.1233293999976,None,469.70647900001495,None,right,0.20355999999446794,469.70647900001495,None,,,,,,,,,,,,,,,,,,,,,,,PPT59,001,2022-07-17_12h00.56.937,ABstudy,2022.1.4,60.10092146615832,
AB,Lag1_T1P_T2A,1,P,A,7,8,6,5,13,Well,Did you see the Well?,0.12,0.016,JPG\,leaf02a,apple07,cd,pineapple01a,envelope03a,paintbrush01,well,acorn,rice,feather03a,lemon02,balloon01b,avocado01,blankImage,blankImage,blankImage,blankImage,well,,,,,,,,,,,,0,70,70,178,,,,,,,,,,,,,,,,,,,,,,,,,,,,,,,,,,,469.94018550001783,470.9411428000021,470.9246046000044,471.4814402000047,471.4814402000047,None,473.12397040001815,None,left,0.4746074999857228,473.12397040001815,None,473.62727540000924,None,right,0.2422904999984894,473.62727540000924,None,,,,,,,,,,,,,,,,,,,,,,,PPT59,001,2022-07-17_12h00.56.937,ABstudy,2022.1.4,60.10092146615832,
AB,Lag5_T1A_T2P,5,A,P,8,13,7,5,18,lollipop,Did you see the lollipop?,0.12,0.016,JPG\,watermelon01,banana01,ring01,pencil01,tomato01,speaker04,cucumber,thermometer02b,key01,foosballtable,violin,spoon01,stapler04b,dice05a,pen04b,mushroom01,blankImage,jeans01,,,,,,,,,,,,0,71,71,262,,,,,,,,,,,,,,,,,,,,,,,,,,,,,,,,,,,473.8938354999991,474.89526310001384,474.8783922000148,475.4502818000037,475.4502818000037,None,477.43458200001623,None,right,0.5476230999920517,477.43458200001623,None,478.01512060000096,None,right,0.27896769999642856,478.01512060000096,None,,,,,,,,,,,,,,,,,,,,,,,PPT59,001,2022-07-17_12h00.56.937,ABstudy,2022.1.4,60.10092146615832,
AB,Lag1_T1P_T2P,1,P,P,7,8,6,5,13,dream catcher,Did you see the dream catcher?,0.12,0.016,JPG\,clock01a,cellphone,toaster01,toothbrush03b,cauliflower01,microscope,dreamcatcher,stapler05,scarf,clock04,sponge01,iron01b,watch02a,blankImage,blankImage,blankImage,blankImage,dreamcatcher,,,,,,,,,,,,0,72,72,81,,,,,,,,,,,,,,,,,,,,,,,,,,,,,,,,,,,478.3153036000149,479.3160789000103,479.2993961000175,479.87284749999526,479.87284749999526,None,481.47185249999166,None,right,0.42173810000531375,481.47185249999166,None,481.9184285000083,None,left,0.21613869999418966,481.9184285000083,None,,,,,,,,,,,,,,,,,,,,,,,PPT59,001,2022-07-17_12h00.56.937,ABstudy,2022.1.4,60.10092146615832,
AB,Lag1_T1A_T2A,1,A,A,6,7,5,5,12,Safe,Did you see the Safe?,0.12,0.016,JPG\,hammer01,sponge01,toaster01,cherry01,feather03a,mushroom01,measuringcup01,pencil01,tennisball01b,brick,clock04,medal02b,blankImage,blankImage,blankImage,blankImage,blankImage,downhillski,,,,,,,,,,,,0,73,73,294,,,,,,,,,,,,,,,,,,,,,,,,,,,,,,,,,,,482.1524301000172,483.1533036000037,483.1367609000008,483.6901569000038,483.6901569000038,None,485.1889740000188,None,right,0.6657141000032425,485.1889740000188,None,485.87291400000686,None,right,0.28505310002947226,485.87291400000686,None,,,,,,,,,,,,,,,,,,,,,,,PPT59,001,2022-07-17_12h00.56.937,ABstudy,2022.1.4,60.10092146615832,
AB,Lag5_T1A_T2P,5,A,P,8,13,7,3,16,ladder,Did you see the ladder?,0.12,0.016,JPG\,apple07,toiletpaper01a,pizza,dandelion,greenolive,eraser,microscope,violin,orange,lipstick02a,balloon01b,sandal,stapler01,fan,book01b,sewingmachine01a,blankImage,ostrich,,,,,,,,,,,,0,74,74,269,,,,,,,,,,,,,,,,,,,,,,,,,,,,,,,,,,,486.1899223999935,487.1907261000015,487.174145099998,487.73936410000897,487.73936410000897,None,489.75724320000154,None,right,0.544801300013205,489.75724320000154,None,490.32729800001835,None,left,0.2159828000003472,490.32729800001835,None,,,,,,,,,,,,,,,,,,,,,,,PPT59,001,2022-07-17_12h00.56.937,ABstudy,2022.1.4,60.10092146615832,
AB,Lag1_T1P_T2A,1,P,A,6,7,5,4,11,bird,Did you see the bird?,0.12,0.016,JPG\,foosballtable,candy,envelope03a,microscope,pencil01,cedarwaxwing,scissors01,watermelon01,grape01,dandelion,pineapple01a,blankImage,blankImage,blankImage,blankImage,blankImage,blankImage,cedarwaxwing,,,,,,,,,,,,0,75,75,182,,,,,,,,,,,,,,,,,,,,,,,,,,,,,,,,,,,490.56080390000716,491.5618347999989,491.54504409999936,492.04550410000957,492.04550410000957,None,493.4821950000187,None,right,0.49192410000250675,493.4821950000187,None,493.99751820001984,None,left,0.24902790001942776,493.99751820001984,None,,,,,,,,,,,,,,,,,,,,,,,PPT59,001,2022-07-17_12h00.56.937,ABstudy,2022.1.4,60.10092146615832,
AB,Lag5_T1P_T2P,5,P,P,6,11,5,4,15,sword,Did you see the sword?,0.12,0.016,JPG\,8ball,banana01,scissors01,pig,shirt02,broadsword,pear01,sponge01,fork03c,tableknife02,stapler06,match,toothbrush03b,birthdaycandle,candle01,blankImage,blankImage,broadsword,,,,,,,,,,,,0,76,76,167,,,,,,,,,,,,,,,,,,,,,,,,,,,,,,,,,,,494.2645552000031,495.2656118000159,495.24873680001474,495.81419319999986,495.81419319999986,None,497.65184639999643,None,left,0.5298397000005934,497.65184639999643,None,498.20168580001337,None,left,0.3088045999757014,498.20168580001337,None,,,,,,,,,,,,,,,,,,,,,,,PPT59,001,2022-07-17_12h00.56.937,ABstudy,2022.1.4,60.10092146615832,
AB,Lag5_T1P_T2P,5,P,P,5,10,4,5,15,sword fish,Did you see the sword fish?,0.12,0.016,JPG\,scissors01,balloon01b,eraser,feather03a,swordfish,candle01,measuringcup01,calculator01,thermometer02b,stapler04b,pear01,carrot01,globe,baseball01a,leaf02a,blankImage,blankImage,swordfish,,,,,,,,,,,,0,77,77,160,,,,,,,,,,,,,,,,,,,,,,,,,,,,,,,,,,,498.5354073999915,499.53644510000595,499.51964569999836,500.08473170001525,500.08473170001525,None,501.90758650001953,None,left,0.37827300000935793,501.90758650001953,None,502.30579990000115,None,left,0.31595580000430346,502.30579990000115,None,,,,,,,,,,,,,,,,,,,,,,,PPT59,001,2022-07-17_12h00.56.937,ABstudy,2022.1.4,60.10092146615832,
AB,Lag1_T1P_T2P,1,P,P,7,8,6,5,13,disco ball,Did you see the disco ball?,0.12,0.016,JPG\,candle01,paintbrush01,scissors01,fan,microscope,toothbrush03b,discoball,stapler03b,teabag,pencil01,lemon02,ashtray01,shirt02,blankImage,blankImage,blankImage,blankImage,discoball,,,,,,,,,,,,0,78,78,60,,,,,,,,,,,,,,,,,,,,,,,,,,,,,,,,,,,502.6395193999924,503.64039119999507,503.62392250000266,504.1777546000085,504.1777546000085,None,505.77537109999685,None,right,0.5583967999846209,505.77537109999685,None,506.35971740001696,None,left,0.35036230002879165,506.35971740001696,None,,,,,,,,,,,,,,,,,,,,,,,PPT59,001,2022-07-17_12h00.56.937,ABstudy,2022.1.4,60.10092146615832,
AB,Lag1_T1P_T2P,1,P,P,5,6,4,5,11,shark,Did you see the shark?,0.12,0.016,JPG\,cucumber,sponge01,alligator,pear01,greatwhiteshark,stapler06,clock04,battery02b,fork03c,binoculars01b,mushroom01,blankImage,blankImage,blankImage,blankImage,blankImage,blankImage,greatwhiteshark,,,,,,,,,,,,0,79,79,84,,,,,,,,,,,,,,,,,,,,,,,,,,,,,,,,,,,506.7270497000136,507.7279524000187,507.71122460000333,508.26921150001,508.26921150001,None,509.6384997999994,None,left,0.35909860001993366,509.6384997999994,None,510.0296667999937,None,left,0.2724956000165548,510.0296667999937,None,,,,,,,,,,,,,,,,,,,,,,,PPT59,001,2022-07-17_12h00.56.937,ABstudy,2022.1.4,60.10092146615832,
AB,Lag1_T1P_T2P,1,P,P,7,8,6,3,11,trampoline,Did you see the trampoline?,0.12,0.016,JPG\,dice05a,watch02a,pig,lighter01,button01,strawberry,trampoline,stapler03a,plate01b,pen04b,feather03a,blankImage,blankImage,blankImage,blankImage,blankImage,blankImage,trampoline,,,,,,,,,,,,0,80,80,73,,,,,,,,,,,,,,,,,,,,,,,,,,,,,,,,,,,510.3303580000065,511.3314967000042,511.3147538000194,511.8748142000113,511.8748142000113,None,513.2189509000164,None,left,0.4193950000044424,513.2189509000164,None,513.667131299997,None,left,0.2912365999945905,513.667131299997,None,,,,,,,,,,,,,,,,,,,,,,,PPT59,001,2022-07-17_12h00.56.937,ABstudy,2022.1.4,60.10092146615832,
AB,Lag1_T1A_T2P,1,A,P,5,6,4,5,11,rake,Did you see the rake?,0.12,0.016,JPG\,candy,brownsugar,dice05a,cd,sock01a,stapler01,button01,potato02b,feather03a,grape01,dandelion,blankImage,blankImage,blankImage,blankImage,blankImage,blankImage,greatwhiteshark,,,,,,,,,,,,0,81,81,256,,,,,,,,,,,,,,,,,,,,,,,,,,,,,,,,,,,513.9866363000183,515.0018911999941,514.9685436,515.5251658000052,515.5251658000052,None,516.820191900013,None,right,0.44179360000998713,516.820191900013,None,517.2874796999968,None,left,0.22223230000236072,517.2874796999968,None,,,,,,,,,,,,,,,,,,,,,,,PPT59,001,2022-07-17_12h00.56.937,ABstudy,2022.1.4,60.10092146615832,
AB,Lag1_T1P_T2P,1,P,P,8,9,7,4,13,mattress,Did you see the mattress?,0.12,0.016,JPG\,button01,celery,birthdaycandle,apple07,avocado01,tennisball01b,dice05a,mattress,stapler01,feather03a,tomato01,scarf,orange,blankImage,blankImage,blankImage,blankImage,mattress,,,,,,,,,,,,0,82,82,22,,,,,,,,,,,,,,,,,,,,,,,,,,,,,,,,,,,517.5648907000141,518.5721741000016,518.5552360000147,519.1195790999918,519.1195790999918,None,520.7230459999992,None,left,0.42095400000107475,520.7230459999992,None,521.1747083000082,None,left,0.8713922000024468,521.1747083000082,None,,,,,,,,,,,,,,,,,,,,,,,PPT59,001,2022-07-17_12h00.56.937,ABstudy,2022.1.4,60.10092146615832,
AB,Lag5_T1P_T2P,5,P,P,6,11,5,3,14,shower head,Did you see the shower head?,0.12,0.016,JPG\,belt02a,measuringcup01,spoon01,chain01,greenolive,showerhead01,computerkeyboard02,onion,fan,strawberry,stapler01,broom01,binoculars01b,ashtray01,blankImage,blankImage,blankImage,showerhead01,,,,,,,,,,,,0,83,83,98,,,,,,,,,,,,,,,,,,,,,,,,,,,,,,,,,,,522.075442500005,523.0765217000153,523.0597698999918,523.6183021000179,523.6183021000179,None,525.3980898000009,None,left,0.34351340000284836,525.3980898000009,None,525.7625141000026,None,left,0.2993629999982659,525.7625141000026,None,,,,,,,,,,,,,,,,,,,,,,,PPT59,001,2022-07-17_12h00.56.937,ABstudy,2022.1.4,60.10092146615832,
AB,Lag5_T1P_T2P,5,P,P,8,13,7,3,16,church,Did you see the church?,0.12,0.016,JPG\,clock01a,cellphone,toaster01,toothbrush03b,cauliflower01,microscope,comb02a,church,scarf,clock04,sponge01,iron01b,stapler06,celery,ring01,ashtray01,blankImage,church,,,,,,,,,,,,0,84,84,129,,,,,,,,,,,,,,,,,,,,,,,,,,,,,,,,,,,526.0815444000182,527.0971473999962,527.0638044000079,527.630250200018,527.630250200018,None,529.5905107000144,None,left,0.3208454000123311,529.5905107000144,None,529.9333085000108,None,left,0.27298049998353235,529.9333085000108,None,,,,,,,,,,,,,,,,,,,,,,,PPT59,001,2022-07-17_12h00.56.937,ABstudy,2022.1.4,60.10092146615832,
AB,Lag5_T1A_T2A,5,A,A,5,10,4,5,15,truck,Did you see the truck?,0.12,0.016,JPG\,pizza,printer02,medal02b,spoon01,grape01,lighter01,belt02a,watermelon01,celery,battery02b,screw02,comb02a,cauliflower01,lipstick02a,potato02b,blankImage,blankImage,postalmailbox01,,,,,,,,,,,,0,85,85,297,,,,,,,,,,,,,,,,,,,,,,,,,,,,,,,,,,,530.2335744000156,531.2346230999974,531.2179819000012,531.7880243000109,531.7880243000109,None,533.7532965000137,None,right,0.5646441999997478,533.7532965000137,None,534.3377896000165,None,right,0.30845949999638833,534.3377896000165,None,,,,,,,,,,,,,,,,,,,,,,,PPT59,001,2022-07-17_12h00.56.937,ABstudy,2022.1.4,60.10092146615832,
AB,Lag5_T1P_T2A,5,P,A,6,11,5,4,15,Spear,Did you see the Spear?,0.12,0.016,JPG\,belt02a,measuringcup01,spoon01,chain01,greenolive,spear02,computerkeyboard02,onion,fan,strawberry,candle01,broom01,binoculars01b,ashtray01,pingpongpaddle01c,blankImage,blankImage,spear02,,,,,,,,,,,,0,86,86,227,,,,,,,,,,,,,,,,,,,,,,,,,,,,,,,,,,,534.6712931999937,535.6722395000106,535.655521800014,536.2165181000018,536.2165181000018,None,538.1219618000032,None,left,0.4755318000097759,538.1219618000032,None,538.6250330000184,None,right,0.25332150000031106,538.6250330000184,None,,,,,,,,,,,,,,,,,,,,,,,PPT59,001,2022-07-17_12h00.56.937,ABstudy,2022.1.4,60.10092146615832,
AB,Lag1_T1P_T2P,1,P,P,5,6,4,5,11,beaver,Did you see the beaver?,0.12,0.016,JPG\,belt02a,sunglasses04,computerkeyboard02,cherry01,beaver,stapler03a,watch02a,dice05a,blueberry01,spoon01,match,blankImage,blankImage,blankImage,blankImage,blankImage,blankImage,beaver,,,,,,,,,,,,0,87,87,55,,,,,,,,,,,,,,,,,,,,,,,,,,,,,,,,,,,538.9089847000141,539.9099746000138,539.8931885000202,540.4485679999925,540.4485679999925,None,541.9041338000097,None,left,0.3817204000079073,541.9041338000097,None,542.3124393000035,None,left,0.2691571000032127,542.3124393000035,None,,,,,,,,,,,,,,,,,,,,,,,PPT59,001,2022-07-17_12h00.56.937,ABstudy,2022.1.4,60.10092146615832,
AB,Lag5_T1P_T2P,5,P,P,7,12,6,5,17,flower,Did you see the flower?,0.12,0.016,JPG\,leaf02a,pear01,measuringcup01,cigarette,fan,lemon02,lily,tableknife02,ring01,pencil01,cellphone,stapler01,carrot01,binoculars01b,sock01a,book01b,blankImage,lily,,,,,,,,,,,,0,88,88,134,,,,,,,,,,,,,,,,,,,,,,,,,,,,,,,,,,,542.6127257000189,543.6134665000136,543.596884300001,544.1573860000062,544.1573860000062,None,546.154586699995,None,left,0.3636670999985654,546.154586699995,None,546.5498947000015,None,left,0.25636780000058934,546.5498947000015,None,,,,,,,,,,,,,,,,,,,,,,,PPT59,001,2022-07-17_12h00.56.937,ABstudy,2022.1.4,60.10092146615832,
AB,Lag1_T1P_T2P,1,P,P,8,9,7,4,13,bowling ball,Did you see the bowling ball?,0.12,0.016,JPG\,dandelion,pineapple01a,broom01,pen04b,sock01a,sandal,foosballtable,bowlingball,stapler01,toothbrush03b,celery,candle08b,tennisball01b,blankImage,blankImage,blankImage,blankImage,bowlingball,,,,,,,,,,,,0,89,89,7,,,,,,,,,,,,,,,,,,,,,,,,,,,,,,,,,,,546.8333149999962,547.8343732999929,547.8178803000192,548.3183644000092,548.3183644000092,None,549.9827013000031,None,right,0.8227226000162773,549.9827013000031,None,550.8369876999932,None,left,0.22497480001766235,550.8369876999932,None,,,,,,,,,,,,,,,,,,,,,,,PPT59,001,2022-07-17_12h00.56.937,ABstudy,2022.1.4,60.10092146615832,
AB,Lag5_T1P_T2P,5,P,P,8,13,7,4,17,cruise ship,Did you see the cruise ship?,0.12,0.016,JPG\,measuringcup01,dice05a,greenolive,lipstick02a,feather03a,balloon01b,lighter01,cruiseship,carrot01,plate01b,microscope,brick,stapler05,screw02,speaker04,spoon01,blankImage,cruiseship,,,,,,,,,,,,0,90,90,105,,,,,,,,,,,,,,,,,,,,,,,,,,,,,,,,,,,551.0877702000143,552.0888264999958,552.0718937000202,552.6354657000047,552.6354657000047,None,554.5865481999936,None,left,0.40443389999563806,554.5865481999936,None,555.0081820000196,None,left,0.26985929999500513,555.0081820000196,None,,,,,,,,,,,,,,,,,,,,,,,PPT59,001,2022-07-17_12h00.56.937,ABstudy,2022.1.4,60.10092146615832,
AB,Lag5_T1P_T2P,5,P,P,8,13,7,3,16,shrimp,Did you see the shrimp?,0.12,0.016,JPG\,globe,belt02a,sponge01,violin,fork03c,tomato01,clock01a,cocktailshrimp02,balloon01b,scarf,teabag,pen04b,stapler03a,brownsugar,speaker04,screwdriver04b,blankImage,cocktailshrimp02,,,,,,,,,,,,0,91,91,169,,,,,,,,,,,,,,,,,,,,,,,,,,,,,,,,,,,555.3436878999928,556.3429294000089,556.3263103000063,556.8941893000156,556.8941893000156,None,558.8632981000119,None,left,0.3423365000053309,558.8632981000119,None,559.228775800002,None,left,0.2664818000048399,559.228775800002,None,,,,,,,,,,,,,,,,,,,,,,,PPT59,001,2022-07-17_12h00.56.937,ABstudy,2022.1.4,60.10092146615832,
AB,Lag1_T1P_T2P,1,P,P,5,6,4,5,11,Guitar case,Did you see the Guitar case?,0.12,0.016,JPG\,broccoli01a,scissors01,toothbrush03b,foosballtable,guitarcase,stapler05,hammer01,toiletpaper01a,cd,garlic01a,carrot01,blankImage,blankImage,blankImage,blankImage,blankImage,blankImage,guitarcase,,,,,,,,,,,,0,92,92,14,,,,,,,,,,,,,,,,,,,,,,,,,,,,,,,,,,,559.5131911000062,560.5138069000095,560.4971515999932,561.0594727999996,561.0594727999996,None,562.3998303000117,None,left,0.678369000001112,562.3998303000117,None,563.099772000016,None,right,0.24198469999828376,563.099772000016,None,,,,,,,,,,,,,,,,,,,,,,,PPT59,001,2022-07-17_12h00.56.937,ABstudy,2022.1.4,60.10092146615832,
AB,Lag1_T1P_T2P,1,P,P,8,9,7,4,13,dart board,Did you see the dart board?,0.12,0.016,JPG\,rice,watermelon01,tableknife02,scarf,computerkeyboard02,cauliflower01,battery02b,dartboard,stapler01,sandal,sponge01,microscope,tomato01,blankImage,blankImage,blankImage,blankImage,dartboard,,,,,,,,,,,,0,93,93,80,,,,,,,,,,,,,,,,,,,,,,,,,,,,,,,,,,,563.3665769000072,564.3675667000061,564.3510266999947,564.9091135000053,564.9091135000053,None,566.496161499992,None,left,0.4221928999759257,566.496161499992,None,566.936932200013,None,left,0.24506890002521686,566.936932200013,None,,,,,,,,,,,,,,,,,,,,,,,PPT59,001,2022-07-17_12h00.56.937,ABstudy,2022.1.4,60.10092146615832,
AB,Lag1_T1A_T2P,1,A,P,8,9,7,4,13,nose,Did you see the nose?,0.12,0.016,JPG\,pizza,strawberry,potato02b,speaker04,battery02b,iron01b,dice05a,cellphone,stapler06,banana01,medal02b,baseball01a,toaster01,blankImage,blankImage,blankImage,blankImage,cow,,,,,,,,,,,,0,94,94,231,,,,,,,,,,,,,,,,,,,,,,,,,,,,,,,,,,,567.203811400017,568.2047993000015,568.1880697000015,568.7584375000151,568.7584375000151,None,570.4324579999957,None,right,0.4128212000068743,570.4324579999957,None,570.8742213000078,None,left,0.21965549999731593,570.8742213000078,None,,,,,,,,,,,,,,,,,,,,,,,PPT59,001,2022-07-17_12h00.56.937,ABstudy,2022.1.4,60.10092146615832,
AB,Lag1_T1P_T2P,1,P,P,8,9,7,4,13,crab,Did you see the crab?,0.12,0.016,JPG\,candle01,fork03c,plate01b,violin,computerkeyboard02,candy,calculator01,crab01,stapler04b,sock01a,teabag,banana01,cd,blankImage,blankImage,blankImage,blankImage,crab01,,,,,,,,,,,,0,95,95,37,,,,,,,,,,,,,,,,,,,,,,,,,,,,,,,,,,,571.1241823000018,572.1253736999934,572.1083333000133,572.6637150000024,572.6637150000024,None,574.3240873000177,None,left,0.46536299999570474,574.3240873000177,None,574.811357700004,None,left,0.2664034999907017,574.811357700004,None,,,,,,,,,,,,,,,,,,,,,,,PPT59,001,2022-07-17_12h00.56.937,ABstudy,2022.1.4,60.10092146615832,
AB,Lag5_T1P_T2A,5,P,A,6,11,5,5,16,fish,Did you see the fish?,0.12,0.016,JPG\,cucumber,ring01,lipstick02a,microscope,violin,redlionfish,celery,lighter01,cherry01,sewingmachine01a,belt02a,key01,binoculars01b,medal02b,watermelon01,dice05a,blankImage,redlionfish,,,,,,,,,,,,0,96,96,221,,,,,,,,,,,,,,,,,,,,,,,,,,,,,,,,,,,575.0948697999993,576.0958418000082,576.0792778000177,576.6372428000032,576.6372428000032,None,578.7184851999918,None,left,0.487128999986453,578.7184851999918,None,579.2323782000167,None,right,0.24559959999169223,579.2323782000167,None,,,,,,,,,,,,,,,,,,,,,,,PPT59,001,2022-07-17_12h00.56.937,ABstudy,2022.1.4,60.10092146615832,
AB,Lag1_T1P_T2P,1,P,P,6,7,5,3,10,elephant,Did you see the elephant?,0.12,0.016,JPG\,clock01a,grape01,plate01b,key01,screwdriver04b,africanelephant,stapler03b,iron01b,toothbrush03b,comb02a,blankImage,blankImage,blankImage,blankImage,blankImage,blankImage,blankImage,africanelephant,,,,,,,,,,,,0,97,97,31,,,,,,,,,,,,,,,,,,,,,,,,,,,,,,,,,,,579.4994955000002,580.5004233999935,580.48358130001,581.0504837000044,581.0504837000044,None,582.3515247000032,None,left,0.4137635000224691,582.3515247000032,None,582.7860183000157,None,left,0.2675608999852557,582.7860183000157,None,,,,,,,,,,,,,,,,,,,,,,,PPT59,001,2022-07-17_12h00.56.937,ABstudy,2022.1.4,60.10092146615832,
AB,Lag5_T1P_T2P,5,P,P,6,11,5,4,15,punching bag,Did you see the punching bag?,0.12,0.016,JPG\,foosballtable,cigarette,pen04b,birthdaycandle,hammer01,punchingbag,binoculars01b,chain01,potato02b,cauliflower01,stapler04b,ashtray01,scarf,cellphone,calculator01,blankImage,blankImage,punchingbag,,,,,,,,,,,,0,98,98,156,,,,,,,,,,,,,,,,,,,,,,,,,,,,,,,,,,,583.0863414000196,584.0871799000015,584.0705828999926,584.5710458999965,584.5710458999965,None,586.4781385000097,None,left,0.35917380001046695,586.4781385000097,None,586.8566054000112,None,left,0.28527179997763596,586.8566054000112,None,,,,,,,,,,,,,,,,,,,,,,,PPT59,001,2022-07-17_12h00.56.937,ABstudy,2022.1.4,60.10092146615832,
AB,Lag5_T1P_T2P,5,P,P,7,12,6,4,16,window,Did you see the window?,0.12,0.016,JPG\,cigarette,pig,banana01,strawberry,clock01a,plate01b,dormer,blueberry01,battery02b,pineapple01a,chain01,stapler01,candy,pen04b,teabag,birthdaycandle,blankImage,dormer,,,,,,,,,,,,0,99,99,170,,,,,,,,,,,,,,,,,,,,,,,,,,,,,,,,,,,587.1737626999966,588.1746315000055,588.1579951000167,588.7116970999923,588.7116970999923,None,590.6104593999917,None,left,0.3161786000127904,590.6104593999917,None,590.944055400003,None,left,0.24599429999943823,590.944055400003,None,,,,,,,,,,,,,,,,,,,,,,,PPT59,001,2022-07-17_12h00.56.937,ABstudy,2022.1.4,60.10092146615832,
AB,Lag1_T1P_T2P,1,P,P,7,8,6,4,12,Dog House,Did you see the Dog House?,0.12,0.016,JPG\,pineapple01a,leaf02a,grape01,toiletpaper01a,match,tennisball01b,doghouse,stapler03b,pig,measuringcup01,ring01,lemon02,blankImage,blankImage,blankImage,blankImage,blankImage,doghouse,,,,,,,,,,,,0,100,100,44,,,,,,,,,,,,,,,,,,,,,,,,,,,,,,,,,,,591.2507449999976,592.2620075000159,592.2454487000068,592.8099686999922,592.8099686999922,None,594.255848300003,None,left,0.6699567000032403,594.255848300003,None,594.9481626999914,None,right,0.20099640000262298,594.9481626999914,None,,,,,,,,,,,,,,,,,,,,,,,PPT59,001,2022-07-17_12h00.56.937,ABstudy,2022.1.4,60.10092146615832,
AB,Lag1_T1P_T2A,1,P,A,7,8,6,3,11,fish,Did you see the fish?,0.12,0.016,JPG\,rice,watermelon01,tableknife02,scarf,computerkeyboard02,cauliflower01,salmon,binoculars01b,book01b,sandal,sponge01,blankImage,blankImage,blankImage,blankImage,blankImage,blankImage,salmon,,,,,,,,,,,,0,101,101,179,,,,,,,,,,,,,,,,,,,,,,,,,,,,,,,,,,,595.1816881000123,596.182506800018,596.165966600005,596.7227357999946,596.7227357999946,None,598.1877468000166,None,left,0.5858087000087835,598.1877468000166,None,598.8017384000123,None,right,0.21146649998263456,598.8017384000123,None,,,,,,,,,,,,,,,,,,,,,,,PPT59,001,2022-07-17_12h00.56.937,ABstudy,2022.1.4,60.10092146615832,
AB,Lag5_T1P_T2P,5,P,P,5,10,4,5,15,Bee,Did you see the Bee?,0.12,0.016,JPG\,fork03c,dandelion,dice05a,belt02a,honeybee,watch02a,key01,globe,eraser,stapler03a,greenolive,shirt02,candle08b,cigarette,garlic01a,blankImage,blankImage,honeybee,,,,,,,,,,,,0,102,102,149,,,,,,,,,,,,,,,,,,,,,,,,,,,,,,,,,,,599.0354023000109,600.0365303000144,600.0196508000081,600.5746519000095,600.5746519000095,None,602.4234519000165,None,left,0.38203740000608377,602.4234519000165,None,602.8225044000137,None,left,0.27956550000817515,602.8225044000137,None,,,,,,,,,,,,,,,,,,,,,,,PPT59,001,2022-07-17_12h00.56.937,ABstudy,2022.1.4,60.10092146615832,
AB,Lag5_T1P_T2P,5,P,P,7,12,6,3,15,Rollerblade,Did you see the Rollerblade?,0.12,0.016,JPG\,hammer01,sponge01,toaster01,cherry01,feather03a,mushroom01,rollerblade,pencil01,tennisball01b,brick,clock04,stapler06,teabag,garlic01a,envelope03a,blankImage,blankImage,rollerblade,,,,,,,,,,,,0,103,103,116,,,,,,,,,,,,,,,,,,,,,,,,,,,,,,,,,,,603.122910200007,604.123795499996,604.1071566000173,604.665943400003,604.665943400003,None,606.5857450000185,None,left,0.484065600001486,606.5857450000185,None,607.093497599999,None,right,0.24039170000469312,607.093497599999,None,,,,,,,,,,,,,,,,,,,,,,,PPT59,001,2022-07-17_12h00.56.937,ABstudy,2022.1.4,60.10092146615832,
AB,Lag1_T1P_T2A,1,P,A,6,7,5,4,11,Road,Did you see the Road?,0.12,0.016,JPG\,pizza,printer02,medal02b,spoon01,grape01,road02,belt02a,watermelon01,celery,battery02b,screw02,blankImage,blankImage,blankImage,blankImage,blankImage,blankImage,road02,,,,,,,,,,,,0,104,104,174,,,,,,,,,,,,,,,,,,,,,,,,,,,,,,,,,,,607.3605181000021,608.3613907000108,608.3446434999933,608.9142554000136,608.9142554000136,None,610.2971326000115,None,left,0.396606000023894,610.2971326000115,None,610.7136586999986,None,right,0.21992130001308396,610.7136586999986,None,,,,,,,,,,,,,,,,,,,,,,,PPT59,001,2022-07-17_12h00.56.937,ABstudy,2022.1.4,60.10092146615832,
AB,Lag5_T1P_T2P,5,P,P,5,10,4,4,14,Christmas lights,Did you see the Christmas lights?,0.12,0.016,JPG\,binoculars01b,cymbal,pizza,candy,christmaslights,sponge01,grape01,thermometer02b,speaker04,stapler03a,lipstick02a,strawberry,candle01,tambourine02,blankImage,blankImage,blankImage,christmaslights,,,,,,,,,,,,0,105,105,168,,,,,,,,,,,,,,,,,,,,,,,,,,,,,,,,,,,610.9641135999991,611.9649671000079,611.9483260000125,612.5138702999975,612.5138702999975,None,614.2828338000108,None,left,0.4911169999977574,614.2828338000108,None,614.8010456000047,None,right,0.2127143999969121,614.8010456000047,None,,,,,,,,,,,,,,,,,,,,,,,PPT59,001,2022-07-17_12h00.56.937,ABstudy,2022.1.4,60.10092146615832,
AB,Lag5_T1P_T2P,5,P,P,5,10,4,3,13,Sushi,Did you see the Sushi?,0.12,0.016,JPG\,carrot01,greenolive,fork03c,chain01,makiroll,watermelon01,tableknife02,printer02,comb02a,stapler03b,orange,rice,fan,blankImage,blankImage,blankImage,blankImage,makiroll,,,,,,,,,,,,0,106,106,135,,,,,,,,,,,,,,,,,,,,,,,,,,,,,,,,,,,615.0348447000142,616.0357252999966,616.0190239000076,616.5785123000096,616.5785123000096,None,618.2076341999928,None,right,0.558555299998261,618.2076341999928,None,618.7883609000128,None,left,0.20972939999774098,618.7883609000128,None,,,,,,,,,,,,,,,,,,,,,,,PPT59,001,2022-07-17_12h00.56.937,ABstudy,2022.1.4,60.10092146615832,
AB,Lag5_T1P_T2A,5,P,A,8,13,7,4,17,fountain,Did you see the fountain?,0.12,0.016,JPG\,printer02,envelope03a,potato02b,calculator01,tableknife02,cigarette,ashtray01,parkfountain,broom01,greenolive,candle08b,battery02b,strawberry,candle01,foosballtable,tennisball01b,blankImage,parkfountain,,,,,,,,,,,,0,107,107,219,,,,,,,,,,,,,,,,,,,,,,,,,,,,,,,,,,,619.021874099999,620.0229835000064,620.0062886000087,620.5690585999982,620.5690585999982,None,622.5870149999973,None,left,0.6024170000164304,622.5870149999973,None,623.2094370000123,None,right,0.20423780000419356,623.2094370000123,None,,,,,,,,,,,,,,,,,,,,,,,PPT59,001,2022-07-17_12h00.56.937,ABstudy,2022.1.4,60.10092146615832,
AB,Lag1_T1P_T2P,1,P,P,5,6,4,4,10,skateboard,Did you see the skateboard?,0.12,0.016,JPG\,binoculars01b,cymbal,pizza,candy,skateboard,stapler05,grape01,thermometer02b,speaker04,lemon02,blankImage,blankImage,blankImage,blankImage,blankImage,blankImage,blankImage,skateboard,,,,,,,,,,,,0,108,108,25,,,,,,,,,,,,,,,,,,,,,,,,,,,,,,,,,,,623.4430875999969,624.4439872000075,624.427551700006,624.9923595,624.9923595,None,626.2654308000056,None,left,0.5164602000149898,626.2654308000056,None,626.8130910000182,None,right,0.20059210000908934,626.8130910000182,None,,,,,,,,,,,,,,,,,,,,,,,PPT59,001,2022-07-17_12h00.56.937,ABstudy,2022.1.4,60.10092146615832,
AB,Lag1_T1P_T2P,1,P,P,5,6,4,5,11,owl,Did you see the owl?,0.12,0.016,JPG\,cellphone,tomato01,comb02a,candy,barnowl,stapler03a,toaster01,fan,feather03a,pen04b,lemon02,blankImage,blankImage,blankImage,blankImage,blankImage,blankImage,barnowl,,,,,,,,,,,,0,109,109,33,,,,,,,,,,,,,,,,,,,,,,,,,,,,,,,,,,,627.0596472000179,628.0644138999924,628.047756999993,628.6084561000171,628.6084561000171,None,629.9350780000095,None,left,0.3198262999940198,629.9350780000095,None,630.2831839999999,None,left,0.20213290001265705,630.2831839999999,None,,,,,,,,,,,,,,,,,,,,,,,PPT59,001,2022-07-17_12h00.56.937,ABstudy,2022.1.4,60.10092146615832,
AB,Lag1_T1P_T2P,1,P,P,8,9,7,4,13,kite,Did you see the kite?,0.12,0.016,JPG\,scissors01,balloon01b,eraser,feather03a,banana01,candle01,measuringcup01,kite,stapler04b,strawberry,pear01,carrot01,globe,blankImage,blankImage,blankImage,blankImage,kite,,,,,,,,,,,,0,110,110,17,,,,,,,,,,,,,,,,,,,,,,,,,,,,,,,,,,,630.5169922999921,631.5178216000204,631.5010910000128,632.0522521999956,632.0522521999956,None,633.6527607000025,None,right,0.5203317000123207,633.6527607000025,None,634.203866099997,None,left,0.19515400001546368,634.203866099997,None,,,,,,,,,,,,,,,,,,,,,,,PPT59,001,2022-07-17_12h00.56.937,ABstudy,2022.1.4,60.10092146615832,
AB,Lag1_T1P_T2P,1,P,P,7,8,6,5,13,school bus,Did you see the school bus?,0.12,0.016,JPG\,aceofdiamond,banana01,scissors01,pig,shirt02,leaf02a,schoolbus,stapler05,fork03c,tableknife02,balloon01b,match,toothbrush03b,blankImage,blankImage,blankImage,blankImage,schoolbus,,,,,,,,,,,,0,111,111,24,,,,,,,,,,,,,,,,,,,,,,,,,,,,,,,,,,,634.4607270999986,635.4717132000078,635.4550890999963,636.0212838000152,636.0212838000152,None,637.5993969000119,None,left,0.35051540000131354,637.5993969000119,None,637.9742795999919,None,left,0.25489770001149736,637.9742795999919,None,,,,,,,,,,,,,,,,,,,,,,,PPT59,001,2022-07-17_12h00.56.937,ABstudy,2022.1.4,60.10092146615832,
AB,Lag5_T1P_T2P,5,P,P,8,13,7,3,16,banjo,Did you see the banjo?,0.12,0.016,JPG\,celery,brownsugar,key01,sunglasses04,leaf02a,toothbrush03b,dice05a,banjo,scarf,globe,paintbrush01,scissors01,stapler03a,battery02b,feather03a,cymbal,blankImage,banjo,,,,,,,,,,,,0,112,112,102,,,,,,,,,,,,,,,,,,,,,,,,,,,,,,,,,,,638.2581410999992,639.2588318000198,639.2421518000192,639.801849600015,639.801849600015,None,641.6986070999992,None,left,0.5389126999943983,641.6986070999992,None,642.261706499994,None,right,0.22329370002262294,642.261706499994,None,,,,,,,,,,,,,,,,,,,,,,,PPT59,001,2022-07-17_12h00.56.937,ABstudy,2022.1.4,60.10092146615832,
AB,Lag5_T1P_T2P,5,P,P,7,12,6,4,16,Wolf,Did you see the Wolf?,0.12,0.016,JPG\,brick,eraser,cucumber,ashtray01,thermometer02b,binoculars01b,greywolf,screwdriver04b,grape01,brownsugar,battery02b,stapler03b,dice05a,avocado01,birthdaycandle,watch02a,blankImage,greywolf,,,,,,,,,,,,0,113,113,89,,,,,,,,,,,,,,,,,,,,,,,,,,,,,,,,,,,642.5120372000092,643.5130397000175,643.4963453999953,644.062374000001,644.062374000001,None,646.0174253000005,None,left,0.3406175000127405,646.0174253000005,None,646.3827616999915,None,left,0.2143835000169929,646.3827616999915,None,,,,,,,,,,,,,,,,,,,,,,,PPT59,001,2022-07-17_12h00.56.937,ABstudy,2022.1.4,60.10092146615832,
AB,Lag5_T1P_T2P,5,P,P,7,12,6,5,17,tie,Did you see the tie?,0.12,0.016,JPG\,iron01b,orange,birthdaycandle,potato02b,cauliflower01,pencil01,tie02,candle08b,celery,tableknife02,pen04b,stapler06,ring01,rice,lemon02,tomato01,blankImage,tie02,,,,,,,,,,,,0,114,114,161,,,,,,,,,,,,,,,,,,,,,,,,,,,,,,,,,,,646.617159699992,647.617121999996,647.600554500008,648.1617488000193,648.1617488000193,None,650.1765785000171,None,left,0.3490999999921769,650.1765785000171,None,650.5533407000185,None,left,0.2615685000200756,650.5533407000185,None,,,,,,,,,,,,,,,,,,,,,,,PPT59,001,2022-07-17_12h00.56.937,ABstudy,2022.1.4,60.10092146615832,
AB,Lag5_T1P_T2P,5,P,P,7,12,6,4,16,Recycling bin,Did you see the Recycling bin?,0.12,0.016,JPG\,broccoli01a,scissors01,toothbrush03b,foosballtable,iron01b,brick,recyclingbin,toiletpaper01a,cd,garlic01a,carrot01,stapler03a,envelope03a,battery02b,balloon01b,broom01,blankImage,recyclingbin,,,,,,,,,,,,0,115,115,157,,,,,,,,,,,,,,,,,,,,,,,,,,,,,,,,,,,650.837073600007,651.8378410000005,651.8213612000109,652.3825389000122,652.3825389000122,None,654.3560279000085,None,left,0.481373300019186,654.3560279000085,None,654.8577625000034,None,right,0.33959620000678115,654.8577625000034,None,,,,,,,,,,,,,,,,,,,,,,,PPT59,001,2022-07-17_12h00.56.937,ABstudy,2022.1.4,60.10092146615832,
AB,Lag1_T1P_T2P,1,P,P,8,9,7,3,12,Eiffel tower,Did you see the Eiffel tower?,0.12,0.016,JPG\,celery,tennisball01b,calculator01,pear01,screw02,orange,button01,eiffeltower,stapler03b,apple07,iron01b,brownsugar,blankImage,blankImage,blankImage,blankImage,blankImage,eiffeltower,,,,,,,,,,,,0,116,116,40,,,,,,,,,,,,,,,,,,,,,,,,,,,,,,,,,,,655.2680279000197,656.2757802999986,656.2591414999915,656.8758775000169,656.8016688000062,None,658.1775640000124,None,left,0.4676863999920897,658.1775640000124,None,658.677807,None,left,0.20796870000776835,658.677807,None,,,,,,,,,,,,,,,,,,,,,,,PPT59,001,2022-07-17_12h00.56.937,ABstudy,2022.1.4,60.10092146615832,
AB,Lag5_T1P_T2P,5,P,P,8,13,7,3,16,parachute,Did you see the parachute?,0.12,0.016,JPG\,brick,plate01b,pen04b,toaster01,screwdriver04b,candle01,envelope03a,parachute,pig,ring01,orange,clock01a,stapler03b,calculator01,mushroom01,chain01,blankImage,parachute,,,,,,,,,,,,0,117,117,114,,,,,,,,,,,,,,,,,,,,,,,,,,,,,,,,,,,658.9117145999917,659.9127868000069,659.8961032000079,660.4612862000067,660.4612862000067,None,662.494157100009,None,right,0.54369790002238,662.494157100009,None,663.0658984000038,None,left,0.2038866000075359,663.0658984000038,None,,,,,,,,,,,,,,,,,,,,,,,PPT59,001,2022-07-17_12h00.56.937,ABstudy,2022.1.4,60.10092146615832,
AB,Lag1_T1A_T2P,1,A,P,8,9,7,4,13,Fireplace,Did you see the Fireplace?,0.12,0.016,JPG\,scissors01,ashtray01,garlic01a,medal02b,cigarette,candle08b,leaf02a,envelope03a,stapler06,rice,toiletpaper01a,greenolive,cymbal,blankImage,blankImage,blankImage,blankImage,dartboard,,,,,,,,,,,,0,118,118,252,,,,,,,,,,,,,,,,,,,,,,,,,,,,,,,,,,,663.2992933999922,664.3004298000014,664.283942900016,664.8389329999918,664.8389329999918,None,666.3692052999977,None,right,0.571724900015397,666.3692052999977,None,666.9697604000103,None,left,0.17986319999909028,666.9697604000103,None,,,,,,,,,,,,,,,,,,,,,,,PPT59,001,2022-07-17_12h00.56.937,ABstudy,2022.1.4,60.10092146615832,
AB,Lag5_T1P_T2P,5,P,P,6,11,5,3,14,ladder,Did you see the ladder?,0.12,0.016,JPG\,celery,orange,scissors01,balloon01b,avocado01,stepladder,mushroom01,sewingmachine01a,lighter01,dice05a,stapler01,fan,cd,sock01a,blankImage,blankImage,blankImage,stepladder,,,,,,,,,,,,0,119,119,119,,,,,,,,,,,,,,,,,,,,,,,,,,,,,,,,,,,667.169899600005,668.1709718999919,668.1542995999916,668.7146540000103,668.7146540000103,None,670.5054124000017,None,left,0.3716751000029035,670.5054124000017,None,670.9084474999981,None,left,0.2498769999947399,670.9084474999981,None,,,,,,,,,,,,,,,,,,,,,,,PPT59,001,2022-07-17_12h00.56.937,ABstudy,2022.1.4,60.10092146615832,
AB,Lag5_T1P_T2A,5,P,A,6,11,5,3,14,Balcony,Did you see the Balcony?,0.12,0.016,JPG\,tomato01,pen04b,shirt02,carrot01,lamp04a,balcony02,pizza,avocado01,sewingmachine01a,apple07,iron01b,book01b,chain01,sock01a,blankImage,blankImage,blankImage,balcony02,,,,,,,,,,,,0,120,120,207,,,,,,,,,,,,,,,,,,,,,,,,,,,,,,,,,,,671.1905274000019,672.1914602000033,672.1749467000191,672.7428456000052,672.7428456000052,None,674.5046031000093,None,right,0.5493419999838807,674.5046031000093,None,675.0777743000071,None,left,0.23211760001140647,675.0777743000071,None,,,,,,,,,,,,,,,,,,,,,,,PPT59,001,2022-07-17_12h00.56.937,ABstudy,2022.1.4,60.10092146615832,
AB,Lag5_T1A_T2P,5,A,P,6,11,5,4,15,butterfly,Did you see the butterfly?,0.12,0.016,JPG\,comb02a,key01,medal02b,battery02b,lighter01,microscope,watermelon01,sandal,pig,cellphone,stapler06,calculator01,cymbal,clock04,cucumber,blankImage,blankImage,uprightpiano01,,,,,,,,,,,,0,121,121,276,,,,,,,,,,,,,,,,,,,,,,,,,,,,,,,,,,,675.3280697000155,676.3292161000136,676.3123998999945,676.8699451000139,676.8699451000139,None,678.7858431000204,None,right,0.47523280000314116,678.7858431000204,None,679.2820831999998,None,left,0.2113991999940481,679.2820831999998,None,,,,,,,,,,,,,,,,,,,,,,,PPT59,001,2022-07-17_12h00.56.937,ABstudy,2022.1.4,60.10092146615832,
AB,Lag5_T1P_T2P,5,P,P,6,11,5,5,16,table,Did you see the table?,0.12,0.016,JPG\,birthdaycandle,mushroom01,strawberry,match,cherry01,table01,hammer01,thermometer02b,sock01a,ring01,stapler06,banana01,toiletpaper01a,key01,sponge01,teabag,blankImage,table01,,,,,,,,,,,,0,122,122,144,,,,,,,,,,,,,,,,,,,,,,,,,,,,,,,,,,,679.5155480999965,680.5166248000169,680.4999059000111,681.0002853000187,681.0002853000187,None,683.0369223000016,None,left,0.32025300001259893,683.0369223000016,None,683.3862021999958,None,left,0.2528851999959443,683.3862021999958,None,,,,,,,,,,,,,,,,,,,,,,,PPT59,001,2022-07-17_12h00.56.937,ABstudy,2022.1.4,60.10092146615832,
AB,Lag5_T1P_T2A,5,P,A,7,12,6,5,17,shoulder,Did you see the shoulder?,0.12,0.016,JPG\,battery02b,sunglasses04,pear01,tennisball01b,clock01a,speaker04,shoulder,spoon01,alligator,pineapple01a,avocado01,grape01,blueberry01,violin,strawberry,sock01a,blankImage,shoulder,,,,,,,,,,,,0,123,123,224,,,,,,,,,,,,,,,,,,,,,,,,,,,,,,,,,,,683.6697597000166,684.6706386000151,684.6540385000117,685.2180260000168,685.2180260000168,None,687.218820900016,None,left,0.7550841000047512,687.218820900016,None,687.9907264999929,None,right,0.22260400000959635,687.9907264999929,None,,,,,,,,,,,,,,,,,,,,,,,PPT59,001,2022-07-17_12h00.56.937,ABstudy,2022.1.4,60.10092146615832,
AB,Lag5_T1A_T2P,5,A,P,7,12,6,5,17,funnel,Did you see the funnel?,0.12,0.016,JPG\,iron01b,orange,birthdaycandle,potato02b,cauliflower01,pencil01,key01,candle08b,celery,tableknife02,pen04b,stapler04b,ring01,rice,lemon02,tomato01,blankImage,englishcucumber,,,,,,,,,,,,0,124,124,259,,,,,,,,,,,,,,,,,,,,,,,,,,,,,,,,,,,688.2409527999989,689.2419150999922,689.2252019000007,689.7848344999948,689.7848344999948,None,691.7698417000065,None,right,0.8365487999981269,691.7698417000065,None,692.6286115999974,None,left,0.17659330001333728,692.6286115999974,None,,,,,,,,,,,,,,,,,,,,,,,PPT59,001,2022-07-17_12h00.56.937,ABstudy,2022.1.4,60.10092146615832,
AB,Lag5_T1P_T2A,5,P,A,5,10,4,3,13,martini glass,Did you see the martini glass?,0.12,0.016,JPG\,brick,eraser,cucumber,ashtray01,martiniglass01b,binoculars01b,lipstick02a,screwdriver04b,grape01,brownsugar,battery02b,iron01b,dice05a,blankImage,blankImage,blankImage,blankImage,martiniglass01b,,,,,,,,,,,,0,125,125,217,,,,,,,,,,,,,,,,,,,,,,,,,,,,,,,,,,,692.8288830000092,693.8299340000085,693.8131970000104,694.3755425999989,694.3755425999989,None,696.0266571000102,None,left,0.5307987999985926,696.0266571000102,None,696.5824945000059,None,right,0.17461590000311844,696.5824945000059,None,,,,,,,,,,,,,,,,,,,,,,,PPT59,001,2022-07-17_12h00.56.937,ABstudy,2022.1.4,60.10092146615832,
AB,Lag1_T1P_T2P,1,P,P,6,7,5,3,10,handcuffs,Did you see the handcuffs?,0.12,0.016,JPG\,sewingmachine01a,scarf,carrot01,book01b,eraser,handcuffs,stapler05,lipstick02a,printer02,garlic01a,blankImage,blankImage,blankImage,blankImage,blankImage,blankImage,blankImage,handcuffs,,,,,,,,,,,,0,126,126,2,,,,,,,,,,,,,,,,,,,,,,,,,,,,,,,,,,,696.7830010000034,697.7838356000138,697.7671328000142,698.3353623000148,698.3353623000148,None,699.5656348000048,None,left,0.5359997000196017,699.5656348000048,None,700.1194552000088,None,left,0.2461092000012286,700.1194552000088,None,,,,,,,,,,,,,,,,,,,,,,,PPT59,001,2022-07-17_12h00.56.937,ABstudy,2022.1.4,60.10092146615832,
AB,Lag5_T1A_T2A,5,A,A,5,10,4,5,15,sword,Did you see the sword?,0.12,0.016,JPG\,pencil01,broccoli01a,button01,sponge01,watermelon01,lipstick02a,comb02a,fan,lighter01,sock01a,spoon01,blueberry01,belt02a,onion,grape01,blankImage,blankImage,parachute,,,,,,,,,,,,0,127,127,298,,,,,,,,,,,,,,,,,,,,,,,,,,,,,,,,,,,700.3864225000143,701.3875140000018,701.3708169000165,701.9241540000075,701.9241540000075,None,703.7727384000027,None,right,0.6008499999879859,703.7727384000027,None,704.3904369999946,None,left,0.38380220002727583,704.3904369999946,None,,,,,,,,,,,,,,,,,,,,,,,PPT59,001,2022-07-17_12h00.56.937,ABstudy,2022.1.4,60.10092146615832,
AB,Lag5_T1P_T2P,5,P,P,6,11,5,5,16,Car,Did you see the Car?,0.12,0.016,JPG\,leaf02a,apple07,cd,pineapple01a,envelope03a,car,pig,canoftennisballs,rice,feather03a,stapler03a,balloon01b,avocado01,calculator01,watermelon01,teabag,blankImage,car,,,,,,,,,,,,0,128,128,127,,,,,,,,,,,,,,,,,,,,,,,,,,,,,,,,,,,704.7908906000084,705.7917529999977,705.7750449000159,706.3314444000134,706.3314444000134,None,708.326232899999,None,left,0.37520380000933073,708.326232899999,None,708.7280902000202,None,left,0.2695164000033401,708.7280902000202,None,,,,,,,,,,,,,,,,,,,,,,,PPT59,001,2022-07-17_12h00.56.937,ABstudy,2022.1.4,60.10092146615832,
AB,Lag1_T1P_T2A,1,P,A,8,9,7,5,14,Ceiling fan,Did you see the Ceiling fan?,0.12,0.016,JPG\,cucumber,sponge01,alligator,pear01,ashtray01,hammer01,clock04,ceilingfan01,fork03c,binoculars01b,mushroom01,broccoli01a,leaf02a,acorn,blankImage,blankImage,blankImage,ceilingfan01,,,,,,,,,,,,0,129,129,183,,,,,,,,,,,,,,,,,,,,,,,,,,,,,,,,,,,709.0557176000148,710.0627946000022,710.0459147999936,710.6035999000014,710.6035999000014,None,712.2147833000054,None,left,0.4388981999945827,712.2147833000054,None,712.68187640002,None,right,0.2448207000270486,712.68187640002,None,,,,,,,,,,,,,,,,,,,,,,,PPT59,001,2022-07-17_12h00.56.937,ABstudy,2022.1.4,60.10092146615832,
AB,Lag1_T1P_T2P,1,P,P,5,6,4,3,9,kangaroo,Did you see the kangaroo?,0.12,0.016,JPG\,candle01,shirt02,brick,orange,kangaroo,stapler03a,pizza,thermometer02b,book01b,blankImage,blankImage,blankImage,blankImage,blankImage,blankImage,blankImage,blankImage,kangaroo,,,,,,,,,,,,0,130,130,16,,,,,,,,,,,,,,,,,,,,,,,,,,,,,,,,,,,712.9489318999986,713.9498494,713.9333430000115,714.4872513000155,714.4872513000155,None,715.6431787000038,None,left,0.37032430002000183,715.6431787000038,None,716.0347722000151,None,left,0.19562270000460558,716.0347722000151,None,,,,,,,,,,,,,,,,,,,,,,,PPT59,001,2022-07-17_12h00.56.937,ABstudy,2022.1.4,60.10092146615832,
AB,Lag1_T1P_T2P,1,P,P,7,8,6,3,11,Moose,Did you see the Moose?,0.12,0.016,JPG\,sock01a,spoon01,alligator,comb02a,printer02,medal02b,moose,stapler03a,greenolive,computerkeyboard02,cauliflower01,blankImage,blankImage,blankImage,blankImage,blankImage,blankImage,moose,,,,,,,,,,,,0,131,131,67,,,,,,,,,,,,,,,,,,,,,,,,,,,,,,,,,,,716.2523004999966,717.2532129000174,717.2364604000177,717.8015145999962,717.8015145999962,None,719.1695198999951,None,left,0.4037137999839615,719.1695198999951,None,719.6054848000058,None,left,0.1837128000042867,719.6054848000058,None,,,,,,,,,,,,,,,,,,,,,,,PPT59,001,2022-07-17_12h00.56.937,ABstudy,2022.1.4,60.10092146615832,
AB,Lag5_T1P_T2P,5,P,P,5,10,4,5,15,mouse,Did you see the mouse?,0.12,0.016,JPG\,pineapple01a,leaf02a,grape01,toiletpaper01a,mouse,tennisball01b,spoon01,chain01,pig,stapler03a,ring01,lemon02,dice05a,pizza,potato02b,blankImage,blankImage,mouse,,,,,,,,,,,,0,132,132,94,,,,,,,,,,,,,,,,,,,,,,,,,,,,,,,,,,,719.8054332000029,720.8066125000187,720.7900488000014,721.3542682999978,721.3542682999978,None,723.2705455000105,None,left,0.3506669000198599,723.2705455000105,None,723.6429480999941,None,left,0.2505421999958344,723.6429480999941,None,,,,,,,,,,,,,,,,,,,,,,,PPT59,001,2022-07-17_12h00.56.937,ABstudy,2022.1.4,60.10092146615832,
AB,Lag1_T1P_T2A,1,P,A,5,6,4,4,10,paper airplane,Did you see the paper airplane?,0.12,0.016,JPG\,thermometer02b,avocado01,scissors01,tennisball01b,paperairplane,banana01,strawberry,cigarette,potato02b,pineapple01a,blankImage,blankImage,blankImage,blankImage,blankImage,blankImage,blankImage,paperairplane,,,,,,,,,,,,0,133,133,191,,,,,,,,,,,,,,,,,,,,,,,,,,,,,,,,,,,723.9120750000002,724.9275362000044,724.8942621000169,725.4562740999972,725.4562740999972,None,726.7193454999942,None,left,0.5904115999874193,726.7193454999942,None,727.3297831999953,None,right,0.17977039999095723,727.3297831999953,None,,,,,,,,,,,,,,,,,,,,,,,PPT59,001,2022-07-17_12h00.56.937,ABstudy,2022.1.4,60.10092146615832,
AB,Lag1_T1A_T2A,1,A,A,8,9,7,3,12,punching bag,Did you see the punching bag?,0.12,0.016,JPG\,key01,apple07,ring01,leaf02a,hammer01,tableknife02,violin,sponge01,baseball01a,thermometer02b,celery,calculator01,blankImage,blankImage,blankImage,blankImage,blankImage,bathtub,,,,,,,,,,,,0,134,134,291,,,,,,,,,,,,,,,,,,,,,,,,,,,,,,,,,,,727.529944000009,728.5311037999927,728.5143416000064,729.0727554000041,729.0727554000041,None,730.6391369000194,None,right,0.750022699998226,730.6391369000194,None,731.4173307000019,None,left,0.32424270000774413,731.4173307000019,None,,,,,,,,,,,,,,,,,,,,,,,PPT59,001,2022-07-17_12h00.56.937,ABstudy,2022.1.4,60.10092146615832,
AB,Lag1_T1P_T2P,1,P,P,8,9,7,3,12,apron,Did you see the apron?,0.12,0.016,JPG\,avocado01,tambourine02,match,cauliflower01,paintbrush01,clock01a,pig,apron,stapler03a,cellphone,watch02a,pear01,blankImage,blankImage,blankImage,blankImage,blankImage,apron,,,,,,,,,,,,0,135,135,32,,,,,,,,,,,,,,,,,,,,,,,,,,,,,,,,,,,731.7675560000062,732.7686474999937,732.7519300999993,733.3171161999926,733.3171161999926,None,734.8332037999935,None,left,0.5962059999874327,734.8332037999935,None,735.4544999999925,None,right,0.3025307000207249,735.4544999999925,None,,,,,,,,,,,,,,,,,,,,,,,PPT59,001,2022-07-17_12h00.56.937,ABstudy,2022.1.4,60.10092146615832,
AB,Lag1_T1A_T2P,1,A,P,8,9,7,5,14,clock,Did you see the clock?,0.12,0.016,JPG\,speaker04,sewingmachine01a,eraser,violin,globe,belt02a,sunglasses04,cymbal,stapler01,greenolive,alligator,pear01,watch02a,screwdriver04b,blankImage,blankImage,blankImage,peacock,,,,,,,,,,,,0,136,136,240,,,,,,,,,,,,,,,,,,,,,,,,,,,,,,,,,,,735.7882208999945,736.789371699997,736.7725625000021,737.3383280000126,737.3383280000126,None,739.0478565999947,None,right,0.3970065000175964,739.0478565999947,None,739.4754070999916,None,left,0.22598839999409392,739.4754070999916,None,,,,,,,,,,,,,,,,,,,,,,,PPT59,001,2022-07-17_12h00.56.937,ABstudy,2022.1.4,60.10092146615832,
