TrialType,CondType,Lag,T1_PA,T2_PA,T1Loc,T2Loc,PreDistractor,PostDistractor,TotalImg,cueWord,T1cue,StimLength,isi,PicFolder,Img1,Img2,Img3,Img4,Img5,Img6,Img7,Img8,Img9,Img10,Img11,Img12,Img13,Img14,Img15,Img16,Img17,T1_Identity,ImageType,T1PA,T2PA,Picture,Image,FullPathName,FilePath,Practice_Trials.thisRepN,Practice_Trials.thisTrialN,Practice_Trials.thisN,Practice_Trials.thisIndex,trials.thisRepN,trials.thisTrialN,trials.thisN,trials.thisIndex,trials_2.thisRepN,trials_2.thisTrialN,trials_2.thisN,trials_2.thisIndex,Practice_Ins.started,Practice_Ins.stopped,End_Prac_Ins.keys,End_Prac_Ins.rt,End_Prac_Ins.started,End_Prac_Ins.stopped,text_2.started,text_2.stopped,Fixation_Cross_2.started,Fixation_Cross_2.stopped,Rapid_Image_Present_2.started,Rapid_Image_Present_2.stopped,key_resp.keys,key_resp.rt,key_resp.started,key_resp.stopped,T1Response_2.started,T1Response_2.stopped,T2Response_2.started,T2Response_2.stopped,key_resp_4.keys,key_resp_4.rt,key_resp_4.started,key_resp_4.stopped,text.started,text.stopped,End_Instructions.keys,End_Instructions.rt,End_Instructions.started,End_Instructions.stopped,text_5.started,text_5.stopped,FC.started,FC.stopped,Rapid_Image_Present.started,Rapid_Image_Present.stopped,T1Response.started,T1Response.stopped,key_resp_2.keys,key_resp_2.rt,key_resp_2.started,key_resp_2.stopped,T2Response.started,T2Response.stopped,key_resp_3.keys,key_resp_3.rt,key_resp_3.started,key_resp_3.stopped,text_6.started,text_6.stopped,Fin_ins.keys,Fin_ins.rt,Fin_ins.started,Fin_ins.stopped,MemTest.started,MemTest.stopped,MemResponse.keys,MemResponse.rt,MemResponse.started,MemResponse.stopped,Display.started,Display.stopped,text_7.started,text_7.stopped,participant,session,date,expName,psychopyVersion,frameRate,
,,,,,,,,,,,,,,,,,,,,,,,,,,,,,,,,,,,,,,,,,,,,,,,,,,,,15.516272300010314,None,space,53.694478299992625,15.516272300010314,None,,,,,,,,,,,,,,,,,,,,,,,,,,,,,,,,,,,,,,,,,,,,,,,,,,,,,,,,,,,PPT60,001,2022-07-17_12h44.39.138,ABstudy,2022.1.4,59.94362901818208,
AB_Prac,Lag5_T1P_T2P,5,P,P,5,10,4,5,15,washing machine,Did you see the washing machine?,0.5,0.016,JPG\,waterbottle03,wheel01,flashlight02b,zucchini01,washingmachine,headphones02b,nutcracker01,paintroller01,paperclip03,stapler06,ribbon04,electricrazor,bottleofredwine01,pitabread,pot02a,blankImage,blankImage,washingmachine,,,,,,,,0,0,0,4,,,,,,,,,,,,,,,69.26945230001002,70.28248470000108,70.26542640000116,70.87226289999671,70.87226289999671,None,right,3.124469100002898,78.51028260000749,None,78.51028260000749,None,81.66068319999613,None,left,0.7826499000075273,81.66068319999613,None,,,,,,,,,,,,,,,,,,,,,,,,,,,,,,,,,,,,,,,,,PPT60,001,2022-07-17_12h44.39.138,ABstudy,2022.1.4,59.94362901818208,
AB_Prac,Lag5_T1P_T2A,5,P,A,6,11,5,5,16,bread,Did you see the bread?,0.5,0.016,JPG\,cleaver01,clipboard,dustpan,hikingshoe01,notebook03a,baguette01,playingcard,pliers02b,styrofoamcup,rollingpin01a,swimgoggles,wineglass01,fryingpan02a,safetypin,syringe01,thimble,blankImage,baguette01,,,,,,,,0,1,1,8,,,,,,,,,,,,,,,82.46264730000985,83.46206390002044,83.44555580001906,83.99925290001556,83.99925290001556,None,left,2.181996100000106,92.09234440000728,None,92.09234440000728,None,94.3064748000179,None,right,0.8251383000169881,94.3064748000179,None,,,,,,,,,,,,,,,,,,,,,,,,,,,,,,,,,,,,,,,,,PPT60,001,2022-07-17_12h44.39.138,ABstudy,2022.1.4,59.94362901818208,
AB_Prac,Lag1_T1P_T2P,1,P,P,8,9,7,5,14,Tennis racket,Did you see the Tennis racket?,0.5,0.016,JPG\,coconut,computermouse06,croissant01,deodorant02a,pillow01a,peanut01,boot02b,tennisracket,stapler03b,crayon,eggplant,marker01a,plant01,radish01,blankImage,blankImage,blankImage,tennisracket,,,,,,,,0,2,2,0,,,,,,,,,,,,,,,95.15939489999437,96.17488470001263,96.14144410000881,96.71617270002025,96.71617270002025,None,left,1.5196862000157125,103.78775600000517,None,103.78775600000517,None,105.33396740001626,None,left,0.6608431999920867,105.33396740001626,None,,,,,,,,,,,,,,,,,,,,,,,,,,,,,,,,,,,,,,,,,PPT60,001,2022-07-17_12h44.39.138,ABstudy,2022.1.4,59.94362901818208,
AB_Prac,Lag5_T1P_T2P,5,P,P,7,12,6,3,15,vacuum,Did you see the vacuum?,0.5,0.016,JPG\,fork07b,lightbulb01,manshoe,saw02b,shoelace,soap03a,vacuumcleaner01,floortile01,necklace,doll,cabbage,stapler03a,hanger02a,laptop01a,nailpolish03b,blankImage,blankImage,vacuumcleaner01,,,,,,,,0,3,3,2,,,,,,,,,,,,,,,106.0181819999998,107.01905289999559,107.00217839999823,107.55790750001324,107.55790750001324,None,left,0.9470786000019871,115.10364360001404,None,115.10364360001404,None,116.07793150001089,None,left,0.373163200012641,116.07793150001089,None,,,,,,,,,,,,,,,,,,,,,,,,,,,,,,,,,,,,,,,,,PPT60,001,2022-07-17_12h44.39.138,ABstudy,2022.1.4,59.94362901818208,
AB_Prac,Lag5_T1A_T2A,5,A,A,6,11,5,5,16,castle,Did you see the castle?,0.5,0.016,JPG\,tape02a,englishmuffin,flask,ladle02a,monitor,peach01,keychain,squeegee01b,telephone01b,whisk,walkman,syringe02,baguette01,coaster,box01a,coffeepot03a,blankImage,None,,,,,,,,0,4,4,11,,,,,,,,,,,,,,,116.4785084000032,117.47937390001607,117.46260719999555,118.03037960000802,118.03037960000802,None,right,1.4480375999992248,126.08331700001145,None,126.08331700001145,None,127.55576340001426,None,right,1.1754789000260644,127.55576340001426,None,,,,,,,,,,,,,,,,,,,,,,,,,,,,,,,,,,,,,,,,,PPT60,001,2022-07-17_12h44.39.138,ABstudy,2022.1.4,59.94362901818208,
AB_Prac,Lag1_T1A_T2A,1,A,A,8,9,7,3,12,Moose,Did you see the Moose?,0.5,0.016,JPG\,clothespin03b,corkscrew03a,drillbit03a,fusilli03a,needlenosepliers01,perfume01a,pistachio,scrubbingbrush05b,spatula03,toothpastetube,hinge,toydinosaur,blankImage,blankImage,blankImage,blankImage,blankImage,None,,,,,,,,0,5,5,10,,,,,,,,,,,,,,,128.84027760001482,129.84153570001945,129.82500420001452,130.381958700018,130.381958700018,None,right,1.1479481999995187,136.47859880002216,None,136.47859880002216,None,137.64953439999954,None,right,0.737248899997212,137.64953439999954,None,,,,,,,,,,,,,,,,,,,,,,,,,,,,,,,,,,,,,,,,,PPT60,001,2022-07-17_12h44.39.138,ABstudy,2022.1.4,59.94362901818208,
AB_Prac,Lag1_T1P_T2A,1,P,A,5,6,4,5,11,Webcam,Did you see the Webcam?,0.5,0.016,JPG\,pictureframe04,binder03b,straw,adjustablewrench01b,webcam,cane,hairdryer02a,icepack,kitchenscale01a,lifejacket,piggybank,blankImage,blankImage,blankImage,blankImage,blankImage,blankImage,webcam,,,,,,,,0,6,6,6,,,,,,,,,,,,,,,138.41872000001604,139.41786080002203,139.40127020000364,139.96271180000622,139.96271180000622,None,left,2.0065750000067055,145.6278796000115,None,145.6278796000115,None,147.6606354000105,None,right,0.9674308999965433,147.6606354000105,None,,,,,,,,,,,,,,,,,,,,,,,,,,,,,,,,,,,,,,,,,PPT60,001,2022-07-17_12h44.39.138,ABstudy,2022.1.4,59.94362901818208,
AB_Prac,Lag5_T1P_T2A,5,P,A,6,11,5,5,16,Wheat,Did you see the Wheat?,0.5,0.016,JPG\,bottleopener01,dentalfloss03b,cooler01,icecreamcone01a,paperclip01b,wheat,pencilsharpener02a,plasticbasket01a,toycar04,apricot,hairclip02,rock01a,honeydewmelon,antenna,blackberry,cardboardbox,blankImage,wheat,,,,,,,,0,7,7,7,,,,,,,,,,,,,,,148.66120319999754,149.66121429999475,149.64467239999794,150.20947550001438,150.20947550001438,None,left,4.139967399998568,158.28648830001475,None,158.28648830001475,None,162.45747799999663,None,right,0.5055816000094637,162.45747799999663,None,,,,,,,,,,,,,,,,,,,,,,,,,,,,,,,,,,,,,,,,,PPT60,001,2022-07-17_12h44.39.138,ABstudy,2022.1.4,59.94362901818208,
AB_Prac,Lag5_T1P_T2P,5,P,P,5,10,4,5,15,Vulture,Did you see the Vulture?,0.5,0.016,JPG\,shorts01,toast,ramekin01,bib,vulture,cracker02,date,glasses01a,hat03b,stapler01,measuringtape01,nail,pill,drum01,starfish01,blankImage,blankImage,vulture,,,,,,,,0,8,8,3,,,,,,,,,,,,,,,162.99316390001331,163.9922462000104,163.9756308000069,164.53924450001796,164.53924450001796,None,left,1.7913215000007767,172.09151990001556,None,172.09151990001556,None,173.9021253999963,None,right,0.6046448000124656,173.9021253999963,None,,,,,,,,,,,,,,,,,,,,,,,,,,,,,,,,,,,,,,,,,PPT60,001,2022-07-17_12h44.39.138,ABstudy,2022.1.4,59.94362901818208,
AB_Prac,Lag5_T1A_T2P,5,A,P,6,11,5,3,14,dog,Did you see the dog?,0.5,0.016,JPG\,bucket01a,doorlock,cookiecutter,fireextinguisher01,gluestick,highlighter02b,sportbag,spraybottle01,suitcase,thread02,stapler05,walnut01c,icecubetray01a,vikingmask01b,blankImage,blankImage,blankImage,None,,,,,,,,0,9,9,9,,,,,,,,,,,,,,,174.53623910000897,175.5371267000155,175.5205263000098,176.08914580001147,176.08914580001147,None,right,1.5679120999993756,183.13824400000158,None,183.13824400000158,None,184.72965360002127,None,left,0.6565838999813423,184.72965360002127,None,,,,,,,,,,,,,,,,,,,,,,,,,,,,,,,,,,,,,,,,,PPT60,001,2022-07-17_12h44.39.138,ABstudy,2022.1.4,59.94362901818208,
AB_Prac,Lag1_T1P_T2A,1,P,A,8,9,7,5,14,flower,Did you see the flower?,0.5,0.016,JPG\,razor01,axe01,binder03b,bowl01,kettle01,lettuce,lime,plasticflower01b,mitten04,pencilcase01,plunger02,strawbasket01,toothpick02,wallet02a,blankImage,blankImage,blankImage,plasticflower01b,,,,,,,,0,10,10,5,,,,,,,,,,,,,,,185.49276560000726,186.49794110000948,186.48142330002156,187.03503250001813,187.03503250001813,None,left,1.3615725999989081,194.1608388000168,None,194.1608388000168,None,195.54037430000608,None,right,1.302113499987172,195.54037430000608,None,,,,,,,,,,,,,,,,,,,,,,,,,,,,,,,,,,,,,,,,,PPT60,001,2022-07-17_12h44.39.138,ABstudy,2022.1.4,59.94362901818208,
AB_Prac,Lag1_T1P_T2P,1,P,P,6,7,5,5,12,triangle,Did you see the triangle?,0.5,0.016,JPG\,ginger,mousetrap,plum01,slipper01b,dropper01,triangle,stapler04b,pants,raspberry01,rope03,scale01a,vase01,blankImage,blankImage,blankImage,blankImage,blankImage,triangle,,,,,,,,0,11,11,1,,,,,,,,,,,,,,,196.87506990000838,197.87619640000048,197.85927740001353,198.42048920001253,198.42048920001253,None,left,1.561784899997292,204.47264480000013,None,204.47264480000013,None,206.05070730001898,None,left,0.6716376999975182,206.05070730001898,None,,,,,,,,,,,,,,,,,,,,,,,,,,,,,,,,,,,,,,,,,PPT60,001,2022-07-17_12h44.39.138,ABstudy,2022.1.4,59.94362901818208,
,,,,,,,,,,,,,,,,,,,,,,,,,,,,,,,,,,,,,,,,,,,,,,,,,,,,,,,,,,,,,,,,,,,,,,,,,,,,206.7516685000155,None,space,54.84262280000257,206.7516685000155,None,,,,,,,,,,,,,,,,,,,,,,,,,,,,,,,,,,,PPT60,001,2022-07-17_12h44.39.138,ABstudy,2022.1.4,59.94362901818208,
AB,Lag5_T1P_T2P,5,P,P,7,12,6,5,17,flamingo,Did you see the flamingo?,0.12,0.016,JPG\,pig,belt02a,rice,screwdriver04b,candle01,apple07,flamingo,pear01,feather03a,match,thermometer02b,stapler06,lemon02,violin,medal02b,pineapple01a,blankImage,flamingo,,,,,,,,,,,,0,0,0,153,,,,,,,,,,,,,,,,,,,,,,,,,,,,,,,,,,,262.2319432999939,263.24101070000324,263.22446200001286,263.72507030001725,263.72507030001725,None,265.77670770001714,None,left,5.145568999985699,265.77670770001714,None,270.94891380000627,None,right,0.7894442999968305,270.94891380000627,None,,,,,,,,,,,,,,,,,PPT60,001,2022-07-17_12h44.39.138,ABstudy,2022.1.4,59.94362901818208,
AB,Lag1_T1A_T2P,1,A,P,8,9,7,3,12,elbow,Did you see the elbow?,0.12,0.016,JPG\,watermelon01,cigarette,faucet,cymbal,cauliflower01,feather03a,cherry01,broom01,stapler01,key01,baseball01a,iron01b,blankImage,blankImage,blankImage,blankImage,blankImage,cashregister01,,,,,,,,,,,,0,1,1,251,,,,,,,,,,,,,,,,,,,,,,,,,,,,,,,,,,,271.76640419999603,272.76727450001636,272.7506072999968,273.32168570000795,273.32168570000795,None,274.8103347000142,None,right,1.336840099975234,274.8103347000142,None,276.1705995000084,None,left,0.5190923000045586,276.1705995000084,None,,,,,,,,,,,,,,,,,PPT60,001,2022-07-17_12h44.39.138,ABstudy,2022.1.4,59.94362901818208,
AB,Lag1_T1A_T2P,1,A,P,6,7,5,5,12,Treadmill,Did you see the Treadmill?,0.12,0.016,JPG\,pencil01,broccoli01a,button01,sponge01,watermelon01,lipstick02a,stapler04b,fan,lighter01,sock01a,spoon01,blueberry01,blankImage,blankImage,blankImage,blankImage,blankImage,magneticcompass,,,,,,,,,,,,0,2,2,238,,,,,,,,,,,,,,,,,,,,,,,,,,,,,,,,,,,276.7212115000002,277.72211150001385,277.7056988000113,278.2567031000217,278.2567031000217,None,279.77444020000985,None,right,1.2282061000005342,279.77444020000985,None,281.02571109999553,None,left,0.4094649000035133,281.02571109999553,None,,,,,,,,,,,,,,,,,PPT60,001,2022-07-17_12h44.39.138,ABstudy,2022.1.4,59.94362901818208,
AB,Lag5_T1P_T2P,5,P,P,7,12,6,5,17,American football helmet,Did you see the American football helmet?,0.12,0.016,JPG\,alligator,banana01,apple07,tomato01,button01,spoon01,footballhelmet,fork03c,slipper03b,potato02b,grape01,stapler03b,teabag,screwdriver04b,hammer01,tennisball01b,blankImage,footballhelmet,,,,,,,,,,,,0,3,3,148,,,,,,,,,,,,,,,,,,,,,,,,,,,,,,,,,,,281.461340800015,282.477060300007,282.4435017000069,282.94391830000677,282.94391830000677,None,285.0597423000145,None,left,0.8299621999904048,285.0597423000145,None,285.9138726000092,None,left,0.4723812000011094,285.9138726000092,None,,,,,,,,,,,,,,,,,PPT60,001,2022-07-17_12h44.39.138,ABstudy,2022.1.4,59.94362901818208,
AB,Lag5_T1A_T2P,5,A,P,6,11,5,4,15,fish,Did you see the fish?,0.12,0.016,JPG\,pingpongpaddle01c,banana01,scissors01,pig,shirt02,leaf02a,pear01,sponge01,fork03c,tableknife02,stapler03a,match,toothbrush03b,birthdaycandle,candle01,blankImage,blankImage,lighthouse,,,,,,,,,,,,0,4,4,265,,,,,,,,,,,,,,,,,,,,,,,,,,,,,,,,,,,286.41433610001695,287.4153460999951,287.398445800005,287.9602788000193,287.9602788000193,None,289.7961400000204,None,right,0.9663183999946341,289.7961400000204,None,290.7853863000055,None,left,0.5781416000099853,290.7853863000055,None,,,,,,,,,,,,,,,,,PPT60,001,2022-07-17_12h44.39.138,ABstudy,2022.1.4,59.94362901818208,
AB,Lag1_T1P_T2P,1,P,P,8,9,7,4,13,dart board,Did you see the dart board?,0.12,0.016,JPG\,rice,watermelon01,tableknife02,scarf,computerkeyboard02,cauliflower01,battery02b,dartboard,stapler01,sandal,sponge01,microscope,tomato01,blankImage,blankImage,blankImage,blankImage,dartboard,,,,,,,,,,,,0,5,5,80,,,,,,,,,,,,,,,,,,,,,,,,,,,,,,,,,,,291.38597920001484,292.3868487,292.37035650000325,292.92673380000633,292.92673380000633,None,294.6224521000113,None,left,0.7400594000064302,294.6224521000113,None,295.3896944000153,None,left,0.4364662000152748,295.3896944000153,None,,,,,,,,,,,,,,,,,PPT60,001,2022-07-17_12h44.39.138,ABstudy,2022.1.4,59.94362901818208,
AB,Lag1_T1P_T2P,1,P,P,6,7,5,3,10,Pool table,Did you see the Pool table?,0.12,0.016,JPG\,tomato01,pen04b,shirt02,carrot01,lamp04a,pooltable,stapler06,avocado01,sewingmachine01a,apple07,blankImage,blankImage,blankImage,blankImage,blankImage,blankImage,blankImage,pooltable,,,,,,,,,,,,0,6,6,29,,,,,,,,,,,,,,,,,,,,,,,,,,,,,,,,,,,295.8582765000174,296.8579862000188,296.84149900000193,297.4052739000181,297.4052739000181,None,298.65934660000494,None,left,1.4149376999994274,298.65934660000494,None,300.0945003000088,None,left,0.5649697000044398,300.0945003000088,None,,,,,,,,,,,,,,,,,PPT60,001,2022-07-17_12h44.39.138,ABstudy,2022.1.4,59.94362901818208,
AB,Lag5_T1A_T2P,5,A,P,7,12,6,4,16,hand,Did you see the hand?,0.12,0.016,JPG\,celery,tennisball01b,calculator01,pear01,screw02,orange,button01,cellphone,onion,apple07,iron01b,stapler05,banana01,paintbrush01,dandelion,toothbrush03b,blankImage,bull,,,,,,,,,,,,0,7,7,281,,,,,,,,,,,,,,,,,,,,,,,,,,,,,,,,,,,300.6785152000084,301.6794049000018,301.6628498000209,302.2200097000168,302.2200097000168,None,304.1778783000191,None,right,1.5605626000033226,304.1778783000191,None,305.7666669000173,None,right,1.083898799988674,305.7666669000173,None,,,,,,,,,,,,,,,,,PPT60,001,2022-07-17_12h44.39.138,ABstudy,2022.1.4,59.94362901818208,
AB,Lag1_T1P_T2P,1,P,P,8,9,7,3,12,bridge,Did you see the bridge?,0.12,0.016,JPG\,speaker04,sewingmachine01a,eraser,violin,globe,belt02a,sunglasses04,bridge,stapler01,greenolive,alligator,pear01,blankImage,blankImage,blankImage,blankImage,blankImage,bridge,,,,,,,,,,,,0,8,8,78,,,,,,,,,,,,,,,,,,,,,,,,,,,,,,,,,,,306.86771340001724,307.8690032000013,307.8522018000076,308.4156884000113,308.4156884000113,None,309.91521340000327,None,right,0.8231757000030484,309.91521340000327,None,310.7553484000091,None,left,0.4863826000073459,310.7553484000091,None,,,,,,,,,,,,,,,,,PPT60,001,2022-07-17_12h44.39.138,ABstudy,2022.1.4,59.94362901818208,
AB,Lag1_T1A_T2P,1,A,P,6,7,5,3,10,Jellyfish,Did you see the Jellyfish?,0.12,0.016,JPG\,thermometer02b,avocado01,scissors01,tennisball01b,medal02b,banana01,stapler01,cigarette,potato02b,pineapple01a,blankImage,blankImage,blankImage,blankImage,blankImage,blankImage,blankImage,firehydrant,,,,,,,,,,,,0,9,9,255,,,,,,,,,,,,,,,,,,,,,,,,,,,,,,,,,,,311.38779470001464,312.3899730000121,312.3734282000223,312.94855339999776,312.94855339999776,None,314.0479558999941,None,right,1.2264779999968596,314.0479558999941,None,315.2929931000108,None,left,0.3966859999927692,315.2929931000108,None,,,,,,,,,,,,,,,,,PPT60,001,2022-07-17_12h44.39.138,ABstudy,2022.1.4,59.94362901818208,
AB,Lag1_T1P_T2P,1,P,P,6,7,5,4,11,American football,Did you see the American football?,0.12,0.016,JPG\,toaster01,garlic01a,faucet,fan,comb02a,football,stapler06,watch02a,onion,blueberry01,toiletpaper01a,blankImage,blankImage,blankImage,blankImage,blankImage,blankImage,football,,,,,,,,,,,,0,10,10,12,,,,,,,,,,,,,,,,,,,,,,,,,,,,,,,,,,,315.71056659999886,316.7111305000144,316.69442670000717,317.25848560000304,317.25848560000304,None,318.6836869000108,None,right,1.1024078000045847,318.6836869000108,None,319.8141775999975,None,left,0.9642342999868561,319.8141775999975,None,,,,,,,,,,,,,,,,,PPT60,001,2022-07-17_12h44.39.138,ABstudy,2022.1.4,59.94362901818208,
AB,Lag5_T1P_T2A,5,P,A,5,10,4,3,13,martini glass,Did you see the martini glass?,0.12,0.016,JPG\,brick,eraser,cucumber,ashtray01,martiniglass01b,binoculars01b,lipstick02a,screwdriver04b,grape01,brownsugar,battery02b,iron01b,dice05a,blankImage,blankImage,blankImage,blankImage,martiniglass01b,,,,,,,,,,,,0,11,11,217,,,,,,,,,,,,,,,,,,,,,,,,,,,,,,,,,,,320.7985345000052,321.7994103000092,321.78287980001187,322.34663100002217,322.34663100002217,None,323.9735985000152,None,left,1.3407106999948155,323.9735985000152,None,325.33625170000596,None,right,0.4418608999985736,325.33625170000596,None,,,,,,,,,,,,,,,,,PPT60,001,2022-07-17_12h44.39.138,ABstudy,2022.1.4,59.94362901818208,
AB,Lag1_T1P_T2A,1,P,A,8,9,7,5,14,Sausage,Did you see the Sausage?,0.12,0.016,JPG\,pencil01,broccoli01a,button01,sponge01,watermelon01,lipstick02a,comb02a,sausage,lighter01,sock01a,spoon01,blueberry01,belt02a,onion,blankImage,blankImage,blankImage,sausage,,,,,,,,,,,,0,12,12,175,,,,,,,,,,,,,,,,,,,,,,,,,,,,,,,,,,,325.80521600000793,326.80452750000404,326.7877119000186,327.33859060000395,327.33859060000395,None,329.06236559999525,None,left,1.1478181999991648,329.06236559999525,None,330.24117809999734,None,left,0.36062350001884624,330.24117809999734,None,,,,,,,,,,,,,,,,,PPT60,001,2022-07-17_12h44.39.138,ABstudy,2022.1.4,59.94362901818208,
AB,Lag5_T1P_T2A,5,P,A,6,11,5,3,14,Balcony,Did you see the Balcony?,0.12,0.016,JPG\,tomato01,pen04b,shirt02,carrot01,lamp04a,balcony02,pizza,avocado01,sewingmachine01a,apple07,iron01b,book01b,chain01,sock01a,blankImage,blankImage,blankImage,balcony02,,,,,,,,,,,,0,13,13,207,,,,,,,,,,,,,,,,,,,,,,,,,,,,,,,,,,,330.6266367000062,331.62597039999673,331.6092764000059,332.17211060001864,332.17211060001864,None,333.89738150002086,None,right,1.4488340999814682,333.89738150002086,None,335.3629826999968,None,right,0.9113012000161689,335.3629826999968,None,,,,,,,,,,,,,,,,,PPT60,001,2022-07-17_12h44.39.138,ABstudy,2022.1.4,59.94362901818208,
AB,Lag5_T1P_T2P,5,P,P,5,10,4,4,14,License Plate,Did you see the License Plate?,0.12,0.016,JPG\,toaster01,chain01,sponge01,baseball01a,licenseplate,belt02a,book01b,iron01b,grape01,stapler06,celery,onion,mushroom01,toothbrush03b,blankImage,blankImage,blankImage,licenseplate,,,,,,,,,,,,0,14,14,120,,,,,,,,,,,,,,,,,,,,,,,,,,,,,,,,,,,336.3374441000051,337.34812979999697,337.33156620000955,337.89469390001614,337.89469390001614,None,339.5916311000183,None,left,0.7465427999850363,339.5916311000183,None,340.368146599998,None,left,0.29898400002275594,340.368146599998,None,,,,,,,,,,,,,,,,,PPT60,001,2022-07-17_12h44.39.138,ABstudy,2022.1.4,59.94362901818208,
AB,Lag5_T1P_T2A,5,P,A,6,11,5,3,14,toy truck,Did you see the toy truck?,0.12,0.016,JPG\,globe,belt02a,sponge01,violin,fork03c,bluecheese,clock01a,microscope,balloon01b,scarf,teabag,pen04b,brick,brownsugar,blankImage,blankImage,blankImage,bluecheese,,,,,,,,,,,,0,15,15,204,,,,,,,,,,,,,,,,,,,,,,,,,,,,,,,,,,,340.68503960000817,341.68600210000295,341.6690821000084,342.2370438000071,342.2370438000071,None,343.9412275000068,None,right,1.3087233999976888,343.9412275000068,None,345.2729464000149,None,right,0.6655017999873962,345.2729464000149,None,,,,,,,,,,,,,,,,,PPT60,001,2022-07-17_12h44.39.138,ABstudy,2022.1.4,59.94362901818208,
AB,Lag5_T1P_T2P,5,P,P,5,10,4,5,15,rake,Did you see the rake?,0.12,0.016,JPG\,scissors01,grape01,mushroom01,toiletpaper01a,leafrake,pizza,cigarette,ashtray01,carrot01,stapler03b,foosballtable,lipstick02a,teabag,acorn,potato02b,blankImage,blankImage,leafrake,,,,,,,,,,,,0,16,16,92,,,,,,,,,,,,,,,,,,,,,,,,,,,,,,,,,,,345.9567870000028,346.95786580001004,346.9411916999961,347.4931148000178,347.4931148000178,None,349.37689480002155,None,left,1.057596900005592,349.37689480002155,None,350.4614109999966,None,right,0.7006371000024956,350.4614109999966,None,,,,,,,,,,,,,,,,,PPT60,001,2022-07-17_12h44.39.138,ABstudy,2022.1.4,59.94362901818208,
AB,Lag5_T1P_T2P,5,P,P,8,13,7,3,16,church,Did you see the church?,0.12,0.016,JPG\,clock01a,cellphone,toaster01,toothbrush03b,cauliflower01,microscope,comb02a,church,scarf,clock04,sponge01,iron01b,stapler06,celery,ring01,ashtray01,blankImage,church,,,,,,,,,,,,0,17,17,129,,,,,,,,,,,,,,,,,,,,,,,,,,,,,,,,,,,351.17894510002225,352.17997950001154,352.1629236000008,352.72701390000293,352.72701390000293,None,354.71340639999835,None,left,1.6322495000204071,354.71340639999835,None,356.36737190000713,None,left,0.6271155000140425,356.36737190000713,None,,,,,,,,,,,,,,,,,PPT60,001,2022-07-17_12h44.39.138,ABstudy,2022.1.4,59.94362901818208,
AB,Lag5_T1P_T2P,5,P,P,5,10,4,5,15,funnel,Did you see the funnel?,0.12,0.016,JPG\,pineapple01a,tennisball01b,computerkeyboard02,feather03a,funnel,acorn,violin,blueberry01,medal02b,stapler01,greenolive,screwdriver04b,potato02b,fork03c,cymbal,blankImage,blankImage,funnel,,,,,,,,,,,,0,18,18,109,,,,,,,,,,,,,,,,,,,,,,,,,,,,,,,,,,,357.01818549999734,358.0187533000135,358.002177700022,358.56661750000785,358.56661750000785,None,360.35892620001687,None,right,0.9546190999972168,360.35892620001687,None,361.3388249000127,None,left,0.567195499985246,361.3388249000127,None,,,,,,,,,,,,,,,,,PPT60,001,2022-07-17_12h44.39.138,ABstudy,2022.1.4,59.94362901818208,
AB,Lag5_T1P_T2P,5,P,P,7,12,6,3,15,marble,Did you see the marble?,0.12,0.016,JPG\,cigarette,ashtray01,envelope03a,sandal,chain01,cucumber,marble,tomato01,dandelion,candle01,lemon02,stapler03b,potato02b,cymbal,clock01a,blankImage,blankImage,marble,,,,,,,,,,,,0,19,19,146,,,,,,,,,,,,,,,,,,,,,,,,,,,,,,,,,,,361.9231437999988,362.9237833000079,362.90713550001965,363.4646613000077,363.4646613000077,None,365.33304330002284,None,left,0.9329632000008132,365.33304330002284,None,366.29386900001555,None,right,0.6040322000044398,366.29386900001555,None,,,,,,,,,,,,,,,,,PPT60,001,2022-07-17_12h44.39.138,ABstudy,2022.1.4,59.94362901818208,
AB,Lag1_T1P_T2P,1,P,P,5,6,4,5,11,Light switch,Did you see the Light switch?,0.12,0.016,JPG\,iron01b,orange,birthdaycandle,potato02b,lightswitch01,stapler03b,key01,candle08b,celery,tableknife02,pen04b,blankImage,blankImage,blankImage,blankImage,blankImage,blankImage,lightswitch01,,,,,,,,,,,,0,20,20,18,,,,,,,,,,,,,,,,,,,,,,,,,,,,,,,,,,,366.92792420001933,367.92879550001817,367.91205360001186,368.4708552999946,368.4708552999946,None,369.85059600000386,None,left,0.6958475999999791,369.85059600000386,None,370.56451070000185,None,right,0.6532235000049695,370.56451070000185,None,,,,,,,,,,,,,,,,,PPT60,001,2022-07-17_12h44.39.138,ABstudy,2022.1.4,59.94362901818208,
AB,Lag5_T1P_T2P,5,P,P,8,13,7,5,18,Kiwi,Did you see the Kiwi?,0.12,0.016,JPG\,violin,pizza,toothbrush03b,pineapple01a,banana01,ashtray01,candy,kiwi03,clock04,sock01a,microscope,speaker04,stapler04b,sunglasses04,lipstick02a,blueberry01,blankImage,kiwi03,,,,,,,,,,,,0,21,21,111,,,,,,,,,,,,,,,,,,,,,,,,,,,,,,,,,,,371.25066190000507,372.26638970000204,372.2329670000181,372.79104780001217,372.79104780001217,None,374.7953533999971,None,left,0.5180693000147585,374.7953533999971,None,375.3362187000166,None,left,0.34528779998072423,375.3362187000166,None,,,,,,,,,,,,,,,,,PPT60,001,2022-07-17_12h44.39.138,ABstudy,2022.1.4,59.94362901818208,
AB,Lag1_T1P_T2P,1,P,P,8,9,7,4,13,kite,Did you see the kite?,0.12,0.016,JPG\,scissors01,balloon01b,eraser,feather03a,banana01,candle01,measuringcup01,kite,stapler04b,strawberry,pear01,carrot01,globe,blankImage,blankImage,blankImage,blankImage,kite,,,,,,,,,,,,0,22,22,17,,,,,,,,,,,,,,,,,,,,,,,,,,,,,,,,,,,375.7391562999983,376.7542426,376.73757330002263,377.29143440001644,377.29143440001644,None,378.8696552000183,None,left,0.6200856000068597,378.8696552000183,None,379.5069191000075,None,left,0.2634967000049073,379.5069191000075,None,,,,,,,,,,,,,,,,,PPT60,001,2022-07-17_12h44.39.138,ABstudy,2022.1.4,59.94362901818208,
AB,Lag5_T1P_T2P,5,P,P,7,12,6,5,17,elbow,Did you see the elbow?,0.12,0.016,JPG\,candle01,fork03c,plate01b,violin,computerkeyboard02,candy,elbow,paintbrush01,cherry01,sock01a,teabag,stapler01,cd,lighter01,book01b,tennisball01b,blankImage,elbow,,,,,,,,,,,,0,23,23,87,,,,,,,,,,,,,,,,,,,,,,,,,,,,,,,,,,,379.79055259999586,380.7913302000088,380.7748203999945,381.3269413000089,381.3269413000089,None,383.383299100009,None,left,0.530464600014966,383.383299100009,None,383.94480270001804,None,left,0.20937229998526163,383.94480270001804,None,,,,,,,,,,,,,,,,,PPT60,001,2022-07-17_12h44.39.138,ABstudy,2022.1.4,59.94362901818208,
AB,Lag1_T1P_T2P,1,P,P,6,7,5,3,10,handcuffs,Did you see the handcuffs?,0.12,0.016,JPG\,sewingmachine01a,scarf,carrot01,book01b,eraser,handcuffs,stapler05,lipstick02a,printer02,garlic01a,blankImage,blankImage,blankImage,blankImage,blankImage,blankImage,blankImage,handcuffs,,,,,,,,,,,,0,24,24,2,,,,,,,,,,,,,,,,,,,,,,,,,,,,,,,,,,,384.182558600005,385.1958476,385.16247199999634,385.73139850000734,385.73139850000734,None,386.99771399999736,None,left,0.6598580999998376,386.99771399999736,None,387.6816641000041,None,right,0.30409770002006553,387.6816641000041,None,,,,,,,,,,,,,,,,,PPT60,001,2022-07-17_12h44.39.138,ABstudy,2022.1.4,59.94362901818208,
AB,Lag5_T1P_T2P,5,P,P,7,12,6,5,17,flower,Did you see the flower?,0.12,0.016,JPG\,leaf02a,pear01,measuringcup01,cigarette,fan,lemon02,lily,tableknife02,ring01,pencil01,cellphone,stapler01,carrot01,binoculars01b,sock01a,book01b,blankImage,lily,,,,,,,,,,,,0,25,25,134,,,,,,,,,,,,,,,,,,,,,,,,,,,,,,,,,,,388.0157432999986,389.0163590000011,388.999850000022,389.55936509999447,389.55936509999447,None,391.5497243000136,None,left,0.5237038999912329,391.5497243000136,None,392.102790200006,None,left,0.3952559999888763,392.102790200006,None,,,,,,,,,,,,,,,,,PPT60,001,2022-07-17_12h44.39.138,ABstudy,2022.1.4,59.94362901818208,
AB,Lag5_T1P_T2P,5,P,P,5,10,4,3,13,bathtub,Did you see the bathtub?,0.12,0.016,JPG\,belt02a,sunglasses04,computerkeyboard02,cherry01,bathtub,eraser,watch02a,dice05a,blueberry01,stapler04b,match,leaf02a,iron01b,blankImage,blankImage,blankImage,blankImage,bathtub,,,,,,,,,,,,0,26,26,103,,,,,,,,,,,,,,,,,,,,,,,,,,,,,,,,,,,392.5200221000123,393.52074090001406,393.504161400022,394.0588946000207,394.0588946000207,None,395.6605647999968,None,left,0.4372803999867756,395.6605647999968,None,396.1233545000141,None,left,0.27017559998785146,396.1233545000141,None,,,,,,,,,,,,,,,,,PPT60,001,2022-07-17_12h44.39.138,ABstudy,2022.1.4,59.94362901818208,
AB,Lag1_T1A_T2P,1,A,P,6,7,5,3,10,curtain,Did you see the curtain?,0.12,0.016,JPG\,carrot01,greenolive,fork03c,chain01,ashtray01,watermelon01,stapler06,printer02,comb02a,toaster01,blankImage,blankImage,blankImage,blankImage,blankImage,blankImage,blankImage,birdhouse,,,,,,,,,,,,0,27,27,249,,,,,,,,,,,,,,,,,,,,,,,,,,,,,,,,,,,396.42372890000115,397.4247810000088,397.407953899994,397.96537170000374,397.96537170000374,None,399.2830188999942,None,right,0.7109673999948427,399.2830188999942,None,400.01069870000356,None,left,0.32729159999871626,400.01069870000356,None,,,,,,,,,,,,,,,,,PPT60,001,2022-07-17_12h44.39.138,ABstudy,2022.1.4,59.94362901818208,
AB,Lag5_T1P_T2P,5,P,P,6,11,5,4,15,boxing glove,Did you see the boxing glove?,0.12,0.016,JPG\,button01,celery,birthdaycandle,apple07,avocado01,boxingglove01,dice05a,teabag,clock01a,feather03a,stapler06,scarf,orange,battery02b,thermometer02b,blankImage,blankImage,boxingglove01,,,,,,,,,,,,0,28,28,165,,,,,,,,,,,,,,,,,,,,,,,,,,,,,,,,,,,400.36351660001674,401.37881009999546,401.34565540001495,401.9055954000214,401.9055954000214,None,403.7799038999947,None,left,0.5738916999835055,403.7799038999947,None,404.38173449999886,None,left,0.29971660001319833,404.38173449999886,None,,,,,,,,,,,,,,,,,PPT60,001,2022-07-17_12h44.39.138,ABstudy,2022.1.4,59.94362901818208,
AB,Lag1_T1P_T2A,1,P,A,7,8,6,4,12,Steering wheel,Did you see the Steering wheel?,0.12,0.016,JPG\,alligator,banana01,apple07,tomato01,button01,spoon01,steeringwheel,fork03c,canoftennisballs,potato02b,grape01,leaf02a,blankImage,blankImage,blankImage,blankImage,blankImage,steeringwheel,,,,,,,,,,,,0,29,29,198,,,,,,,,,,,,,,,,,,,,,,,,,,,,,,,,,,,404.72397250001086,405.7330001000082,405.71647050001775,406.216691300011,406.216691300011,None,407.72308660001727,None,left,1.0393035000015516,407.72308660001727,None,408.78615400000126,None,right,0.31953340000472963,408.78615400000126,None,,,,,,,,,,,,,,,,,PPT60,001,2022-07-17_12h44.39.138,ABstudy,2022.1.4,59.94362901818208,
AB,Lag5_T1A_T2P,5,A,P,7,12,6,4,16,ear,Did you see the ear?,0.12,0.016,JPG\,candle01,shirt02,brick,orange,greenolive,toothbrush03b,pizza,thermometer02b,book01b,toiletpaper01a,sewingmachine01a,stapler01,candy,cymbal,potato02b,plate01b,blankImage,chair,,,,,,,,,,,,0,30,30,257,,,,,,,,,,,,,,,,,,,,,,,,,,,,,,,,,,,409.13644620002015,410.13742240000283,410.1208730000071,410.6728110999975,410.6728110999975,None,412.67555790001643,None,right,1.0863782000087667,412.67555790001643,None,413.79108670001733,None,right,0.5630010000022594,413.79108670001733,None,,,,,,,,,,,,,,,,,PPT60,001,2022-07-17_12h44.39.138,ABstudy,2022.1.4,59.94362901818208,
AB,Lag1_T1P_T2P,1,P,P,8,9,7,3,12,mail box,Did you see the mail box?,0.12,0.016,JPG\,paintbrush01,dice05a,watermelon01,broccoli01a,hammer01,leaf02a,match,mailbox01,stapler05,fan,lipstick02a,grape01,blankImage,blankImage,blankImage,blankImage,blankImage,mailbox01,,,,,,,,,,,,0,31,31,20,,,,,,,,,,,,,,,,,,,,,,,,,,,,,,,,,,,414.37505270002293,415.37601330000325,415.3594229000155,415.9156628000201,415.9156628000201,None,417.46004550001817,None,left,1.0297101000032853,417.46004550001817,None,418.512561200012,None,right,0.38544119999278337,418.512561200012,None,,,,,,,,,,,,,,,,,PPT60,001,2022-07-17_12h44.39.138,ABstudy,2022.1.4,59.94362901818208,
AB,Lag1_T1P_T2P,1,P,P,5,6,4,3,9,elephant,Did you see the elephant?,0.12,0.016,JPG\,celery,brownsugar,key01,sunglasses04,arugula,stapler04b,dice05a,tennisball01b,scarf,blankImage,blankImage,blankImage,blankImage,blankImage,blankImage,blankImage,blankImage,arugula,,,,,,,,,,,,0,32,32,54,,,,,,,,,,,,,,,,,,,,,,,,,,,,,,,,,,,418.930331200012,419.9304777000216,419.91376170000876,420.4710350999958,420.4710350999958,None,421.6597812999971,None,right,1.0141164000087883,421.6597812999971,None,422.6997439000115,None,left,0.7018202999897767,422.6997439000115,None,,,,,,,,,,,,,,,,,PPT60,001,2022-07-17_12h44.39.138,ABstudy,2022.1.4,59.94362901818208,
AB,Lag5_T1P_T2P,5,P,P,7,12,6,3,15,Eye patch,Did you see the Eye patch?,0.12,0.016,JPG\,candle01,paintbrush01,scissors01,fan,microscope,toothbrush03b,eyepatch,watermelon01,teabag,pencil01,lemon02,stapler05,shirt02,cauliflower01,cd,blankImage,blankImage,eyepatch,,,,,,,,,,,,0,33,33,108,,,,,,,,,,,,,,,,,,,,,,,,,,,,,,,,,,,423.4353365999996,424.4349797000177,424.41844750000746,424.96869370000786,424.96869370000786,None,426.8075116999971,None,left,0.5542583999922499,426.8075116999971,None,427.3874388000113,None,left,0.5109622000018135,427.3874388000113,None,,,,,,,,,,,,,,,,,PPT60,001,2022-07-17_12h44.39.138,ABstudy,2022.1.4,59.94362901818208,
AB,Lag1_T1P_T2P,1,P,P,8,9,7,4,13,bowling ball,Did you see the bowling ball?,0.12,0.016,JPG\,dandelion,pineapple01a,broom01,pen04b,sock01a,sandal,foosballtable,bowlingball,stapler01,toothbrush03b,celery,candle08b,tennisball01b,blankImage,blankImage,blankImage,blankImage,bowlingball,,,,,,,,,,,,0,34,34,7,,,,,,,,,,,,,,,,,,,,,,,,,,,,,,,,,,,427.92181590001564,428.9227818000072,428.906104099995,429.4063982999942,429.4063982999942,None,431.0828594000195,None,left,0.542832900013309,431.0828594000195,None,431.64212319999933,None,left,0.2470663000131026,431.64212319999933,None,,,,,,,,,,,,,,,,,PPT60,001,2022-07-17_12h44.39.138,ABstudy,2022.1.4,59.94362901818208,
AB,Lag1_T1P_T2P,1,P,P,5,6,4,3,9,Pumpkin,Did you see the Pumpkin?,0.12,0.016,JPG\,binoculars01b,speaker04,sandal,envelope03a,pumpkin,stapler03b,battery02b,chain01,measuringcup01,blankImage,blankImage,blankImage,blankImage,blankImage,blankImage,blankImage,blankImage,pumpkin,,,,,,,,,,,,0,35,35,23,,,,,,,,,,,,,,,,,,,,,,,,,,,,,,,,,,,431.90948190001654,432.91011170001,432.8933869000175,433.457765500003,433.457765500003,None,434.6389849999978,None,left,0.9473508999799378,434.6389849999978,None,435.61263400001917,None,right,0.2447888999886345,435.61263400001917,None,,,,,,,,,,,,,,,,,PPT60,001,2022-07-17_12h44.39.138,ABstudy,2022.1.4,59.94362901818208,
AB,Lag1_T1P_T2P,1,P,P,8,9,7,5,14,Waterfall,Did you see the Waterfall?,0.12,0.016,JPG\,pizza,watch02a,greenolive,cucumber,match,violin,scissors01,waterfall,stapler03a,cherry01,ring01,cigarette,microscope,cellphone,blankImage,blankImage,blankImage,waterfall,,,,,,,,,,,,0,36,36,52,,,,,,,,,,,,,,,,,,,,,,,,,,,,,,,,,,,435.90629980000085,436.9141787000117,436.89749200001825,437.53458120001596,437.4496866000118,None,439.16776159999426,None,left,0.39397820000885986,439.16776159999426,None,439.5835961000121,None,left,0.18613779998850077,439.5835961000121,None,,,,,,,,,,,,,,,,,PPT60,001,2022-07-17_12h44.39.138,ABstudy,2022.1.4,59.94362901818208,
AB,Lag1_T1P_T2P,1,P,P,5,6,4,3,9,mail box,Did you see the mail box?,0.12,0.016,JPG\,watermelon01,banana01,ring01,pencil01,mailbox02,stapler04b,cucumber,thermometer02b,key01,blankImage,blankImage,blankImage,blankImage,blankImage,blankImage,blankImage,blankImage,mailbox02,,,,,,,,,,,,0,37,37,21,,,,,,,,,,,,,,,,,,,,,,,,,,,,,,,,,,,439.8005854000221,440.8013996000227,440.78453180001816,441.3503600000113,441.3503600000113,None,442.5584596999979,None,left,0.3874612000072375,442.5584596999979,None,442.9702118000132,None,left,0.14291920000687242,442.9702118000132,None,,,,,,,,,,,,,,,,,PPT60,001,2022-07-17_12h44.39.138,ABstudy,2022.1.4,59.94362901818208,
AB,Lag1_T1A_T2A,1,A,A,5,6,4,4,10,rose,Did you see the rose?,0.12,0.016,JPG\,sock01a,spoon01,alligator,comb02a,printer02,medal02b,lamp04a,cymbal,greenolive,computerkeyboard02,blankImage,blankImage,blankImage,blankImage,blankImage,blankImage,blankImage,cruiseship,,,,,,,,,,,,0,38,38,293,,,,,,,,,,,,,,,,,,,,,,,,,,,,,,,,,,,443.13704689999577,444.13795200001914,444.1212969000044,444.6870978999941,444.6870978999941,None,445.97152680001454,None,right,1.302548100007698,445.97152680001454,None,447.29104060001555,None,right,0.5025724000006448,447.29104060001555,None,,,,,,,,,,,,,,,,,PPT60,001,2022-07-17_12h44.39.138,ABstudy,2022.1.4,59.94362901818208,
AB,Lag1_T1P_T2A,1,P,A,7,8,6,3,11,walkie talkie,Did you see the walkie talkie?,0.12,0.016,JPG\,teabag,envelope03a,cellphone,apple07,cauliflower01,orange,walkietalkie,book01b,hammer01,feather03a,toaster01,blankImage,blankImage,blankImage,blankImage,blankImage,blankImage,walkietalkie,,,,,,,,,,,,0,39,39,197,,,,,,,,,,,,,,,,,,,,,,,,,,,,,,,,,,,447.8252637000114,448.82594330000575,448.80935399999726,449.3650613000209,449.3650613000209,None,450.79144679999445,None,right,1.8504338000202551,450.79144679999445,None,452.6630291000183,None,right,0.7465749999973923,452.6630291000183,None,,,,,,,,,,,,,,,,,PPT60,001,2022-07-17_12h44.39.138,ABstudy,2022.1.4,59.94362901818208,
AB,Lag5_T1P_T2P,5,P,P,6,11,5,5,16,sword,Did you see the sword?,0.12,0.016,JPG\,chain01,speaker04,avocado01,watermelon01,scarf,sword01,lamp04a,fork03c,toaster01,slipper03b,stapler03a,cucumber,teabag,ashtray01,computerkeyboard02,book01b,blankImage,sword01,,,,,,,,,,,,0,40,40,143,,,,,,,,,,,,,,,,,,,,,,,,,,,,,,,,,,,453.4685013999988,454.4816512000107,454.4655311999959,455.0232150000229,455.0232150000229,None,456.92102160002105,None,left,0.4081692000036128,456.92102160002105,None,457.3512062999944,None,left,0.17801009997492656,457.3512062999944,None,,,,,,,,,,,,,,,,,PPT60,001,2022-07-17_12h44.39.138,ABstudy,2022.1.4,59.94362901818208,
AB,Lag5_T1A_T2A,5,A,A,6,11,5,5,16,shrimp,Did you see the shrimp?,0.12,0.016,JPG\,speaker04,sewingmachine01a,eraser,violin,globe,belt02a,sunglasses04,cymbal,cd,greenolive,alligator,pear01,watch02a,screwdriver04b,banana01,cigarette,blankImage,rollerblade,,,,,,,,,,,,0,41,41,300,,,,,,,,,,,,,,,,,,,,,,,,,,,,,,,,,,,457.5540063000226,458.56906660000095,458.53584690002026,459.0991350999975,459.0991350999975,None,461.03880750000826,None,right,1.1232766999746673,461.03880750000826,None,462.18916060001357,None,left,0.29307990000233985,462.18916060001357,None,,,,,,,,,,,,,,,,,PPT60,001,2022-07-17_12h44.39.138,ABstudy,2022.1.4,59.94362901818208,
AB,Lag5_T1P_T2P,5,P,P,5,10,4,3,13,Jellyfish,Did you see the Jellyfish?,0.12,0.016,JPG\,printer02,envelope03a,potato02b,calculator01,jellyfish,cigarette,ashtray01,pig,broom01,stapler06,candle08b,battery02b,strawberry,blankImage,blankImage,blankImage,blankImage,jellyfish,,,,,,,,,,,,0,42,42,91,,,,,,,,,,,,,,,,,,,,,,,,,,,,,,,,,,,462.50632879999466,463.507480500004,463.49051880001207,464.0532686000224,464.0532686000224,None,465.6651484000031,None,left,0.3767898999794852,465.6651484000031,None,466.05975889999536,None,left,0.1661278000101447,466.05975889999536,None,,,,,,,,,,,,,,,,,PPT60,001,2022-07-17_12h44.39.138,ABstudy,2022.1.4,59.94362901818208,
AB,Lag1_T1A_T2P,1,A,P,6,7,5,5,12,Piano,Did you see the Piano?,0.12,0.016,JPG\,toiletpaper01a,mushroom01,medal02b,sandal,rice,cd,stapler01,pizza,candle08b,garlic01a,toaster01,belt02a,blankImage,blankImage,blankImage,blankImage,blankImage,moose,,,,,,,,,,,,0,43,43,239,,,,,,,,,,,,,,,,,,,,,,,,,,,,,,,,,,,466.2436544999946,467.24433770001633,467.2275867999997,467.79135650000535,467.79135650000535,None,469.27304540001205,None,left,2.0169485999795143,469.27304540001205,None,471.31516610001563,None,left,0.30269939999561757,471.31516610001563,None,,,,,,,,,,,,,,,,,PPT60,001,2022-07-17_12h44.39.138,ABstudy,2022.1.4,59.94362901818208,
AB,Lag1_T1P_T2P,1,P,P,7,8,6,4,12,skunk,Did you see the skunk?,0.12,0.016,JPG\,fan,tomato01,candy,screwdriver04b,alligator,cd,skunk,stapler03b,button01,plate01b,brownsugar,lighter01,blankImage,blankImage,blankImage,blankImage,blankImage,skunk,,,,,,,,,,,,0,44,44,48,,,,,,,,,,,,,,,,,,,,,,,,,,,,,,,,,,,471.6487783000048,472.6496182999981,472.63303640001686,473.1948639000184,473.1948639000184,None,474.7038142000092,None,left,0.41800240002339706,474.7038142000092,None,475.15218659999664,None,left,0.1374982999986969,475.15218659999664,None,,,,,,,,,,,,,,,,,PPT60,001,2022-07-17_12h44.39.138,ABstudy,2022.1.4,59.94362901818208,
AB,Lag1_T1P_T2P,1,P,P,8,9,7,5,14,bullet,Did you see the bullet?,0.12,0.016,JPG\,measuringcup01,dice05a,greenolive,lipstick02a,feather03a,balloon01b,lighter01,bullet,stapler04b,plate01b,microscope,brick,thermometer02b,screw02,blankImage,blankImage,blankImage,bullet,,,,,,,,,,,,0,45,45,57,,,,,,,,,,,,,,,,,,,,,,,,,,,,,,,,,,,475.31916310000815,476.3199691000045,476.3032743000076,476.8675601000141,476.8675601000141,None,478.6188957999984,None,left,0.4230299000046216,478.6188957999984,None,479.07285250001587,None,left,0.13680539999040775,479.07285250001587,None,,,,,,,,,,,,,,,,,PPT60,001,2022-07-17_12h44.39.138,ABstudy,2022.1.4,59.94362901818208,
AB,Lag1_T1P_T2A,1,P,A,6,7,5,4,11,bird,Did you see the bird?,0.12,0.016,JPG\,foosballtable,candy,envelope03a,microscope,pencil01,cedarwaxwing,scissors01,watermelon01,grape01,dandelion,pineapple01a,blankImage,blankImage,blankImage,blankImage,blankImage,blankImage,cedarwaxwing,,,,,,,,,,,,0,46,46,182,,,,,,,,,,,,,,,,,,,,,,,,,,,,,,,,,,,479.23965289999614,480.24062779999804,480.2242177000153,480.72453780000797,480.72453780000797,None,482.1634710000071,None,left,0.7338933999999426,482.1634710000071,None,482.9265652000031,None,right,0.17141360000823624,482.9265652000031,None,,,,,,,,,,,,,,,,,PPT60,001,2022-07-17_12h44.39.138,ABstudy,2022.1.4,59.94362901818208,
AB,Lag5_T1P_T2P,5,P,P,7,12,6,5,17,Pigeon,Did you see the Pigeon?,0.12,0.016,JPG\,strawberry,leaf02a,clock04,candle01,avocado01,paintbrush01,pigeon,brownsugar,ring01,lemon02,fork03c,stapler01,cauliflower01,tableknife02,tennisball01b,thermometer02b,blankImage,pigeon,,,,,,,,,,,,0,47,47,151,,,,,,,,,,,,,,,,,,,,,,,,,,,,,,,,,,,483.1270163000154,484.12807820001035,484.11097540002083,484.6723836000019,484.6723836000019,None,486.6456575000193,None,left,0.4194011999934446,486.6456575000193,None,487.09738630001084,None,left,0.11984369999845512,487.09738630001084,None,,,,,,,,,,,,,,,,,PPT60,001,2022-07-17_12h44.39.138,ABstudy,2022.1.4,59.94362901818208,
AB,Lag1_T1P_T2P,1,P,P,5,6,4,5,11,owl,Did you see the owl?,0.12,0.016,JPG\,cellphone,tomato01,comb02a,candy,barnowl,stapler03a,toaster01,fan,feather03a,pen04b,lemon02,blankImage,blankImage,blankImage,blankImage,blankImage,blankImage,barnowl,,,,,,,,,,,,0,48,48,33,,,,,,,,,,,,,,,,,,,,,,,,,,,,,,,,,,,487.2476402000175,488.24852019999526,488.23198320000665,488.78991429999587,488.78991429999587,None,490.18976320000365,None,left,0.6287939000176266,490.18976320000365,None,490.8363699000038,None,right,0.17381459998432547,490.8363699000038,None,,,,,,,,,,,,,,,,,PPT60,001,2022-07-17_12h44.39.138,ABstudy,2022.1.4,59.94362901818208,
AB,Lag5_T1P_T2A,5,P,A,8,13,7,3,16,leaf blower,Did you see the leaf blower?,0.12,0.016,JPG\,printer02,leaf02a,cauliflower01,sock01a,brownsugar,paintbrush01,pig,leafblower01,belt02a,shirt02,key01,match,cigarette,scissors01,envelope03a,blueberry01,blankImage,leafblower01,,,,,,,,,,,,0,49,49,216,,,,,,,,,,,,,,,,,,,,,,,,,,,,,,,,,,,491.0742632000183,492.08552130000317,492.0690077000181,492.63473550000344,492.63473550000344,None,494.55400410000584,None,left,1.4320079000026453,494.55400410000584,None,496.0063328999968,None,right,0.5790289000142366,496.0063328999968,None,,,,,,,,,,,,,,,,,PPT60,001,2022-07-17_12h44.39.138,ABstudy,2022.1.4,59.94362901818208,
AB,Lag5_T1A_T2P,5,A,P,7,12,6,4,16,church,Did you see the church?,0.12,0.016,JPG\,printer02,leaf02a,cauliflower01,sock01a,brownsugar,paintbrush01,pig,orange,belt02a,shirt02,key01,stapler06,cigarette,scissors01,envelope03a,blueberry01,blankImage,ant,,,,,,,,,,,,0,50,50,279,,,,,,,,,,,,,,,,,,,,,,,,,,,,,,,,,,,496.6070988000138,497.6080338000029,497.5910639000067,498.1539623000135,498.1539623000135,None,500.12867790000746,None,right,0.5366055000049528,500.12867790000746,None,500.6944285000209,None,left,0.28288890002295375,500.6944285000209,None,,,,,,,,,,,,,,,,,PPT60,001,2022-07-17_12h44.39.138,ABstudy,2022.1.4,59.94362901818208,
AB,Lag1_T1A_T2P,1,A,P,5,6,4,3,9,Crown,Did you see the Crown?,0.12,0.016,JPG\,leaf02a,pear01,measuringcup01,cigarette,fan,stapler04b,teabag,tableknife02,ring01,blankImage,blankImage,blankImage,blankImage,blankImage,blankImage,blankImage,blankImage,arrow02,,,,,,,,,,,,0,51,51,248,,,,,,,,,,,,,,,,,,,,,,,,,,,,,,,,,,,500.9962130000058,501.9954329000029,501.9789265000145,502.53393800000777,502.53393800000777,None,503.65508920000866,None,right,0.9144469999882858,503.65508920000866,None,504.5982549000182,None,left,0.3073957999877166,504.5982549000182,None,,,,,,,,,,,,,,,,,PPT60,001,2022-07-17_12h44.39.138,ABstudy,2022.1.4,59.94362901818208,
AB,Lag1_T1A_T2P,1,A,P,7,8,6,3,11,lion,Did you see the lion?,0.12,0.016,JPG\,sock01a,spoon01,alligator,comb02a,printer02,medal02b,lamp04a,stapler01,greenolive,computerkeyboard02,cauliflower01,blankImage,blankImage,blankImage,blankImage,blankImage,blankImage,bullet,,,,,,,,,,,,0,52,52,229,,,,,,,,,,,,,,,,,,,,,,,,,,,,,,,,,,,504.931922400021,505.9326885000046,505.91609980000067,506.4804243000108,506.4804243000108,None,507.8480416999955,None,right,2.8012624999973923,507.8480416999955,None,510.67090280001867,None,left,0.4428353999974206,510.67090280001867,None,,,,,,,,,,,,,,,,,PPT60,001,2022-07-17_12h44.39.138,ABstudy,2022.1.4,59.94362901818208,
AB,Lag5_T1P_T2P,5,P,P,5,10,4,4,14,duck,Did you see the duck?,0.12,0.016,JPG\,celery,pencil01,fan,foosballtable,duck01,shirt02,potato02b,fork03c,button01,stapler03a,baseball01a,printer02,cauliflower01,dandelion,blankImage,blankImage,blankImage,duck01,,,,,,,,,,,,0,53,53,130,,,,,,,,,,,,,,,,,,,,,,,,,,,,,,,,,,,511.1380074000044,512.1389898000052,512.1223808000213,512.6799714000081,512.6799714000081,None,514.3252743000048,None,left,0.44447309998213314,514.3252743000048,None,514.7917091000127,None,left,0.17006429997854866,514.7917091000127,None,,,,,,,,,,,,,,,,,PPT60,001,2022-07-17_12h44.39.138,ABstudy,2022.1.4,59.94362901818208,
AB,Lag1_T1P_T2P,1,P,P,7,8,6,4,12,trophy,Did you see the trophy?,0.12,0.016,JPG\,cherry01,cymbal,envelope03a,foosballtable,shirt02,cellphone,trophy01,stapler04b,battery02b,apple07,pencil01,screwdriver04b,blankImage,blankImage,blankImage,blankImage,blankImage,trophy01,,,,,,,,,,,,0,54,54,74,,,,,,,,,,,,,,,,,,,,,,,,,,,,,,,,,,,514.9919389999995,515.992943499994,515.9760462999984,516.5351347000105,516.5351347000105,None,517.9982568999985,None,left,0.8594236000208184,517.9982568999985,None,518.8788716999989,None,right,0.24373820002074353,518.8788716999989,None,,,,,,,,,,,,,,,,,PPT60,001,2022-07-17_12h44.39.138,ABstudy,2022.1.4,59.94362901818208,
AB,Lag5_T1P_T2A,5,P,A,8,13,7,4,17,Drum set,Did you see the Drum set?,0.12,0.016,JPG\,pencil01,microscope,banana01,computerkeyboard02,celery,cellphone,scissors01,drumset,book01b,onion,dice05a,binoculars01b,baseball01a,iron01b,screw02,fork03c,blankImage,drumset,,,,,,,,,,,,0,55,55,212,,,,,,,,,,,,,,,,,,,,,,,,,,,,,,,,,,,519.1460453000036,520.1469308999949,520.1303228000179,520.680528500001,520.680528500001,None,522.741715000011,None,left,0.6758509999781381,522.741715000011,None,523.4501894999994,None,right,0.24756250000791624,523.4501894999994,None,,,,,,,,,,,,,,,,,PPT60,001,2022-07-17_12h44.39.138,ABstudy,2022.1.4,59.94362901818208,
AB,Lag5_T1P_T2P,5,P,P,8,13,7,5,18,spice rack,Did you see the spice rack?,0.12,0.016,JPG\,lamp04a,broccoli01a,alligator,garlic01a,dandelion,brownsugar,avocado01,spicerack,leaf02a,cellphone,medal02b,cd,stapler05,sunglasses04,strawberry,eraser,blankImage,spicerack,,,,,,,,,,,,0,56,56,140,,,,,,,,,,,,,,,,,,,,,,,,,,,,,,,,,,,523.7177194000105,524.7179072000145,524.7014264000172,525.2546476999996,525.2546476999996,None,527.286010300013,None,right,1.5078834999876563,527.286010300013,None,528.8221772999968,None,left,0.21111689999816008,528.8221772999968,None,,,,,,,,,,,,,,,,,PPT60,001,2022-07-17_12h44.39.138,ABstudy,2022.1.4,59.94362901818208,
AB,Lag1_T1A_T2P,1,A,P,5,6,4,3,9,barrel,Did you see the barrel?,0.12,0.016,JPG\,clock01a,cellphone,toaster01,toothbrush03b,cauliflower01,stapler01,comb02a,paintbrush01,scarf,blankImage,blankImage,blankImage,blankImage,blankImage,blankImage,blankImage,blankImage,sheep,,,,,,,,,,,,0,57,57,243,,,,,,,,,,,,,,,,,,,,,,,,,,,,,,,,,,,529.0795791000128,530.0901284000138,530.0735607999959,530.6400986000081,530.6400986000081,None,531.7240849000227,None,right,1.125758499983931,531.7240849000227,None,532.8761972000066,None,right,0.5889640999957919,532.8761972000066,None,,,,,,,,,,,,,,,,,PPT60,001,2022-07-17_12h44.39.138,ABstudy,2022.1.4,59.94362901818208,
AB,Lag5_T1A_T2P,5,A,P,7,12,6,3,15,hockey puck,Did you see the hockey puck?,0.12,0.016,JPG\,toiletpaper01a,lipstick02a,potato02b,speaker04,globe,strawberry,carrot01,plate01b,sock01a,candle08b,pen04b,stapler04b,foosballtable,brick,pear01,blankImage,blankImage,frisbee,,,,,,,,,,,,0,58,58,260,,,,,,,,,,,,,,,,,,,,,,,,,,,,,,,,,,,533.4938439000107,534.4946769000089,534.4777239999967,535.043178699998,535.043178699998,None,536.9271076000005,None,right,0.7543747000163421,536.9271076000005,None,537.7146655000106,None,right,0.4946812999842223,537.7146655000106,None,,,,,,,,,,,,,,,,,PPT60,001,2022-07-17_12h44.39.138,ABstudy,2022.1.4,59.94362901818208,
AB,Lag1_T1A_T2P,1,A,P,6,7,5,5,12,Ostrich,Did you see the Ostrich?,0.12,0.016,JPG\,thermometer02b,candle08b,comb02a,toothbrush03b,brick,computerkeyboard02,stapler05,pineapple01a,candy,birthdaycandle,clock04,hairclip03,blankImage,blankImage,blankImage,blankImage,blankImage,discoball,,,,,,,,,,,,0,59,59,232,,,,,,,,,,,,,,,,,,,,,,,,,,,,,,,,,,,538.2759440000227,539.2825773000077,539.2661555999948,539.823822300008,539.823822300008,None,541.306427500007,None,right,1.3512913000013214,541.306427500007,None,542.6859217000019,None,right,0.22691440000198781,542.6859217000019,None,,,,,,,,,,,,,,,,,PPT60,001,2022-07-17_12h44.39.138,ABstudy,2022.1.4,59.94362901818208,
AB,Lag1_T1P_T2P,1,P,P,5,6,4,4,10,skateboard,Did you see the skateboard?,0.12,0.016,JPG\,binoculars01b,cymbal,pizza,candy,skateboard,stapler05,grape01,thermometer02b,speaker04,lemon02,blankImage,blankImage,blankImage,blankImage,blankImage,blankImage,blankImage,skateboard,,,,,,,,,,,,0,60,60,25,,,,,,,,,,,,,,,,,,,,,,,,,,,,,,,,,,,542.936417799996,543.9373627000023,543.9206471000216,544.4829363000172,544.4829363000172,None,545.8040223999997,None,left,1.3893064000003505,545.8040223999997,None,547.2242126000056,None,right,0.6492955999856349,547.2242126000056,None,,,,,,,,,,,,,,,,,PPT60,001,2022-07-17_12h44.39.138,ABstudy,2022.1.4,59.94362901818208,
AB,Lag5_T1P_T2P,5,P,P,7,12,6,5,17,tie,Did you see the tie?,0.12,0.016,JPG\,iron01b,orange,birthdaycandle,potato02b,cauliflower01,pencil01,tie02,candle08b,celery,tableknife02,pen04b,stapler06,ring01,rice,lemon02,tomato01,blankImage,tie02,,,,,,,,,,,,0,61,61,161,,,,,,,,,,,,,,,,,,,,,,,,,,,,,,,,,,,547.8913419000164,548.8922414999979,548.8756663000095,549.440010100021,549.440010100021,None,551.4818041000108,None,left,0.4150266000069678,551.4818041000108,None,551.9282923999999,None,left,0.20100679999450222,551.9282923999999,None,,,,,,,,,,,,,,,,,PPT60,001,2022-07-17_12h44.39.138,ABstudy,2022.1.4,59.94362901818208,
AB,Lag5_T1P_T2A,5,P,A,7,12,6,4,16,Bear,Did you see the Bear?,0.12,0.016,JPG\,comb02a,key01,medal02b,battery02b,lighter01,microscope,grizzly,sandal,pig,cellphone,computerkeyboard02,calculator01,cymbal,clock04,cucumber,avocado01,blankImage,grizzly,,,,,,,,,,,,0,62,62,213,,,,,,,,,,,,,,,,,,,,,,,,,,,,,,,,,,,552.1623664000072,553.1632731000136,553.1463649000216,553.7022481000167,553.7022481000167,None,555.6705447999993,None,left,0.8662805999920238,555.6705447999993,None,556.5666363000055,None,right,0.35514749999856576,556.5666363000055,None,,,,,,,,,,,,,,,,,PPT60,001,2022-07-17_12h44.39.138,ABstudy,2022.1.4,59.94362901818208,
AB,Lag5_T1P_T2P,5,P,P,7,12,6,4,16,Bird feeder,Did you see the Bird feeder?,0.12,0.016,JPG\,watermelon01,banana01,ring01,pencil01,tomato01,speaker04,birdfeeder,thermometer02b,key01,foosballtable,violin,stapler06,clock04,dice05a,pen04b,mushroom01,blankImage,birdfeeder,,,,,,,,,,,,0,63,63,164,,,,,,,,,,,,,,,,,,,,,,,,,,,,,,,,,,,556.9502040000225,557.9513821,557.934420000005,558.5021747999999,558.5021747999999,None,560.5421194000228,None,right,0.6428858999861404,560.5421194000228,None,561.2045986000157,None,left,0.2932726999861188,561.2045986000157,None,,,,,,,,,,,,,,,,,PPT60,001,2022-07-17_12h44.39.138,ABstudy,2022.1.4,59.94362901818208,
AB,Lag5_T1P_T2P,5,P,P,8,13,7,5,18,sock,Did you see the sock?,0.12,0.016,JPG\,thermometer02b,avocado01,scissors01,tennisball01b,medal02b,banana01,strawberry,athleticsock,potato02b,pineapple01a,microscope,cymbal,stapler03b,celery,garlic01a,sunglasses04,blankImage,athleticsock,,,,,,,,,,,,0,64,64,141,,,,,,,,,,,,,,,,,,,,,,,,,,,,,,,,,,,561.5214624000073,562.5224969999981,562.5059498000192,563.0644615000056,563.0644615000056,None,565.0003459000145,None,left,0.40869010001188144,565.0003459000145,None,565.4424341999984,None,left,0.19874479999998584,565.4424341999984,None,,,,,,,,,,,,,,,,,PPT60,001,2022-07-17_12h44.39.138,ABstudy,2022.1.4,59.94362901818208,
AB,Lag5_T1P_T2P,5,P,P,8,13,7,4,17,lamp,Did you see the lamp?,0.12,0.016,JPG\,globe,broccoli01a,binoculars01b,iron01b,avocado01,dandelion,pineapple01a,floorlamp,fan,pizza,celery,blueberry01,stapler01,dice05a,watermelon01,candy,blankImage,floorlamp,,,,,,,,,,,,0,65,65,99,,,,,,,,,,,,,,,,,,,,,,,,,,,,,,,,,,,565.6590778999962,566.6598601000151,566.6434361000138,567.2104572000098,567.2104572000098,None,569.1919049000135,None,left,0.7377677999902517,569.1919049000135,None,569.9464901000028,None,left,0.19096179999178275,569.9464901000028,None,,,,,,,,,,,,,,,,,PPT60,001,2022-07-17_12h44.39.138,ABstudy,2022.1.4,59.94362901818208,
AB,Lag1_T1P_T2P,1,P,P,6,7,5,3,10,cupcake,Did you see the cupcake?,0.12,0.016,JPG\,printer02,leaf02a,cauliflower01,sock01a,brownsugar,cupcake,stapler01,orange,belt02a,shirt02,blankImage,blankImage,blankImage,blankImage,blankImage,blankImage,blankImage,cupcake,,,,,,,,,,,,0,66,66,38,,,,,,,,,,,,,,,,,,,,,,,,,,,,,,,,,,,570.1636538000021,571.1645165000227,571.1478119000094,571.7099771000212,571.7099771000212,None,572.9504889000091,None,left,1.155216000013752,572.9504889000091,None,574.1339429000218,None,left,0.1388460000162013,574.1339429000218,None,,,,,,,,,,,,,,,,,PPT60,001,2022-07-17_12h44.39.138,ABstudy,2022.1.4,59.94362901818208,
AB,Lag1_T1P_T2P,1,P,P,8,9,7,4,13,peacock,Did you see the peacock?,0.12,0.016,JPG\,hammer01,sponge01,toaster01,cherry01,feather03a,mushroom01,measuringcup01,peacock,stapler03a,brick,clock04,medal02b,teabag,blankImage,blankImage,blankImage,blankImage,peacock,,,,,,,,,,,,0,67,67,68,,,,,,,,,,,,,,,,,,,,,,,,,,,,,,,,,,,574.3311977999983,575.3351261000207,575.3185600000143,575.8745668000192,575.8745668000192,None,577.4473065000202,None,left,0.8672517999948468,577.4473065000202,None,578.3383503000077,None,right,0.24808359998860396,578.3383503000077,None,,,,,,,,,,,,,,,,,PPT60,001,2022-07-17_12h44.39.138,ABstudy,2022.1.4,59.94362901818208,
AB,Lag5_T1P_T2P,5,P,P,5,10,4,5,15,Safe,Did you see the Safe?,0.12,0.016,JPG\,candle01,shirt02,brick,orange,safe,toothbrush03b,pizza,thermometer02b,book01b,stapler01,sewingmachine01a,toaster01,candy,cymbal,potato02b,blankImage,blankImage,safe,,,,,,,,,,,,0,68,68,159,,,,,,,,,,,,,,,,,,,,,,,,,,,,,,,,,,,578.6052179000108,579.6057704999985,579.5901435000123,580.14277950002,580.14277950002,None,582.0794038000167,None,left,0.3136802999943029,582.0794038000167,None,582.4254189000058,None,left,0.143651399994269,582.4254189000058,None,,,,,,,,,,,,,,,,,PPT60,001,2022-07-17_12h44.39.138,ABstudy,2022.1.4,59.94362901818208,
AB,Lag5_T1P_T2P,5,P,P,8,13,7,4,17,cruise ship,Did you see the cruise ship?,0.12,0.016,JPG\,measuringcup01,dice05a,greenolive,lipstick02a,feather03a,balloon01b,lighter01,cruiseship,carrot01,plate01b,microscope,brick,stapler05,screw02,speaker04,spoon01,blankImage,cruiseship,,,,,,,,,,,,0,69,69,105,,,,,,,,,,,,,,,,,,,,,,,,,,,,,,,,,,,582.5942684000183,583.5935641000106,583.5767159000097,584.1441067999986,584.1441067999986,None,586.1013544000161,None,left,0.3880244999891147,586.1013544000161,None,586.5130965000135,None,left,0.14466709998669103,586.5130965000135,None,,,,,,,,,,,,,,,,,PPT60,001,2022-07-17_12h44.39.138,ABstudy,2022.1.4,59.94362901818208,
AB,Lag1_T1P_T2P,1,P,P,7,8,6,3,11,locker,Did you see the locker?,0.12,0.016,JPG\,toiletpaper01a,lipstick02a,potato02b,speaker04,globe,strawberry,locker,stapler04b,sock01a,candle08b,pen04b,blankImage,blankImage,blankImage,blankImage,blankImage,blankImage,locker,,,,,,,,,,,,0,70,70,19,,,,,,,,,,,,,,,,,,,,,,,,,,,,,,,,,,,586.6841608000104,587.697674199997,587.6642161000054,588.2275082000124,588.2275082000124,None,589.6917689999973,None,right,1.0052590999985114,589.6917689999973,None,590.7171627000207,None,left,0.268087700009346,590.7171627000207,None,,,,,,,,,,,,,,,,,PPT60,001,2022-07-17_12h44.39.138,ABstudy,2022.1.4,59.94362901818208,
AB,Lag1_T1P_T2P,1,P,P,5,6,4,5,11,Guitar case,Did you see the Guitar case?,0.12,0.016,JPG\,broccoli01a,scissors01,toothbrush03b,foosballtable,guitarcase,stapler05,hammer01,toiletpaper01a,cd,garlic01a,carrot01,blankImage,blankImage,blankImage,blankImage,blankImage,blankImage,guitarcase,,,,,,,,,,,,0,71,71,14,,,,,,,,,,,,,,,,,,,,,,,,,,,,,,,,,,,591.0189015000069,592.0183331000153,592.002030100004,592.5605823000078,592.5605823000078,None,593.9714428000152,None,left,0.6373270000040065,593.9714428000152,None,594.6378399000096,None,right,0.2274938999908045,594.6378399000096,None,,,,,,,,,,,,,,,,,PPT60,001,2022-07-17_12h44.39.138,ABstudy,2022.1.4,59.94362901818208,
AB,Lag1_T1P_T2P,1,P,P,8,9,7,4,13,Bird House,Did you see the Bird House?,0.12,0.016,JPG\,toiletpaper01a,mushroom01,medal02b,sandal,rice,cd,feather03a,birdhouse,stapler01,garlic01a,toaster01,belt02a,cigarette,blankImage,blankImage,blankImage,blankImage,birdhouse,,,,,,,,,,,,0,72,72,77,,,,,,,,,,,,,,,,,,,,,,,,,,,,,,,,,,,594.8895713000093,595.8890344999963,595.8724781000055,596.4376577000075,596.4376577000075,None,598.0573145000089,None,left,0.3122129999974277,598.0573145000089,None,598.3916572000016,None,left,0.16933949998929165,598.3916572000016,None,,,,,,,,,,,,,,,,,PPT60,001,2022-07-17_12h44.39.138,ABstudy,2022.1.4,59.94362901818208,
AB,Lag1_T1P_T2A,1,P,A,7,8,6,3,11,fish,Did you see the fish?,0.12,0.016,JPG\,rice,watermelon01,tableknife02,scarf,computerkeyboard02,cauliflower01,salmon,binoculars01b,book01b,sandal,sponge01,blankImage,blankImage,blankImage,blankImage,blankImage,blankImage,salmon,,,,,,,,,,,,0,73,73,179,,,,,,,,,,,,,,,,,,,,,,,,,,,,,,,,,,,598.591942900006,599.5926408999949,599.5761297999998,600.1346518000064,600.1346518000064,None,601.551985099999,None,right,0.6416750000207685,601.551985099999,None,602.2120647999982,None,right,0.22103100002277642,602.2120647999982,None,,,,,,,,,,,,,,,,,PPT60,001,2022-07-17_12h44.39.138,ABstudy,2022.1.4,59.94362901818208,
AB,Lag5_T1P_T2P,5,P,P,5,10,4,5,15,ear,Did you see the ear?,0.12,0.016,JPG\,fork03c,plate01b,toiletpaper01a,greenolive,ear,blueberry01,onion,calculator01,envelope03a,stapler06,book01b,pencil01,sewingmachine01a,brick,watermelon01,blankImage,blankImage,ear,,,,,,,,,,,,0,74,74,107,,,,,,,,,,,,,,,,,,,,,,,,,,,,,,,,,,,602.4622196000128,603.4632444000163,603.4465084999974,603.9975490000215,603.9975490000215,None,605.8554818000121,None,left,0.37013070000102744,605.8554818000121,None,606.2493006000004,None,left,0.1597063000081107,606.2493006000004,None,,,,,,,,,,,,,,,,,PPT60,001,2022-07-17_12h44.39.138,ABstudy,2022.1.4,59.94362901818208,
AB,Lag1_T1P_T2A,1,P,A,7,8,6,3,11,Seagull,Did you see the Seagull?,0.12,0.016,JPG\,toiletpaper01a,mushroom01,medal02b,sandal,rice,cd,seagull,pizza,candle08b,garlic01a,toaster01,blankImage,blankImage,blankImage,blankImage,blankImage,blankImage,seagull,,,,,,,,,,,,0,75,75,176,,,,,,,,,,,,,,,,,,,,,,,,,,,,,,,,,,,606.4330729000212,607.4338297000213,607.417222500022,607.9807915000129,607.9807915000129,None,609.3487583000096,None,left,0.8129485000099521,609.3487583000096,None,610.1865533000091,None,right,1.6947431000007782,610.1865533000091,None,,,,,,,,,,,,,,,,,PPT60,001,2022-07-17_12h44.39.138,ABstudy,2022.1.4,59.94362901818208,
AB,Lag1_T1A_T2P,1,A,P,8,9,7,5,14,clock,Did you see the clock?,0.12,0.016,JPG\,speaker04,sewingmachine01a,eraser,violin,globe,belt02a,sunglasses04,cymbal,stapler01,greenolive,alligator,pear01,watch02a,screwdriver04b,blankImage,blankImage,blankImage,peacock,,,,,,,,,,,,0,76,76,240,,,,,,,,,,,,,,,,,,,,,,,,,,,,,,,,,,,611.905108100007,612.9058532000054,612.8892885000096,613.4552628000092,613.4552628000092,None,615.2012400999956,None,right,1.177249300002586,615.2012400999956,None,616.4095407999994,None,right,0.3276761000161059,616.4095407999994,None,,,,,,,,,,,,,,,,,PPT60,001,2022-07-17_12h44.39.138,ABstudy,2022.1.4,59.94362901818208,
AB,Lag5_T1P_T2A,5,P,A,5,10,4,3,13,Totem Pole,Did you see the Totem Pole?,0.12,0.016,JPG\,canoftennisballs,banana01,scissors01,pig,totempole,leaf02a,pear01,sponge01,fork03c,tableknife02,balloon01b,match,toothbrush03b,blankImage,blankImage,blankImage,blankImage,totempole,,,,,,,,,,,,0,77,77,202,,,,,,,,,,,,,,,,,,,,,,,,,,,,,,,,,,,616.7599078000057,617.7605721,617.7441781999951,618.3016089000157,618.3016089000157,None,619.8968116000178,None,right,0.6242742000031285,619.8968116000178,None,620.5469072000124,None,right,0.21410979999927804,620.5469072000124,None,,,,,,,,,,,,,,,,,PPT60,001,2022-07-17_12h44.39.138,ABstudy,2022.1.4,59.94362901818208,
AB,Lag5_T1A_T2P,5,A,P,5,10,4,4,14,mail box,Did you see the mail box?,0.12,0.016,JPG\,button01,celery,birthdaycandle,apple07,avocado01,tennisball01b,dice05a,teabag,clock01a,stapler05,tomato01,scarf,orange,battery02b,blankImage,blankImage,blankImage,jeep,,,,,,,,,,,,0,78,78,263,,,,,,,,,,,,,,,,,,,,,,,,,,,,,,,,,,,620.8127757000038,621.8149506000045,621.7980922000133,622.3626592000073,622.3626592000073,None,624.0878295000002,None,left,0.9297689000086393,624.0878295000002,None,625.0347046999959,None,right,0.4621069999993779,625.0347046999959,None,,,,,,,,,,,,,,,,,PPT60,001,2022-07-17_12h44.39.138,ABstudy,2022.1.4,59.94362901818208,
AB,Lag5_T1A_T2A,5,A,A,7,12,6,3,15,Christmas lights,Did you see the Christmas lights?,0.12,0.016,JPG\,toiletpaper01a,mushroom01,medal02b,sandal,rice,cd,feather03a,pizza,candle08b,garlic01a,toaster01,belt02a,cigarette,violin,lemon02,blankImage,blankImage,rockbass,,,,,,,,,,,,0,79,79,299,,,,,,,,,,,,,,,,,,,,,,,,,,,,,,,,,,,625.5188375000143,626.5193781999988,626.502948600013,627.0666569000168,627.0666569000168,None,628.964984899998,None,right,2.2125463999982458,628.964984899998,None,631.2075894000009,None,right,0.6495745000138413,631.2075894000009,None,,,,,,,,,,,,,,,,,PPT60,001,2022-07-17_12h44.39.138,ABstudy,2022.1.4,59.94362901818208,
AB,Lag5_T1P_T2P,5,P,P,7,12,6,4,16,flower,Did you see the flower?,0.12,0.016,JPG\,cucumber,sponge01,alligator,pear01,ashtray01,hammer01,hibiscusflower02,battery02b,fork03c,binoculars01b,mushroom01,stapler01,leaf02a,acorn,comb02a,screwdriver04b,blankImage,hibiscusflower02,,,,,,,,,,,,0,80,80,132,,,,,,,,,,,,,,,,,,,,,,,,,,,,,,,,,,,631.8751022000215,632.8757639999967,632.8592736000137,633.421230500011,633.421230500011,None,635.4211524999992,None,left,0.3637705000001006,635.4211524999992,None,635.8121070000052,None,left,0.1740572999988217,635.8121070000052,None,,,,,,,,,,,,,,,,,PPT60,001,2022-07-17_12h44.39.138,ABstudy,2022.1.4,59.94362901818208,
AB,Lag1_T1P_T2P,1,P,P,7,8,6,3,11,compass,Did you see the compass?,0.12,0.016,JPG\,brick,plate01b,pen04b,toaster01,screwdriver04b,candle01,magneticcompass,stapler03a,pig,ring01,orange,blankImage,blankImage,blankImage,blankImage,blankImage,blankImage,magneticcompass,,,,,,,,,,,,0,81,81,66,,,,,,,,,,,,,,,,,,,,,,,,,,,,,,,,,,,636.0163311000215,637.0300679000211,636.9967259000114,637.559485100006,637.559485100006,None,638.9727781999973,None,right,2.58837310000672,638.9727781999973,None,641.5843794000102,None,left,0.5604530999844428,641.5843794000102,None,,,,,,,,,,,,,,,,,PPT60,001,2022-07-17_12h44.39.138,ABstudy,2022.1.4,59.94362901818208,
AB,Lag1_T1P_T2P,1,P,P,8,9,7,3,12,Wheelchair,Did you see the Wheelchair?,0.12,0.016,JPG\,cigarette,pig,banana01,strawberry,clock01a,plate01b,spoon01,wheelchair,stapler03b,pineapple01a,chain01,paintbrush01,blankImage,blankImage,blankImage,blankImage,blankImage,wheelchair,,,,,,,,,,,,0,82,82,27,,,,,,,,,,,,,,,,,,,,,,,,,,,,,,,,,,,642.1685876999982,643.1695053000003,643.1526176000189,643.7054108000011,643.7054108000011,None,645.2449854000006,None,left,0.6532437999849208,645.2449854000006,None,645.9222552000138,None,right,0.2703324999893084,645.9222552000138,None,,,,,,,,,,,,,,,,,PPT60,001,2022-07-17_12h44.39.138,ABstudy,2022.1.4,59.94362901818208,
AB,Lag1_T1A_T2P,1,A,P,5,6,4,3,9,Spider,Did you see the Spider?,0.12,0.016,JPG\,pen04b,speaker04,lighter01,cherry01,8ball,stapler04b,sock01a,toothbrush03b,broom01,blankImage,blankImage,blankImage,blankImage,blankImage,blankImage,blankImage,blankImage,bridge,,,,,,,,,,,,0,83,83,250,,,,,,,,,,,,,,,,,,,,,,,,,,,,,,,,,,,646.2508325999952,647.2570502000162,647.2403461000067,647.7969397999987,647.7969397999987,None,648.9239322000067,None,right,0.6535779999976512,648.9239322000067,None,649.609121800022,None,left,0.2883700999955181,649.609121800022,None,,,,,,,,,,,,,,,,,PPT60,001,2022-07-17_12h44.39.138,ABstudy,2022.1.4,59.94362901818208,
AB,Lag1_T1P_T2A,1,P,A,7,8,6,4,12,bird,Did you see the bird?,0.12,0.016,JPG\,speaker04,sewingmachine01a,eraser,violin,globe,belt02a,tern,cymbal,cd,greenolive,alligator,pear01,blankImage,blankImage,blankImage,blankImage,blankImage,tern,,,,,,,,,,,,0,84,84,177,,,,,,,,,,,,,,,,,,,,,,,,,,,,,,,,,,,649.9260924000118,650.9272213999939,650.9103583999968,651.4769612000091,651.4769612000091,None,652.9677494000061,None,right,0.6012660999840591,652.9677494000061,None,653.59659250002,None,right,0.5640472999948543,653.59659250002,None,,,,,,,,,,,,,,,,,PPT60,001,2022-07-17_12h44.39.138,ABstudy,2022.1.4,59.94362901818208,
AB,Lag1_T1P_T2P,1,P,P,8,9,7,3,12,Sheep,Did you see the Sheep?,0.12,0.016,JPG\,celery,orange,scissors01,balloon01b,avocado01,printer02,mushroom01,sheep,stapler03b,dice05a,ashtray01,fan,blankImage,blankImage,blankImage,blankImage,blankImage,sheep,,,,,,,,,,,,0,85,85,71,,,,,,,,,,,,,,,,,,,,,,,,,,,,,,,,,,,654.2168527000176,655.2309272999992,655.2142916000157,655.7745239000069,655.7745239000069,None,657.2555589000112,None,left,0.40139600000111386,657.2555589000112,None,657.6839916000026,None,left,0.17311440000776201,657.6839916000026,None,,,,,,,,,,,,,,,,,PPT60,001,2022-07-17_12h44.39.138,ABstudy,2022.1.4,59.94362901818208,
AB,Lag1_T1P_T2P,1,P,P,7,8,6,3,11,swing,Did you see the swing?,0.12,0.016,JPG\,sewingmachine01a,thermometer02b,sponge01,eraser,broccoli01a,fork03c,swing,stapler03b,belt02a,medal02b,pineapple01a,blankImage,blankImage,blankImage,blankImage,blankImage,blankImage,swing,,,,,,,,,,,,0,86,86,30,,,,,,,,,,,,,,,,,,,,,,,,,,,,,,,,,,,657.8841344999964,658.8850282000203,658.8685044000158,659.4328286999953,659.4328286999953,None,660.8202206999995,None,left,0.3733937000215519,660.8202206999995,None,661.2229634000105,None,left,0.1374651999794878,661.2229634000105,None,,,,,,,,,,,,,,,,,PPT60,001,2022-07-17_12h44.39.138,ABstudy,2022.1.4,59.94362901818208,
AB,Lag5_T1P_T2A,5,P,A,7,12,6,5,17,flower,Did you see the flower?,0.12,0.016,JPG\,cellphone,tomato01,comb02a,candy,celery,cucumber,craneflower,fan,feather03a,pen04b,lemon02,blueberry01,plate01b,cherry01,baseball01a,candle08b,blankImage,craneflower,,,,,,,,,,,,0,87,87,211,,,,,,,,,,,,,,,,,,,,,,,,,,,,,,,,,,,661.3895969000005,662.4045096000191,662.3718062000116,662.9342234000214,662.9342234000214,None,664.9177731999953,None,left,0.9470475000271108,664.9177731999953,None,665.8920012000017,None,right,0.3165218000067398,665.8920012000017,None,,,,,,,,,,,,,,,,,PPT60,001,2022-07-17_12h44.39.138,ABstudy,2022.1.4,59.94362901818208,
AB,Lag1_T1P_T2A,1,P,A,6,7,5,5,12,Barn,Did you see the Barn?,0.12,0.016,JPG\,celery,pencil01,fan,foosballtable,iron01b,barn,potato02b,fork03c,button01,pineapple01a,baseball01a,printer02,blankImage,blankImage,blankImage,blankImage,blankImage,barn,,,,,,,,,,,,0,88,88,181,,,,,,,,,,,,,,,,,,,,,,,,,,,,,,,,,,,666.2256651000062,667.2267543000053,667.2099486000079,667.7719858000055,667.7719858000055,None,669.3467417000211,None,left,0.534734600019874,669.3467417000211,None,669.9127168999985,None,left,0.16849650000222027,669.9127168999985,None,,,,,,,,,,,,,,,,,PPT60,001,2022-07-17_12h44.39.138,ABstudy,2022.1.4,59.94362901818208,
AB,Lag1_T1P_T2P,1,P,P,8,9,7,5,14,giraffe,Did you see the giraffe?,0.12,0.016,JPG\,pencil01,foosballtable,banana01,lipstick02a,toaster01,grape01,key01,giraffe,stapler03b,pineapple01a,strawberry,teabag,dandelion,paintbrush01,blankImage,blankImage,blankImage,giraffe,,,,,,,,,,,,0,89,89,0,,,,,,,,,,,,,,,,,,,,,,,,,,,,,,,,,,,670.1132169000048,671.1139875000226,671.0973902000114,671.6474275000219,671.6474275000219,None,673.3943072000111,None,left,0.3101182000245899,673.3943072000111,None,673.7333766999946,None,left,0.1470850000041537,673.7333766999946,None,,,,,,,,,,,,,,,,,PPT60,001,2022-07-17_12h44.39.138,ABstudy,2022.1.4,59.94362901818208,
AB,Lag1_T1P_T2P,1,P,P,7,8,6,5,13,school bus,Did you see the school bus?,0.12,0.016,JPG\,aceofdiamond,banana01,scissors01,pig,shirt02,leaf02a,schoolbus,stapler05,fork03c,tableknife02,balloon01b,match,toothbrush03b,blankImage,blankImage,blankImage,blankImage,schoolbus,,,,,,,,,,,,0,90,90,24,,,,,,,,,,,,,,,,,,,,,,,,,,,,,,,,,,,673.9003846000123,674.9010605000076,674.8843864999944,675.449681099999,675.449681099999,None,677.0474817000213,None,left,0.3776873000024352,677.0474817000213,None,677.453056600003,None,left,0.14749460000894032,677.453056600003,None,,,,,,,,,,,,,,,,,PPT60,001,2022-07-17_12h44.39.138,ABstudy,2022.1.4,59.94362901818208,
AB,Lag1_T1P_T2P,1,P,P,5,6,4,5,11,football,Did you see the football?,0.12,0.016,JPG\,globe,belt02a,sponge01,violin,soccerball,stapler01,clock01a,microscope,balloon01b,scarf,teabag,blankImage,blankImage,blankImage,blankImage,blankImage,blankImage,soccerball,,,,,,,,,,,,0,91,91,26,,,,,,,,,,,,,,,,,,,,,,,,,,,,,,,,,,,677.6207021000155,678.6213398000109,678.6047531000222,679.1701155000192,679.1701155000192,None,680.5179902999953,None,left,0.6266464999935124,680.5179902999953,None,681.1740132000123,None,right,0.27490109999780543,681.1740132000123,None,,,,,,,,,,,,,,,,,PPT60,001,2022-07-17_12h44.39.138,ABstudy,2022.1.4,59.94362901818208,
AB,Lag1_T1P_T2P,1,P,P,5,6,4,5,11,squirrel,Did you see the squirrel?,0.12,0.016,JPG\,pencil01,orange,clock01a,sponge01,squirrel,stapler05,lipstick02a,strawberry,book01b,mushroom01,envelope03a,blankImage,blankImage,blankImage,blankImage,blankImage,blankImage,squirrel,,,,,,,,,,,,0,92,92,5,,,,,,,,,,,,,,,,,,,,,,,,,,,,,,,,,,,681.5135085000074,682.5247806000116,682.5080278000096,683.0639559999981,683.0639559999981,None,684.3876339000126,None,left,0.3249477999925148,684.3876339000126,None,684.744184900017,None,left,0.14495919999899343,684.744184900017,None,,,,,,,,,,,,,,,,,PPT60,001,2022-07-17_12h44.39.138,ABstudy,2022.1.4,59.94362901818208,
AB,Lag1_T1P_T2A,1,P,A,5,6,4,4,10,flower,Did you see the flower?,0.12,0.016,JPG\,broom01,globe,cellphone,tableknife02,daffodil,scissors01,ring01,alligator,rice,toaster01,blankImage,blankImage,blankImage,blankImage,blankImage,blankImage,blankImage,daffodil,,,,,,,,,,,,0,93,93,184,,,,,,,,,,,,,,,,,,,,,,,,,,,,,,,,,,,684.9113561999984,685.9120559000003,685.8954582000151,686.4518299000047,686.4518299000047,None,687.7406423000211,None,left,0.6522886000166181,687.7406423000211,None,688.4164952000137,None,left,0.15254660000209697,688.4164952000137,None,,,,,,,,,,,,,,,,,PPT60,001,2022-07-17_12h44.39.138,ABstudy,2022.1.4,59.94362901818208,
AB,Lag5_T1P_T2P,5,P,P,6,11,5,4,15,punching bag,Did you see the punching bag?,0.12,0.016,JPG\,foosballtable,cigarette,pen04b,birthdaycandle,hammer01,punchingbag,binoculars01b,chain01,potato02b,cauliflower01,stapler04b,ashtray01,scarf,cellphone,calculator01,blankImage,blankImage,punchingbag,,,,,,,,,,,,0,94,94,156,,,,,,,,,,,,,,,,,,,,,,,,,,,,,,,,,,,688.5985781000054,689.598894499999,689.5821575000009,690.0827080000017,690.0827080000017,None,692.0208007000037,None,left,0.3404288999736309,692.0208007000037,None,692.3852008999966,None,left,0.135714400006691,692.3852008999966,None,,,,,,,,,,,,,,,,,PPT60,001,2022-07-17_12h44.39.138,ABstudy,2022.1.4,59.94362901818208,
AB,Lag5_T1P_T2P,5,P,P,5,10,4,5,15,penguin,Did you see the penguin?,0.12,0.016,JPG\,watermelon01,cigarette,pintofbeer,cymbal,penguin,feather03a,cherry01,broom01,battery02b,stapler05,baseball01a,iron01b,garlic01a,computerkeyboard02,pig,blankImage,blankImage,penguin,,,,,,,,,,,,0,95,95,137,,,,,,,,,,,,,,,,,,,,,,,,,,,,,,,,,,,692.574194100016,693.5857728999981,693.5697838000196,694.1397975000145,694.1397975000145,None,695.8566183000221,None,left,0.35973210001247935,695.8566183000221,None,696.2391145000001,None,left,0.14566750000813045,696.2391145000001,None,,,,,,,,,,,,,,,,,PPT60,001,2022-07-17_12h44.39.138,ABstudy,2022.1.4,59.94362901818208,
AB,Lag1_T1P_T2P,1,P,P,8,9,7,4,13,Hula hoop,Did you see the Hula hoop?,0.12,0.016,JPG\,brownsugar,candle01,match,printer02,broom01,balloon01b,belt02a,hulahoop,stapler04b,feather03a,rice,mushroom01,pencil01,blankImage,blankImage,blankImage,blankImage,hulahoop,,,,,,,,,,,,0,96,96,64,,,,,,,,,,,,,,,,,,,,,,,,,,,,,,,,,,,696.406536399998,697.4065544000186,697.3907808000222,697.890566600021,697.890566600021,None,699.558420300018,None,left,0.36218959998223,699.558420300018,None,699.9426628000219,None,left,0.12995499998214655,699.9426628000219,None,,,,,,,,,,,,,,,,,PPT60,001,2022-07-17_12h44.39.138,ABstudy,2022.1.4,59.94362901818208,
AB,Lag5_T1P_T2A,5,P,A,5,10,4,3,13,cork,Did you see the cork?,0.12,0.016,JPG\,clock01a,grape01,plate01b,key01,cork02,feather03a,pineapple01a,iron01b,toothbrush03b,comb02a,broom01,toaster01,pizza,blankImage,blankImage,blankImage,blankImage,cork02,,,,,,,,,,,,0,97,97,209,,,,,,,,,,,,,,,,,,,,,,,,,,,,,,,,,,,700.0928093999973,701.0936981000123,701.077033300011,701.6439198000007,701.6439198000007,None,703.2672666000144,None,left,0.6144125999999233,703.2672666000144,None,703.9132327999978,None,right,0.18496179999783635,703.9132327999978,None,,,,,,,,,,,,,,,,,PPT60,001,2022-07-17_12h44.39.138,ABstudy,2022.1.4,59.94362901818208,
AB,Lag1_T1P_T2P,1,P,P,8,9,7,3,12,snow globe,Did you see the Snow globe?,0.12,0.016,JPG\,eraser,measuringcup01,chain01,birthdaycandle,ring01,rice,8ball,stapler04b,stapler01,celery,microscope,sunglasses04,blankImage,blankImage,blankImage,blankImage,blankImage,snowglobe,,,,,,,,,,,,0,98,98,56,,,,,,,,,,,,,,,,,,,,,,,,,,,,,,,,,,,704.1303664000006,705.1310754000151,705.114387700014,705.6713785000029,705.6713785000029,None,707.1848875000142,None,right,1.351357299980009,707.1848875000142,None,708.5678871000127,None,left,0.2969546999956947,708.5678871000127,None,,,,,,,,,,,,,,,,,PPT60,001,2022-07-17_12h44.39.138,ABstudy,2022.1.4,59.94362901818208,
AB,Lag1_T1P_T2P,1,P,P,7,8,6,4,12,rooster,Did you see the rooster?,0.12,0.016,JPG\,pizza,strawberry,potato02b,speaker04,battery02b,iron01b,rooster,stapler03b,globe,banana01,medal02b,baseball01a,blankImage,blankImage,blankImage,blankImage,blankImage,rooster,,,,,,,,,,,,0,99,99,69,,,,,,,,,,,,,,,,,,,,,,,,,,,,,,,,,,,708.8849659000116,709.8858435000002,709.8692325000011,710.436769699998,710.436769699998,None,711.8945227999939,None,left,0.39469950000056997,711.8945227999939,None,712.3215045999968,None,left,0.13555140001699328,712.3215045999968,None,,,,,,,,,,,,,,,,,PPT60,001,2022-07-17_12h44.39.138,ABstudy,2022.1.4,59.94362901818208,
AB,Lag1_T1P_T2A,1,P,A,8,9,7,5,14,Ceiling fan,Did you see the Ceiling fan?,0.12,0.016,JPG\,cucumber,sponge01,alligator,pear01,ashtray01,hammer01,clock04,ceilingfan01,fork03c,binoculars01b,mushroom01,broccoli01a,leaf02a,acorn,blankImage,blankImage,blankImage,ceilingfan01,,,,,,,,,,,,0,100,100,183,,,,,,,,,,,,,,,,,,,,,,,,,,,,,,,,,,,712.488752300007,713.4894106000138,713.4728496000171,714.0270697000087,714.0270697000087,None,715.6790834999993,None,left,0.5856394000002183,715.6790834999993,None,716.2923560000199,None,left,0.1487660999991931,716.2923560000199,None,,,,,,,,,,,,,,,,,PPT60,001,2022-07-17_12h44.39.138,ABstudy,2022.1.4,59.94362901818208,
AB,Lag5_T1P_T2P,5,P,P,8,13,7,3,16,banjo,Did you see the banjo?,0.12,0.016,JPG\,celery,brownsugar,key01,sunglasses04,leaf02a,toothbrush03b,dice05a,banjo,scarf,globe,paintbrush01,scissors01,stapler03a,battery02b,feather03a,cymbal,blankImage,banjo,,,,,,,,,,,,0,101,101,102,,,,,,,,,,,,,,,,,,,,,,,,,,,,,,,,,,,716.4610512000218,717.4767486000201,717.4432608000061,718.0005460999964,718.0005460999964,None,719.9313867000164,None,right,1.2694255000096746,719.9313867000164,None,721.230590000021,None,right,0.4984550999943167,721.230590000021,None,,,,,,,,,,,,,,,,,PPT60,001,2022-07-17_12h44.39.138,ABstudy,2022.1.4,59.94362901818208,
AB,Lag1_T1P_T2P,1,P,P,8,9,7,4,13,mattress,Did you see the mattress?,0.12,0.016,JPG\,button01,celery,birthdaycandle,apple07,avocado01,tennisball01b,dice05a,mattress,stapler01,feather03a,tomato01,scarf,orange,blankImage,blankImage,blankImage,blankImage,mattress,,,,,,,,,,,,0,102,102,22,,,,,,,,,,,,,,,,,,,,,,,,,,,,,,,,,,,721.7476708000177,722.7487409000169,722.7319222000078,723.296511499997,723.296511499997,None,724.9167540000053,None,left,0.348384500015527,724.9167540000053,None,725.284550100012,None,left,0.15631190000567585,725.284550100012,None,,,,,,,,,,,,,,,,,PPT60,001,2022-07-17_12h44.39.138,ABstudy,2022.1.4,59.94362901818208,
AB,Lag5_T1P_T2P,5,P,P,7,12,6,4,16,Wolf,Did you see the Wolf?,0.12,0.016,JPG\,brick,eraser,cucumber,ashtray01,thermometer02b,binoculars01b,greywolf,screwdriver04b,grape01,brownsugar,battery02b,stapler03b,dice05a,avocado01,birthdaycandle,watch02a,blankImage,greywolf,,,,,,,,,,,,0,103,103,89,,,,,,,,,,,,,,,,,,,,,,,,,,,,,,,,,,,725.4681136000145,726.4690936999978,726.4523935000179,727.014127900009,727.014127900009,None,728.9851129000017,None,left,0.8951138999836985,728.9851129000017,None,729.9058726000076,None,right,0.43087340000784025,729.9058726000076,None,,,,,,,,,,,,,,,,,PPT60,001,2022-07-17_12h44.39.138,ABstudy,2022.1.4,59.94362901818208,
AB,Lag1_T1A_T2P,1,A,P,8,9,7,5,14,calendar,Did you see the calendar?,0.12,0.016,JPG\,foosballtable,candy,envelope03a,microscope,pencil01,leaf02a,scissors01,watermelon01,stapler04b,dandelion,pineapple01a,hammer01,celery,thermometer02b,blankImage,blankImage,blankImage,trampoline,,,,,,,,,,,,0,104,104,245,,,,,,,,,,,,,,,,,,,,,,,,,,,,,,,,,,,730.3563492000103,731.3573999000073,731.3406401000102,731.8409868000017,731.8409868000017,None,733.6479324999964,None,right,0.5767139999952633,733.6479324999964,None,734.2435767000134,None,left,0.30974649998825043,734.2435767000134,None,,,,,,,,,,,,,,,,,PPT60,001,2022-07-17_12h44.39.138,ABstudy,2022.1.4,59.94362901818208,
AB,Lag1_T1P_T2P,1,P,P,6,7,5,5,12,owl,Did you see the owl?,0.12,0.016,JPG\,paintbrush01,eraser,medal02b,hammer01,speaker04,greathornowl,stapler01,comb02a,plate01b,clock01a,button01,globe,blankImage,blankImage,blankImage,blankImage,blankImage,greathornowl,,,,,,,,,,,,0,105,105,1,,,,,,,,,,,,,,,,,,,,,,,,,,,,,,,,,,,734.5772547000088,735.5778926000057,735.5615763000096,736.1140641999955,736.1140641999955,None,737.6363215000019,None,left,0.8377890000119805,737.6363215000019,None,738.4976175000193,None,right,0.5670721000060439,738.4976175000193,None,,,,,,,,,,,,,,,,,PPT60,001,2022-07-17_12h44.39.138,ABstudy,2022.1.4,59.94362901818208,
AB,Lag5_T1P_T2P,5,P,P,6,11,5,5,16,Car,Did you see the Car?,0.12,0.016,JPG\,leaf02a,apple07,cd,pineapple01a,envelope03a,car,pig,canoftennisballs,rice,feather03a,stapler03a,balloon01b,avocado01,calculator01,watermelon01,teabag,blankImage,car,,,,,,,,,,,,0,106,106,127,,,,,,,,,,,,,,,,,,,,,,,,,,,,,,,,,,,739.0816511000157,740.0828208000166,740.0657652000082,740.6212760000199,740.6212760000199,None,742.5958736000175,None,left,0.41286260000197217,742.5958736000175,None,743.0356786000193,None,left,0.14861829997971654,743.0356786000193,None,,,,,,,,,,,,,,,,,PPT60,001,2022-07-17_12h44.39.138,ABstudy,2022.1.4,59.94362901818208,
AB,Lag1_T1P_T2A,1,P,A,5,6,4,4,10,bird,Did you see the bird?,0.12,0.016,JPG\,toaster01,scarf,toiletpaper01a,calculator01,swallow,sewingmachine01a,fan,teabag,strawberry,balloon01b,blankImage,blankImage,blankImage,blankImage,blankImage,blankImage,blankImage,swallow,,,,,,,,,,,,0,107,107,195,,,,,,,,,,,,,,,,,,,,,,,,,,,,,,,,,,,743.2341816000117,744.2367984000011,744.220186200022,744.7915926999995,744.7915926999995,None,745.994412,None,left,0.870892199978698,745.994412,None,746.889393999998,None,right,0.31902549997903407,746.889393999998,None,,,,,,,,,,,,,,,,,PPT60,001,2022-07-17_12h44.39.138,ABstudy,2022.1.4,59.94362901818208,
AB,Lag1_T1P_T2P,1,P,P,6,7,5,5,12,snowman,Did you see the snowman?,0.12,0.016,JPG\,comb02a,watch02a,scissors01,dice05a,tableknife02,snowman,stapler03a,printer02,dandelion,spoon01,ashtray01,battery02b,blankImage,blankImage,blankImage,blankImage,blankImage,snowman,,,,,,,,,,,,0,108,108,4,,,,,,,,,,,,,,,,,,,,,,,,,,,,,,,,,,,747.2397179999971,748.2408489999943,748.2239926000184,748.7794865000178,748.7794865000178,None,750.2692208999943,None,left,0.6430335999757517,750.2692208999943,None,750.9434903000074,None,right,0.2727510000113398,750.9434903000074,None,,,,,,,,,,,,,,,,,PPT60,001,2022-07-17_12h44.39.138,ABstudy,2022.1.4,59.94362901818208,
AB,Lag5_T1P_T2A,5,P,A,7,12,6,3,15,helmet,Did you see the helmet?,0.12,0.016,JPG\,fork03c,belt02a,grape01,computerkeyboard02,lemon02,printer02,skihelmet01,toiletpaper01a,toaster01,lipstick02a,book01b,blueberry01,spoon01,apple07,avocado01,blankImage,blankImage,skihelmet01,,,,,,,,,,,,0,109,109,225,,,,,,,,,,,,,,,,,,,,,,,,,,,,,,,,,,,751.2822515000007,752.294664999994,752.2780507999996,752.8337916000164,752.8337916000164,None,754.6304625000048,None,right,0.7860845999966841,754.6304625000048,None,755.4478690999968,None,right,0.20028970000566915,755.4478690999968,None,,,,,,,,,,,,,,,,,PPT60,001,2022-07-17_12h44.39.138,ABstudy,2022.1.4,59.94362901818208,
AB,Lag1_T1P_T2A,1,P,A,6,7,5,5,12,foot,Did you see the foot?,0.12,0.016,JPG\,watermelon01,cigarette,weight04a,cymbal,cauliflower01,foot,cherry01,broom01,battery02b,key01,baseball01a,iron01b,blankImage,blankImage,blankImage,blankImage,blankImage,foot,,,,,,,,,,,,0,110,110,188,,,,,,,,,,,,,,,,,,,,,,,,,,,,,,,,,,,755.6649388000078,756.6656267000071,756.6491523000004,757.2156918999972,757.2156918999972,None,758.7857316000154,None,left,0.6071118999971077,758.7857316000154,None,759.4185525000212,None,right,0.26220549998106435,759.4185525000212,None,,,,,,,,,,,,,,,,,PPT60,001,2022-07-17_12h44.39.138,ABstudy,2022.1.4,59.94362901818208,
AB,Lag5_T1P_T2P,5,P,P,6,11,5,4,15,fish,Did you see the fish?,0.12,0.016,JPG\,sock01a,spoon01,alligator,comb02a,printer02,rockbass,lamp04a,cymbal,greenolive,computerkeyboard02,stapler03a,scarf,teabag,watermelon01,battery02b,blankImage,blankImage,rockbass,,,,,,,,,,,,0,111,111,115,,,,,,,,,,,,,,,,,,,,,,,,,,,,,,,,,,,759.702497100021,760.7031712000025,760.6865272000141,761.2516739999992,761.2516739999992,None,763.1152043000038,None,left,0.6775146999862045,763.1152043000038,None,763.8249904999975,None,right,0.4242044000129681,763.8249904999975,None,,,,,,,,,,,,,,,,,PPT60,001,2022-07-17_12h44.39.138,ABstudy,2022.1.4,59.94362901818208,
AB,Lag1_T1P_T2P,1,P,P,8,9,7,3,12,cactus,Did you see the cactus?,0.12,0.016,JPG\,tennisball01b,paintbrush01,medal02b,apple07,speaker04,iron01b,avocado01,cactus,stapler03b,toiletpaper01a,watermelon01,candle01,blankImage,blankImage,blankImage,blankImage,blankImage,cactus,,,,,,,,,,,,0,112,112,58,,,,,,,,,,,,,,,,,,,,,,,,,,,,,,,,,,,764.2733738000097,765.2743157999939,765.2576337000064,765.8271620000014,765.8271620000014,None,767.3203270999948,None,left,0.5605509000015445,767.3203270999948,None,767.9097981000086,None,left,0.1548012999992352,767.9097981000086,None,,,,,,,,,,,,,,,,,PPT60,001,2022-07-17_12h44.39.138,ABstudy,2022.1.4,59.94362901818208,
AB,Lag5_T1P_T2P,5,P,P,6,11,5,3,14,fish,Did you see the fish?,0.12,0.016,JPG\,broom01,globe,cellphone,tableknife02,cauliflower01,holdfast,ring01,alligator,rice,toaster01,stapler03b,grape01,microscope,cucumber,blankImage,blankImage,blankImage,holdfast,,,,,,,,,,,,0,113,113,133,,,,,,,,,,,,,,,,,,,,,,,,,,,,,,,,,,,768.0938108999981,769.0946502000152,769.0781543000194,769.6353901000111,769.6353901000111,None,771.4074432000052,None,left,0.7937966999888886,771.4074432000052,None,772.2312899999961,None,right,0.28087020001839846,772.2312899999961,None,,,,,,,,,,,,,,,,,PPT60,001,2022-07-17_12h44.39.138,ABstudy,2022.1.4,59.94362901818208,
AB,Lag5_T1P_T2P,5,P,P,5,10,4,5,15,Bee,Did you see the Bee?,0.12,0.016,JPG\,fork03c,dandelion,dice05a,belt02a,honeybee,watch02a,key01,globe,eraser,stapler03a,greenolive,shirt02,candle08b,cigarette,garlic01a,blankImage,blankImage,honeybee,,,,,,,,,,,,0,114,114,149,,,,,,,,,,,,,,,,,,,,,,,,,,,,,,,,,,,772.5315162000188,773.5326538000081,773.5159193,774.0659376000112,774.0659376000112,None,775.9150740000186,None,left,0.541927799989935,775.9150740000186,None,776.4854635000229,None,left,0.19532530001015402,776.4854635000229,None,,,,,,,,,,,,,,,,,PPT60,001,2022-07-17_12h44.39.138,ABstudy,2022.1.4,59.94362901818208,
AB,Lag1_T1P_T2P,1,P,P,7,8,6,5,13,dream catcher,Did you see the dream catcher?,0.12,0.016,JPG\,clock01a,cellphone,toaster01,toothbrush03b,cauliflower01,microscope,dreamcatcher,stapler05,scarf,clock04,sponge01,iron01b,watch02a,blankImage,blankImage,blankImage,blankImage,dreamcatcher,,,,,,,,,,,,0,115,115,81,,,,,,,,,,,,,,,,,,,,,,,,,,,,,,,,,,,776.7026935000031,777.7033987000177,777.6869708000158,778.2501316000125,778.2501316000125,None,779.8307041000226,None,left,0.5304619999951683,779.8307041000226,None,780.389328899997,None,right,0.2507350999803748,780.389328899997,None,,,,,,,,,,,,,,,,,PPT60,001,2022-07-17_12h44.39.138,ABstudy,2022.1.4,59.94362901818208,
AB,Lag5_T1P_T2A,5,P,A,5,10,4,4,14,Ship in a bottle,Did you see the Ship in a bottle?,0.12,0.016,JPG\,sewingmachine01a,thermometer02b,sponge01,eraser,shipinabottle,fork03c,pizza,violin,belt02a,medal02b,pineapple01a,tennisball01b,dandelion,cauliflower01,blankImage,blankImage,blankImage,shipinabottle,,,,,,,,,,,,0,116,116,208,,,,,,,,,,,,,,,,,,,,,,,,,,,,,,,,,,,780.6730797000055,781.6734825000167,781.6582128000155,782.2283731000207,782.2283731000207,None,783.9797319000063,None,left,0.4853124000073876,783.9797319000063,None,784.4934965000139,None,right,0.24358579999534413,784.4934965000139,None,,,,,,,,,,,,,,,,,PPT60,001,2022-07-17_12h44.39.138,ABstudy,2022.1.4,59.94362901818208,
AB,Lag5_T1A_T2P,5,A,P,8,13,7,4,17,wrench,Did you see the wrench?,0.12,0.016,JPG\,clock01a,grape01,plate01b,key01,screwdriver04b,feather03a,pineapple01a,iron01b,toothbrush03b,comb02a,broom01,toaster01,stapler05,garlic01a,match,ashtray01,blankImage,seal,,,,,,,,,,,,0,117,117,272,,,,,,,,,,,,,,,,,,,,,,,,,,,,,,,,,,,784.7608340000152,785.7615184000169,785.7448383000155,786.3107844000042,786.3107844000042,None,788.2482297999959,None,right,1.2884076999907847,788.2482297999959,None,789.5651308000088,None,left,0.5549419999879319,789.5651308000088,None,,,,,,,,,,,,,,,,,PPT60,001,2022-07-17_12h44.39.138,ABstudy,2022.1.4,59.94362901818208,
AB,Lag5_T1P_T2P,5,P,P,5,10,4,5,15,Eye,Did you see the Eye?,0.12,0.016,JPG\,apple07,toiletpaper01a,pizza,dandelion,eye,eraser,microscope,violin,orange,stapler01,balloon01b,sandal,lighter01,fan,book01b,blankImage,blankImage,eye,,,,,,,,,,,,0,118,118,171,,,,,,,,,,,,,,,,,,,,,,,,,,,,,,,,,,,790.1490709000209,791.1500932000054,791.13350180001,791.6972036000225,791.6972036000225,None,793.5371651000169,None,left,0.5827560999896377,793.5371651000169,None,794.153129000013,None,left,0.4388244999863673,794.153129000013,None,,,,,,,,,,,,,,,,,PPT60,001,2022-07-17_12h44.39.138,ABstudy,2022.1.4,59.94362901818208,
AB,Lag5_T1P_T2P,5,P,P,8,13,7,5,18,popcorn,Did you see the popcorn?,0.12,0.016,JPG\,toaster01,garlic01a,hairclip03,fan,comb02a,apple07,orange,popcorn,onion,blueberry01,toiletpaper01a,fork03c,stapler06,pineapple01a,scarf,eraser,blankImage,popcorn,,,,,,,,,,,,0,119,119,155,,,,,,,,,,,,,,,,,,,,,,,,,,,,,,,,,,,794.620725500019,795.6211981000088,795.6051894999982,796.1679132000136,796.1679132000136,None,798.1861927999998,None,left,0.3746697999886237,798.1861927999998,None,798.5908402000205,None,left,0.1539098999928683,798.5908402000205,None,,,,,,,,,,,,,,,,,PPT60,001,2022-07-17_12h44.39.138,ABstudy,2022.1.4,59.94362901818208,
AB,Lag1_T1P_T2P,1,P,P,6,7,5,4,11,bowling pin,Did you see the bowling pin?,0.12,0.016,JPG\,strawberry,leaf02a,clock04,candle01,avocado01,bowlingpin,stapler03a,brownsugar,ring01,lemon02,fork03c,blankImage,blankImage,blankImage,blankImage,blankImage,blankImage,bowlingpin,,,,,,,,,,,,0,120,120,8,,,,,,,,,,,,,,,,,,,,,,,,,,,,,,,,,,,798.774940000003,799.7753512000199,799.7588108000054,800.3260996000026,800.3260996000026,None,801.662181599997,None,left,0.6582361999899149,801.662181599997,None,802.3447211000021,None,right,0.19285819999640808,802.3447211000021,None,,,,,,,,,,,,,,,,,PPT60,001,2022-07-17_12h44.39.138,ABstudy,2022.1.4,59.94362901818208,
AB,Lag1_T1P_T2P,1,P,P,6,7,5,3,10,spider web,Did you see the spider web?,0.12,0.016,JPG\,toaster01,chain01,sponge01,baseball01a,carrot01,spiderweb,stapler03b,iron01b,grape01,brick,blankImage,blankImage,blankImage,blankImage,blankImage,blankImage,blankImage,spiderweb,,,,,,,,,,,,0,121,121,72,,,,,,,,,,,,,,,,,,,,,,,,,,,,,,,,,,,802.5615996000124,803.562605300016,803.545723999996,804.1093487000035,804.1093487000035,None,805.3910617000074,None,right,0.7616564000200015,805.3910617000074,None,806.1812109000166,None,left,0.28467590000946075,806.1812109000166,None,,,,,,,,,,,,,,,,,PPT60,001,2022-07-17_12h44.39.138,ABstudy,2022.1.4,59.94362901818208,
AB,Lag1_T1A_T2P,1,A,P,8,9,7,4,13,nose,Did you see the nose?,0.12,0.016,JPG\,pizza,strawberry,potato02b,speaker04,battery02b,iron01b,dice05a,cellphone,stapler06,banana01,medal02b,baseball01a,toaster01,blankImage,blankImage,blankImage,blankImage,cow,,,,,,,,,,,,0,122,122,231,,,,,,,,,,,,,,,,,,,,,,,,,,,,,,,,,,,806.4988602999947,807.4998004000227,807.4830547000165,808.0558190000011,808.0558190000011,None,809.6762840000156,None,right,0.7401775000034831,809.6762840000156,None,810.4360762000142,None,right,0.7567637999891303,810.4360762000142,None,,,,,,,,,,,,,,,,,PPT60,001,2022-07-17_12h44.39.138,ABstudy,2022.1.4,59.94362901818208,
AB,Lag1_T1P_T2A,1,P,A,5,6,4,5,11,Toaster oven,Did you see the Toaster oven?,0.12,0.016,JPG\,fork03c,toothbrush03b,cellphone,fan,toasteroven,clock01a,ring01,eraser,sunglasses04,thermometer02b,violin,blankImage,blankImage,blankImage,blankImage,blankImage,blankImage,toasteroven,,,,,,,,,,,,0,123,123,200,,,,,,,,,,,,,,,,,,,,,,,,,,,,,,,,,,,811.22026620002,812.2211265000224,812.204343200021,812.7565201999969,812.7565201999969,None,814.1849529000174,None,left,0.5753870999906212,814.1849529000174,None,814.7903492000187,None,right,0.3222310999990441,814.7903492000187,None,,,,,,,,,,,,,,,,,PPT60,001,2022-07-17_12h44.39.138,ABstudy,2022.1.4,59.94362901818208,
AB,Lag1_T1P_T2P,1,P,P,8,9,7,3,12,zebra,Did you see the zebra?,0.12,0.016,JPG\,apple07,toiletpaper01a,pizza,dandelion,greenolive,eraser,microscope,zebra,stapler03b,lipstick02a,balloon01b,sandal,blankImage,blankImage,blankImage,blankImage,blankImage,zebra,,,,,,,,,,,,0,124,124,28,,,,,,,,,,,,,,,,,,,,,,,,,,,,,,,,,,,815.1854088999971,816.193645899999,816.1767147000064,816.8187673000211,816.7393487000081,None,818.2285282000084,None,left,0.5400184000027366,818.2285282000084,None,818.794421300001,None,left,0.174122600001283,818.794421300001,None,,,,,,,,,,,,,,,,,PPT60,001,2022-07-17_12h44.39.138,ABstudy,2022.1.4,59.94362901818208,
AB,Lag5_T1P_T2P,5,P,P,6,11,5,5,16,Parking meter,Did you see the Parking meter?,0.12,0.016,JPG\,dice05a,watch02a,pig,lighter01,button01,parkingmeter,paintbrush01,microscope,plate01b,pen04b,stapler03b,weight04a,carrot01,shirt02,globe,garlic01a,blankImage,parkingmeter,,,,,,,,,,,,0,125,125,172,,,,,,,,,,,,,,,,,,,,,,,,,,,,,,,,,,,818.994923100021,819.9955544999975,819.9785415000224,820.538947699999,820.538947699999,None,822.5314173999941,None,right,1.7647876999981236,822.5314173999941,None,824.3163800000038,None,right,0.2041105999960564,824.3163800000038,None,,,,,,,,,,,,,,,,,PPT60,001,2022-07-17_12h44.39.138,ABstudy,2022.1.4,59.94362901818208,
AB,Lag1_T1P_T2A,1,P,A,7,8,6,3,11,Armadillo,Did you see the Armadillo?,0.12,0.016,JPG\,clock01a,cellphone,toaster01,toothbrush03b,cauliflower01,microscope,armadillo,paintbrush01,scarf,clock04,sponge01,blankImage,blankImage,blankImage,blankImage,blankImage,blankImage,armadillo,,,,,,,,,,,,0,126,126,180,,,,,,,,,,,,,,,,,,,,,,,,,,,,,,,,,,,824.5503911999986,825.551000300009,825.5344004000071,826.0956646999985,826.0956646999985,None,827.4645606999984,None,left,0.760209300002316,827.4645606999984,None,828.2531776000105,None,right,0.23535080000874586,828.2531776000105,None,,,,,,,,,,,,,,,,,PPT60,001,2022-07-17_12h44.39.138,ABstudy,2022.1.4,59.94362901818208,
AB,Lag5_T1P_T2P,5,P,P,5,10,4,5,15,sword fish,Did you see the sword fish?,0.12,0.016,JPG\,scissors01,balloon01b,eraser,feather03a,swordfish,candle01,measuringcup01,calculator01,thermometer02b,stapler04b,pear01,carrot01,globe,baseball01a,leaf02a,blankImage,blankImage,swordfish,,,,,,,,,,,,0,127,127,160,,,,,,,,,,,,,,,,,,,,,,,,,,,,,,,,,,,828.5209988999995,829.5218096000026,829.5048126000038,830.0593082999985,830.0593082999985,None,831.9393359000096,None,left,0.365408399986336,831.9393359000096,None,832.3262769000139,None,left,0.15418990000034682,832.3262769000139,None,,,,,,,,,,,,,,,,,PPT60,001,2022-07-17_12h44.39.138,ABstudy,2022.1.4,59.94362901818208,
AB,Lag5_T1P_T2A,5,P,A,8,13,7,5,18,Nunchuks,Did you see the Nunchuks?,0.12,0.016,JPG\,celery,tennisball01b,calculator01,pear01,screw02,orange,button01,nunchuk,onion,apple07,iron01b,brownsugar,banana01,paintbrush01,dandelion,toothbrush03b,blankImage,nunchuk,,,,,,,,,,,,0,128,128,218,,,,,,,,,,,,,,,,,,,,,,,,,,,,,,,,,,,832.5208391000051,833.5256586000032,833.4921555000183,834.0503299999982,834.0503299999982,None,836.0590974999941,None,left,0.5017204000032507,836.0590974999941,None,836.5788090999995,None,right,0.2699229000136256,836.5788090999995,None,,,,,,,,,,,,,,,,,PPT60,001,2022-07-17_12h44.39.138,ABstudy,2022.1.4,59.94362901818208,
AB,Lag5_T1P_T2A,5,P,A,7,12,6,3,15,Toy soldier,Did you see the Toy soldier?,0.12,0.016,JPG\,binoculars01b,cymbal,pizza,candy,paintbrush01,sponge01,toysoldier01b,thermometer02b,speaker04,lemon02,lipstick02a,strawberry,candle01,acorn,plate01b,blankImage,blankImage,toysoldier01b,,,,,,,,,,,,0,129,129,203,,,,,,,,,,,,,,,,,,,,,,,,,,,,,,,,,,,836.8790307000163,837.8800846000086,837.8632648000203,838.4280031000089,838.4280031000089,None,840.2839425000129,None,left,0.5885050999931991,840.2839425000129,None,840.8995734000055,None,right,0.23739319999003783,840.8995734000055,None,,,,,,,,,,,,,,,,,PPT60,001,2022-07-17_12h44.39.138,ABstudy,2022.1.4,59.94362901818208,
AB,Lag1_T1P_T2P,1,P,P,5,6,4,3,9,kangaroo,Did you see the kangaroo?,0.12,0.016,JPG\,candle01,shirt02,brick,orange,kangaroo,stapler03a,pizza,thermometer02b,book01b,blankImage,blankImage,blankImage,blankImage,blankImage,blankImage,blankImage,blankImage,kangaroo,,,,,,,,,,,,0,130,130,16,,,,,,,,,,,,,,,,,,,,,,,,,,,,,,,,,,,841.1666184000205,842.167598,842.150890400022,842.7036424000107,842.7036424000107,None,843.9236650000094,None,left,0.43679080001311377,843.9236650000094,None,844.3883134000062,None,left,0.1315656999940984,844.3883134000062,None,,,,,,,,,,,,,,,,,PPT60,001,2022-07-17_12h44.39.138,ABstudy,2022.1.4,59.94362901818208,
AB,Lag1_T1P_T2P,1,P,P,5,6,4,5,11,candy cane,Did you see the candy cane?,0.12,0.016,JPG\,shirt02,match,screw02,foosballtable,candycane01a,stapler04b,sewingmachine01a,watch02a,button01,comb02a,dice05a,blankImage,blankImage,blankImage,blankImage,blankImage,blankImage,candycane01a,,,,,,,,,,,,0,131,131,9,,,,,,,,,,,,,,,,,,,,,,,,,,,,,,,,,,,844.5367068000196,845.5377348000184,845.5208646999963,846.0874808000226,846.0874808000226,None,847.4813919000153,None,left,0.758685200009495,847.4813919000153,None,848.2569495000062,None,right,0.1684123000013642,848.2569495000062,None,,,,,,,,,,,,,,,,,PPT60,001,2022-07-17_12h44.39.138,ABstudy,2022.1.4,59.94362901818208,
AB,Lag1_T1P_T2P,1,P,P,7,8,6,3,11,harmonica,Did you see the harmonica?,0.12,0.016,JPG\,cucumber,ring01,lipstick02a,microscope,violin,garlic01a,harmonica,stapler03b,cherry01,sewingmachine01a,belt02a,blankImage,blankImage,blankImage,blankImage,blankImage,blankImage,harmonica,,,,,,,,,,,,0,132,132,43,,,,,,,,,,,,,,,,,,,,,,,,,,,,,,,,,,,848.457315800013,849.4582647000207,849.4415107000095,850.0032198000117,850.0032198000117,None,851.4762489999994,None,right,0.6757073999906424,851.4762489999994,None,852.1774254000047,None,left,0.25531219999538735,852.1774254000047,None,,,,,,,,,,,,,,,,,PPT60,001,2022-07-17_12h44.39.138,ABstudy,2022.1.4,59.94362901818208,
AB,Lag5_T1P_T2P,5,P,P,5,10,4,4,14,Christmas lights,Did you see the Christmas lights?,0.12,0.016,JPG\,binoculars01b,cymbal,pizza,candy,christmaslights,sponge01,grape01,thermometer02b,speaker04,stapler03a,lipstick02a,strawberry,candle01,tambourine02,blankImage,blankImage,blankImage,christmaslights,,,,,,,,,,,,0,133,133,168,,,,,,,,,,,,,,,,,,,,,,,,,,,,,,,,,,,852.4613887000014,853.4621861000196,853.4453180000128,854.0127097000077,854.0127097000077,None,855.7215938000008,None,left,0.5670103000011295,855.7215938000008,None,856.3150234000059,None,right,0.23749299999326468,856.3150234000059,None,,,,,,,,,,,,,,,,,PPT60,001,2022-07-17_12h44.39.138,ABstudy,2022.1.4,59.94362901818208,
AB,Lag5_T1P_T2P,5,P,P,7,12,6,4,16,Recycling bin,Did you see the Recycling bin?,0.12,0.016,JPG\,broccoli01a,scissors01,toothbrush03b,foosballtable,iron01b,brick,recyclingbin,toiletpaper01a,cd,garlic01a,carrot01,stapler03a,envelope03a,battery02b,balloon01b,broom01,blankImage,recyclingbin,,,,,,,,,,,,0,134,134,157,,,,,,,,,,,,,,,,,,,,,,,,,,,,,,,,,,,856.5846632000175,857.5995626000222,857.5662130000128,858.1265903000021,858.1265903000021,None,860.0674749000173,None,left,0.35729029998765327,860.0674749000173,None,860.4542375000019,None,left,0.16257089999271557,860.4542375000019,None,,,,,,,,,,,,,,,,,PPT60,001,2022-07-17_12h44.39.138,ABstudy,2022.1.4,59.94362901818208,
AB,Lag5_T1P_T2P,5,P,P,7,12,6,3,15,mail box,Did you see the mail box?,0.12,0.016,JPG\,key01,apple07,ring01,leaf02a,hammer01,tableknife02,postalmailbox01,sponge01,baseball01a,thermometer02b,celery,stapler06,grape01,cucumber,tennisball01b,blankImage,blankImage,postalmailbox01,,,,,,,,,,,,0,135,135,113,,,,,,,,,,,,,,,,,,,,,,,,,,,,,,,,,,,860.6366003000003,861.6367659000098,861.6202887000109,862.1761381000106,862.1761381000106,None,864.0767002000066,None,right,1.3955485000042245,864.0767002000066,None,865.4908357000095,None,right,0.37379969999892637,865.4908357000095,None,,,,,,,,,,,,,,,,,PPT60,001,2022-07-17_12h44.39.138,ABstudy,2022.1.4,59.94362901818208,
AB,Lag1_T1P_T2A,1,P,A,8,9,7,4,13,boat,Did you see the boat?,0.12,0.016,JPG\,fork03c,dandelion,dice05a,belt02a,onion,watch02a,key01,boat,eraser,medal02b,greenolive,shirt02,candle08b,blankImage,blankImage,blankImage,blankImage,boat,,,,,,,,,,,,0,136,136,199,,,,,,,,,,,,,,,,,,,,,,,,,,,,,,,,,,,865.9404313999985,866.9422889999987,866.9256023000053,867.4819426000176,867.4819426000176,None,869.0663597999956,None,right,1.2219284999882802,869.0663597999956,None,870.312193699996,None,right,0.8800116999773309,870.312193699996,None,,,,,,,,,,,,,,,,,PPT60,001,2022-07-17_12h44.39.138,ABstudy,2022.1.4,59.94362901818208,
AB,Lag1_T1P_T2A,1,P,A,7,8,6,4,12,gorilla,Did you see the gorilla?,0.12,0.016,JPG\,scissors01,ashtray01,garlic01a,medal02b,cigarette,candle08b,gorilla,envelope03a,cucumber,rice,toiletpaper01a,greenolive,blankImage,blankImage,blankImage,blankImage,blankImage,gorilla,,,,,,,,,,,,0,137,137,189,,,,,,,,,,,,,,,,,,,,,,,,,,,,,,,,,,,871.214149300009,872.2140730000101,872.1974603999988,872.7495111000026,872.7495111000026,None,874.2475393000059,None,left,0.5932527999975719,874.2475393000059,None,874.8669138000114,None,right,0.18985980001161806,874.8669138000114,None,,,,,,,,,,,,,,,,,PPT60,001,2022-07-17_12h44.39.138,ABstudy,2022.1.4,59.94362901818208,
AB,Lag1_T1P_T2P,1,P,P,7,8,6,5,13,horse,Did you see the horse?,0.12,0.016,JPG\,watermelon01,pencil01,microscope,blueberry01,computerkeyboard02,lamp04a,horse,stapler03b,sock01a,key01,binoculars01b,cauliflower01,ashtray01,blankImage,blankImage,blankImage,blankImage,horse,,,,,,,,,,,,0,138,138,3,,,,,,,,,,,,,,,,,,,,,,,,,,,,,,,,,,,875.1258021999965,876.1345680000086,876.1014905000047,876.6678513000079,876.6678513000079,None,878.2136413000117,None,left,0.706570099981036,878.2136413000117,None,878.9375222999952,None,right,0.2711184000072535,878.9375222999952,None,,,,,,,,,,,,,,,,,PPT60,001,2022-07-17_12h44.39.138,ABstudy,2022.1.4,59.94362901818208,
AB,Lag1_T1P_T2A,1,P,A,7,8,6,3,11,Snowshoe,Did you see the Snowshoe?,0.12,0.016,JPG\,birthdaycandle,mushroom01,strawberry,match,cherry01,eraser,snowshoe,thermometer02b,sock01a,ring01,feather03a,blankImage,blankImage,blankImage,blankImage,blankImage,blankImage,snowshoe,,,,,,,,,,,,0,139,139,194,,,,,,,,,,,,,,,,,,,,,,,,,,,,,,,,,,,879.2379578000109,880.2388182000141,880.2223749000113,880.722508100007,880.722508100007,None,882.2249465000059,None,right,0.6308864000020549,882.2249465000059,None,882.8748504999967,None,right,0.39783110001008026,882.8748504999967,None,,,,,,,,,,,,,,,,,PPT60,001,2022-07-17_12h44.39.138,ABstudy,2022.1.4,59.94362901818208,
